// Start Time: Unknown
// Update Rate: 100.0Hz
// Filter Profile: human (34.3)
// Firmware Version: 2.1.4
PacketCounter	SampleTimeFine	Acc_X	Acc_Y	Acc_Z	Gyr_X	Gyr_Y	Gyr_Z	VelInc_X	VelInc_Y	VelInc_Z	OriInc_q0	OriInc_q1	OriInc_q2	OriInc_q3	
44668	    0	24.385112	-5.504020	-10.223695	-1.040520	-0.124748	-3.604528	0.242864	-0.059954	-0.101782	0.999824	-0.005202	-0.000624	-0.018022	
44669	    0	24.466895	-13.065510	-9.586396	-0.543815	-0.184641	-3.569225	0.242371	-0.135254	-0.095276	0.999836	-0.002719	-0.000923	-0.017845	
44670	    0	20.299488	-7.456938	-7.374166	0.156602	-0.410293	-3.593069	0.201763	-0.078144	-0.073387	0.999836	0.000783	-0.002051	-0.017964	
44671	    0	18.464931	-0.162819	-2.391122	0.219165	-0.385304	-3.421190	0.184631	-0.004761	-0.023560	0.999851	0.001096	-0.001926	-0.017105	
44672	    0	18.697778	1.846521	1.900867	-0.486395	-0.256931	-3.167670	0.187215	0.015548	0.019209	0.999870	-0.002432	-0.001285	-0.015838	
44673	    0	19.926251	-1.254363	4.741590	-1.281033	-0.038721	-3.032821	0.199036	-0.015259	0.047546	0.999864	-0.006405	-0.000194	-0.015163	
44674	    0	18.976151	-3.382268	6.424982	-1.628189	0.172432	-2.913992	0.189302	-0.036059	0.064374	0.999860	-0.008141	0.000862	-0.014569	
44675	    0	16.245687	-8.017370	6.601981	-1.898856	0.325028	-2.773417	0.161438	-0.081787	0.066528	0.999857	-0.009494	0.001625	-0.013866	
44676	    0	13.543306	-11.980442	4.927656	-2.156744	0.425741	-2.611287	0.133965	-0.121021	0.050291	0.999854	-0.010783	0.002129	-0.013056	
44677	    0	10.760753	-14.507049	2.764497	-2.168181	0.437947	-2.434650	0.105896	-0.146057	0.028992	0.999865	-0.010840	0.002190	-0.012173	
44678	    0	7.288238	-16.981291	2.028941	-2.018625	0.405709	-2.244655	0.071015	-0.170402	0.021862	0.999884	-0.010093	0.002028	-0.011223	
44679	    0	5.616033	-18.833487	0.788709	-1.731731	0.440229	-1.905877	0.054382	-0.188782	0.009399	0.999914	-0.008658	0.002201	-0.009529	
44680	    0	5.183535	-19.494647	0.771920	-0.939383	0.605401	-1.519989	0.050377	-0.195294	0.008482	0.999955	-0.004697	0.003027	-0.007600	
44681	    0	3.861348	-21.487705	1.119080	0.060273	0.737959	-1.096352	0.037476	-0.215088	0.010986	0.999978	0.000301	0.003690	-0.005482	
44682	    0	0.842761	-22.182494	1.190219	0.965127	0.761802	-0.726897	0.007664	-0.221908	0.010801	0.999974	0.004826	0.003809	-0.003634	
44683	    0	-1.813651	-19.225876	1.345106	1.426713	0.729569	-0.292209	-0.018372	-0.192322	0.012146	0.999967	0.007133	0.003648	-0.001461	
44684	    0	-1.883155	-14.878039	1.834316	1.477449	0.694855	0.221636	-0.018605	-0.148932	0.017308	0.999966	0.007387	0.003474	0.001108	
44685	    0	0.089899	-10.578354	4.597090	1.049242	0.776680	0.733955	0.001465	-0.106018	0.045410	0.999971	0.005246	0.003883	0.003670	
44686	    0	2.619348	-6.606597	6.725129	0.373272	0.893220	1.198399	0.026889	-0.066031	0.067009	0.999969	0.001866	0.004466	0.005992	
44687	    0	5.079105	-2.708242	8.267509	-0.069238	1.120011	1.489279	0.051453	-0.026672	0.082397	0.999956	-0.000346	0.005600	0.007446	
44688	    0	7.512519	-2.562224	7.525456	-0.543224	1.348713	1.608117	0.075832	-0.024811	0.074813	0.999941	-0.002716	0.006743	0.008040	
44689	    0	9.286466	-4.061550	4.699350	-0.870345	1.541940	1.715894	0.093567	-0.039612	0.046448	0.999924	-0.004352	0.007710	0.008579	
44690	    0	10.008357	-5.743015	-0.746369	-1.147497	1.640753	1.882231	0.100554	-0.056530	-0.007961	0.999906	-0.005737	0.008204	0.009411	
44691	    0	12.258409	-8.122477	-7.404688	-1.032098	1.355022	2.094332	0.122925	-0.080322	-0.074463	0.999908	-0.005160	0.006775	0.010471	
44692	    0	20.862295	-11.686005	-13.353614	-0.119975	0.984981	2.330842	0.209306	-0.114504	-0.134497	0.999919	-0.000600	0.004925	0.011654	
44693	    0	33.484130	-13.090827	-13.651151	1.136253	0.783570	2.762714	0.336060	-0.125488	-0.138550	0.999880	0.005681	0.003918	0.013813	
44694	    0	35.956503	-9.871465	-8.507748	1.952108	1.000279	3.289055	0.360680	-0.091941	-0.087799	0.999804	0.009760	0.005001	0.016444	
44695	    0	29.871583	-8.877032	-1.997916	2.387431	1.304160	3.467841	0.300049	-0.083313	-0.022949	0.999757	0.011936	0.006520	0.017338	
44696	    0	25.681873	-3.279565	2.011817	2.394324	1.298070	3.827638	0.257508	-0.028096	0.018093	0.999723	0.011971	0.006490	0.019136	
44697	    0	24.042509	2.746046	3.064847	2.226654	1.153671	3.992832	0.239990	0.031921	0.029602	0.999722	0.011132	0.005768	0.019962	
44698	    0	25.202666	8.852010	0.569889	1.305862	0.876678	3.770327	0.250322	0.093215	0.005198	0.999791	0.006529	0.004383	0.018850	
44699	    0	25.347346	12.291342	-1.661876	-0.035097	0.550302	3.694368	0.251099	0.127563	-0.017334	0.999825	-0.000175	0.002751	0.018471	
44700	    0	23.810252	8.308002	-1.044761	-0.899564	0.299283	3.842795	0.236432	0.087584	-0.011189	0.999804	-0.004498	0.001496	0.019213	
44701	    0	22.968717	1.973012	0.020115	-0.681349	0.161181	3.870641	0.229248	0.024170	-0.000061	0.999806	-0.003407	0.000806	0.019352	
44702	    0	19.562009	-1.000680	0.024988	0.155267	0.195705	3.665176	0.195760	-0.006420	0.000052	0.999831	0.000776	0.000978	0.018325	
44703	    0	15.500370	0.022144	-0.412269	1.043940	0.284590	3.151086	0.154968	0.002686	-0.004333	0.999861	0.005219	0.001423	0.015755	
44704	    0	13.139067	2.677789	-1.775602	1.758070	0.305569	2.447603	0.131021	0.028539	-0.017711	0.999885	0.008790	0.001528	0.012238	
44705	    0	11.832930	4.985178	-2.267258	2.181316	0.164991	1.782286	0.117859	0.051147	-0.022217	0.999900	0.010906	0.000825	0.008911	
44706	    0	10.731577	6.225393	-2.859186	2.477155	-0.053598	1.319738	0.106908	0.063308	-0.027783	0.999901	0.012385	-0.000268	0.006598	
44707	    0	9.187581	7.731613	-4.193480	2.364414	-0.261505	0.967434	0.091553	0.078247	-0.040894	0.999917	0.011822	-0.001307	0.004837	
44708	    0	6.672291	9.887647	-4.841471	1.989403	-0.419053	0.723281	0.066463	0.099591	-0.047287	0.999941	0.009947	-0.002095	0.003616	
44709	    0	3.700500	12.888211	-5.102328	1.172647	-0.516323	0.512699	0.036804	0.129272	-0.050171	0.999976	0.005863	-0.002582	0.002563	
44710	    0	1.112739	15.209485	-4.737421	0.520326	-0.523759	0.354959	0.010981	0.152237	-0.046949	0.999991	0.002602	-0.002619	0.001775	
44711	    0	-1.248128	15.255841	-4.172150	-0.074768	-0.487328	0.254059	-0.012573	0.152527	-0.041809	0.999995	-0.000374	-0.002437	0.001270	
44712	    0	-2.775382	14.138117	-3.635604	-0.537111	-0.522805	0.080300	-0.027715	0.141272	-0.036808	0.999992	-0.002686	-0.002614	0.000401	
44713	    0	-3.683523	13.261039	-4.650118	-1.046569	-0.588230	-0.114442	-0.036621	0.132385	-0.047302	0.999981	-0.005233	-0.002941	-0.000572	
44714	    0	-4.455367	16.397889	-6.881158	-1.638816	-0.671777	-0.312428	-0.044064	0.163476	-0.070301	0.999959	-0.008194	-0.003359	-0.001562	
44715	    0	-5.680544	20.014147	-8.076840	-1.899561	-0.566111	-0.360114	-0.056213	0.199463	-0.082825	0.999949	-0.009498	-0.002831	-0.001801	
44716	    0	-6.252518	19.236689	-3.486996	-1.122102	-0.695425	-0.349238	-0.062065	0.192275	-0.036165	0.999976	-0.005610	-0.003477	-0.001746	
44717	    0	-5.599500	11.863228	3.809381	0.961506	-1.408404	-0.291447	-0.056091	0.118530	0.038269	0.999962	0.004807	-0.007042	-0.001457	
44718	    0	-3.273736	-0.782450	5.000308	2.007175	-2.146035	-0.188644	-0.033278	-0.008292	0.049566	0.999891	0.010036	-0.010730	-0.000943	
44719	    0	-0.637064	-10.080600	6.028886	1.360371	-2.614500	-0.461595	-0.007385	-0.101196	0.059509	0.999888	0.006802	-0.013072	-0.002308	
44720	    0	3.707350	-15.262446	2.977065	-0.038339	-2.638334	-1.087416	0.035846	-0.152816	0.030278	0.999898	-0.000192	-0.013191	-0.005437	
44721	    0	8.830410	-13.129378	1.164026	-0.324066	-1.920362	-1.282530	0.087341	-0.131836	0.012695	0.999931	-0.001620	-0.009602	-0.006413	
44722	    0	16.860252	-16.967116	-4.044389	0.972760	-1.395816	-0.436788	0.168512	-0.169844	-0.040093	0.999961	0.004864	-0.006979	-0.002184	
44723	    0	15.536150	-27.884010	-5.814658	-0.105095	-0.334931	0.392914	0.156006	-0.278564	-0.057739	0.999996	-0.000525	-0.001675	0.001965	
44724	    0	4.290937	-21.923218	2.759450	-4.520052	-0.203151	0.849799	0.043807	-0.218349	0.032580	0.999735	-0.022598	-0.001016	0.004249	
44725	    0	0.970671	-11.227929	5.279521	-5.867223	-1.942578	1.397176	0.009949	-0.110596	0.056152	0.999497	-0.029331	-0.009711	0.006985	
44726	    0	7.015940	1.802175	6.938185	-4.445262	-0.771016	0.013925	0.069891	0.019567	0.069228	0.999745	-0.022224	-0.003855	0.000070	
44727	    0	61.936351	9.994019	16.320464	5.647295	1.009699	-0.492927	0.620422	0.093811	0.162781	0.999585	0.028233	0.005048	-0.002464	
44728	    0	20.398321	-69.886176	-46.641454	0.520927	-3.708866	-0.207341	0.211884	-0.697867	-0.464353	0.999824	0.002604	-0.018543	-0.001037	
44729	    0	29.984768	-11.385345	5.750651	0.566131	3.243615	1.293250	0.301453	-0.112061	0.052307	0.999843	0.002831	0.016217	0.006466	
44730	    0	12.222194	46.129816	8.879743	1.269356	-1.075949	0.487524	0.120607	0.461015	0.092376	0.999962	0.006347	-0.005380	0.002438	
44731	    0	-16.350058	75.400614	-9.769113	-0.890169	-1.165020	-0.505071	-0.161011	0.753967	-0.101990	0.999969	-0.004451	-0.005825	-0.002525	
44732	    0	-10.386612	48.477688	-10.306713	-1.801152	-0.053407	-1.565398	-0.100044	0.484615	-0.107459	0.999928	-0.009006	-0.000267	-0.007827	
44733	    0	17.954427	22.112150	-20.400577	-3.440456	0.036053	-3.661732	0.183472	0.214233	-0.207764	0.999684	-0.017200	0.000180	-0.018307	
44734	    0	23.248302	5.786743	-15.981078	-2.870462	0.418514	-3.913122	0.233190	0.051003	-0.161063	0.999703	-0.014351	0.002092	-0.019564	
44735	    0	18.309494	-6.616713	-13.512173	-1.666179	-0.495180	-3.583000	0.182190	-0.070557	-0.134094	0.999802	-0.008330	-0.002476	-0.017914	
44736	    0	13.328275	4.365859	-16.288167	-1.331410	-0.737235	-3.503249	0.134607	0.040225	-0.162663	0.999817	-0.006657	-0.003686	-0.017515	
44737	    0	11.828314	17.626088	-18.257598	-1.200747	-0.652352	-3.524227	0.121948	0.173035	-0.183228	0.999821	-0.006003	-0.003262	-0.017620	
44738	    0	22.798827	7.980310	-14.507041	-1.434621	-0.144015	-3.906532	0.229580	0.074286	-0.145452	0.999783	-0.007173	-0.000720	-0.019531	
44739	    0	29.110486	-12.093041	-13.462081	-1.382543	-0.102813	-3.857692	0.288757	-0.127441	-0.133606	0.999789	-0.006912	-0.000514	-0.019287	
44740	    0	25.949203	-12.977721	-9.127971	-0.105865	-0.201810	-3.921761	0.256972	-0.134881	-0.090949	0.999806	-0.000529	-0.001009	-0.019608	
44741	    0	21.024539	-2.888431	-1.948637	0.626415	-0.342392	-3.940846	0.209656	-0.032959	-0.019226	0.999799	0.003132	-0.001712	-0.019703	
44742	    0	20.509972	2.064932	2.375706	0.109488	-0.341435	-3.675860	0.205392	0.016863	0.024117	0.999829	0.000547	-0.001707	-0.018378	
44743	    0	20.531083	-0.220480	7.075107	-0.650631	-0.093846	-3.488342	0.205200	-0.005554	0.070862	0.999842	-0.003253	-0.000469	-0.017441	
44744	    0	19.502628	-3.986346	8.855251	-1.309465	0.072483	-3.341473	0.194363	-0.042534	0.088755	0.999839	-0.006547	0.000362	-0.016706	
44745	    0	16.125645	-5.484888	9.031239	-1.708128	0.267807	-3.267093	0.160461	-0.056702	0.090576	0.999828	-0.008540	0.001339	-0.016335	
44746	    0	12.654085	-7.839598	8.303069	-2.398640	0.388551	-3.008076	0.125515	-0.079288	0.083734	0.999813	-0.011992	0.001943	-0.015039	
44747	    0	10.531627	-10.373062	6.001247	-3.333531	0.307678	-2.588084	0.104065	-0.104065	0.061584	0.999776	-0.016666	0.001538	-0.012939	
44748	    0	9.506357	-15.312041	2.758648	-4.329729	0.129522	-2.240021	0.093365	-0.153528	0.030847	0.999702	-0.021646	0.000648	-0.011199	
44749	    0	8.611686	-20.982873	-0.716988	-5.127407	-0.009919	-1.968631	0.084045	-0.210754	-0.001770	0.999622	-0.025634	-0.000050	-0.009842	
44750	    0	6.340726	-23.750483	-2.734043	-5.095898	0.183890	-1.601791	0.061478	-0.238597	-0.021327	0.999642	-0.025476	0.000919	-0.008008	
44751	    0	3.727952	-24.638053	-2.447246	-4.000195	0.646257	-1.120841	0.035828	-0.247009	-0.019653	0.999779	-0.020000	0.003231	-0.005604	
44752	    0	1.287905	-25.573904	-1.032460	-1.399250	0.849735	-0.715647	0.011925	-0.255847	-0.008587	0.999960	-0.006996	0.004249	-0.003578	
44753	    0	-1.691051	-28.347780	-1.606074	1.460283	0.735673	-0.296787	-0.017395	-0.283325	-0.018066	0.999965	0.007301	0.003678	-0.001484	
44754	    0	-3.819849	-26.276522	-1.208016	2.882109	0.658822	0.115590	-0.038095	-0.262578	-0.015739	0.999890	0.014410	0.003294	0.000578	
44755	    0	-2.073181	-16.973023	1.441599	3.181028	0.647765	0.502800	-0.020264	-0.169983	0.011780	0.999865	0.015904	0.003239	0.002514	
44756	    0	1.971701	-6.183835	1.409292	2.435758	0.652142	0.948935	0.020055	-0.061909	0.013274	0.999908	0.012178	0.003261	0.004745	
44757	    0	4.470474	-0.047093	2.416207	1.528197	0.769248	1.288629	0.044800	-0.000366	0.023987	0.999942	0.007641	0.003846	0.006443	
44758	    0	5.169258	-1.488836	4.674753	0.599869	0.922215	1.348703	0.052007	-0.014678	0.046464	0.999962	0.002999	0.004611	0.006743	
44759	    0	6.201243	-3.574995	5.577382	0.095559	1.080336	1.401538	0.062561	-0.035339	0.055420	0.999960	0.000478	0.005402	0.007008	
44760	    0	7.309054	-4.159521	5.468165	0.216678	1.227017	1.531817	0.073740	-0.041091	0.054186	0.999950	0.001083	0.006135	0.007659	
44761	    0	8.560654	-3.316478	4.431057	0.191502	1.344517	1.712070	0.086182	-0.032471	0.043701	0.999940	0.000957	0.006722	0.008560	
44762	    0	9.840657	-2.061892	0.815518	-0.391588	1.349480	1.864666	0.098645	-0.019685	0.007529	0.999931	-0.001958	0.006747	0.009323	
44763	    0	12.171451	-3.975970	-5.694644	-0.701158	1.025606	2.076009	0.121826	-0.038696	-0.057434	0.999927	-0.003506	0.005128	0.010380	
44764	    0	21.462579	-10.245251	-12.648707	-0.135807	0.783369	2.401797	0.215339	-0.099956	-0.127261	0.999920	-0.000679	0.003917	0.012009	
44765	    0	35.584086	-13.080454	-13.063411	0.898777	0.901257	2.751265	0.356995	-0.125305	-0.132812	0.999885	0.004494	0.004506	0.013756	
44766	    0	34.333832	-9.019663	-6.211274	1.901748	1.360026	3.134546	0.344253	-0.084195	-0.065271	0.999808	0.009508	0.006800	0.015672	
44767	    0	24.717456	-6.555273	0.372910	2.485107	1.444559	3.516690	0.248291	-0.061218	0.001160	0.999742	0.012424	0.007222	0.017582	
44768	    0	22.041503	-2.682492	1.791499	2.124595	1.119142	3.967831	0.220986	-0.022624	0.016424	0.999731	0.010622	0.005595	0.019837	
44769	    0	23.202496	2.192064	1.553334	1.590864	0.830340	4.151507	0.231567	0.026611	0.014771	0.999743	0.007954	0.004151	0.020756	
44770	    0	26.340041	6.148290	-0.425467	0.920553	0.585217	4.031093	0.262076	0.066795	-0.004724	0.999782	0.004602	0.002926	0.020154	
44771	    0	30.691717	7.935881	-3.052209	0.114639	0.267809	3.931682	0.305237	0.085388	-0.030884	0.999805	0.000573	0.001339	0.019657	
44772	    0	32.041239	6.701345	-3.281025	-0.310538	0.084120	4.043284	0.318957	0.073421	-0.033055	0.999794	-0.001553	0.000421	0.020215	
44773	    0	29.435738	2.030731	-2.193754	0.006295	0.024416	4.329257	0.293823	0.026672	-0.021973	0.999765	0.000031	0.000122	0.021645	
44774	    0	25.071212	0.339228	-0.372943	0.944788	0.022318	4.363422	0.250558	0.008878	-0.003724	0.999750	0.004724	0.000112	0.021815	
44775	    0	20.107213	2.223272	0.341944	2.014335	0.008584	4.094288	0.200562	0.026306	0.003662	0.999740	0.010071	0.000043	0.020470	
44776	    0	16.474212	4.265296	-1.077588	2.870621	-0.001526	3.585940	0.163940	0.045746	-0.010133	0.999736	0.014352	-0.000008	0.017928	
44777	    0	14.099648	6.932647	-2.436364	3.312191	0.007058	2.936794	0.139954	0.071777	-0.023193	0.999755	0.016560	0.000035	0.014683	
44778	    0	12.293644	9.109711	-2.435495	3.565294	-0.059705	2.321037	0.121872	0.092930	-0.022673	0.999773	0.017825	-0.000299	0.011604	
44779	    0	10.874312	10.556822	-3.468484	3.268620	-0.196659	1.739602	0.107849	0.107056	-0.032837	0.999827	0.016342	-0.000983	0.008698	
44780	    0	8.175562	13.688096	-4.833260	2.442057	-0.318156	1.278728	0.080951	0.137976	-0.046523	0.999904	0.012210	-0.001591	0.006393	
44781	    0	4.439515	17.709900	-5.787935	1.336876	-0.515753	0.878917	0.043762	0.177673	-0.056580	0.999964	0.006684	-0.002579	0.004395	
44782	    0	1.283659	19.754619	-5.995943	0.269700	-0.600817	0.596811	0.012426	0.197664	-0.059655	0.999990	0.001348	-0.003004	0.002984	
44783	    0	-1.854735	18.764291	-4.349362	-0.423433	-0.581171	0.534059	-0.018921	0.187500	-0.043945	0.999990	-0.002117	-0.002906	0.002670	
44784	    0	-3.809399	16.336645	-3.479577	-0.972181	-0.619892	0.288202	-0.038219	0.163139	-0.035707	0.999982	-0.004861	-0.003099	0.001441	
44785	    0	-2.998618	16.490283	-3.359666	-1.576824	-0.521094	-0.283054	-0.029663	0.164673	-0.034973	0.999964	-0.007884	-0.002605	-0.001415	
44786	    0	-3.840082	19.991449	-5.376658	-2.752206	-0.499170	-0.469986	-0.037793	0.199238	-0.056606	0.999899	-0.013761	-0.002496	-0.002350	
44787	    0	-7.337181	20.660956	-6.261417	-3.873503	-0.637096	-0.279254	-0.072876	0.205444	-0.066833	0.999805	-0.019366	-0.003185	-0.001396	
44788	    0	-8.479623	17.981822	1.123677	-1.223197	-1.136412	-0.177004	-0.084695	0.179955	0.009655	0.999965	-0.006116	-0.005682	-0.000885	
44789	    0	-6.132331	2.783017	8.447463	3.108390	-1.953807	-0.100714	-0.062134	0.026550	0.084290	0.999831	0.015541	-0.009768	-0.000504	
44790	    0	-1.729174	-13.216463	8.671463	4.019357	-2.563148	-0.327714	-0.018597	-0.133839	0.083803	0.999714	0.020095	-0.012815	-0.001638	
44791	    0	2.932997	-18.740819	9.208510	2.820217	-2.958891	-0.685932	0.027344	-0.188782	0.089844	0.999784	0.014100	-0.014793	-0.003429	
44792	    0	6.492144	-17.405800	0.230041	1.238878	-2.842458	-1.067400	0.063960	-0.174415	0.002134	0.999866	0.006194	-0.014212	-0.005337	
44793	    0	12.456217	-9.926104	-4.785475	1.728305	-1.876129	-1.123083	0.124451	-0.099548	-0.047546	0.999903	0.008641	-0.009380	-0.005615	
44794	    0	19.824206	-12.685509	-7.562074	2.163171	-0.038339	-0.700012	0.197813	-0.126720	-0.076954	0.999935	0.010816	-0.000192	-0.003500	
44795	    0	7.602482	-17.001480	-1.832509	-2.782339	0.089267	-0.105289	0.075928	-0.170288	-0.015991	0.999903	-0.013911	0.000446	-0.000526	
44796	    0	-0.268947	-5.675853	1.454569	-6.359854	-1.441259	0.567728	-0.002643	-0.056266	0.016321	0.999464	-0.031794	-0.007205	0.002838	
44797	    0	2.294757	-5.090696	1.288470	-5.805868	-0.974417	0.757710	0.023071	-0.050415	0.014465	0.999559	-0.029025	-0.004871	0.003788	
44798	    0	12.993929	9.256223	13.829130	-2.296503	0.510037	-0.525869	0.130535	0.093797	0.136887	0.999927	-0.011482	0.002550	-0.002629	
44799	    0	52.618698	-16.612459	2.260565	7.039788	-0.339580	-0.908089	0.525391	-0.169189	0.017578	0.999369	0.035192	-0.001698	-0.004539	
44800	    0	15.704082	-65.652592	-61.881668	-0.955037	-2.460170	0.250633	0.165436	-0.659261	-0.613672	0.999911	-0.004775	-0.012300	0.001253	
44801	    0	23.916303	44.768477	21.232675	0.722701	0.425724	1.168070	0.237000	0.448303	0.213440	0.999973	0.003613	0.002129	0.005840	
44802	    0	-3.781275	46.921569	-6.988909	-0.566678	-0.801283	-0.923927	-0.035361	0.469182	-0.071363	0.999977	-0.002833	-0.004006	-0.004620	
44803	    0	-11.787285	54.447453	-7.433757	-1.061261	-0.285152	-1.264968	-0.114319	0.544800	-0.077393	0.999965	-0.005306	-0.001426	-0.006325	
44804	    0	8.414036	22.109409	-10.873450	-2.057951	-0.444818	-2.953310	0.087626	0.218684	-0.110801	0.999835	-0.010289	-0.002224	-0.014766	
44805	    0	28.265621	10.962743	-17.124606	-2.656806	-0.232528	-3.939428	0.284912	0.101746	-0.172302	0.999717	-0.013283	-0.001163	-0.019695	
44806	    0	14.872523	0.717337	-9.482587	-1.531881	-0.446155	-3.385932	0.149021	0.003927	-0.094532	0.999825	-0.007659	-0.002231	-0.016929	
44807	    0	10.526995	2.956599	-12.312964	-1.060551	-1.010766	-3.538729	0.106384	0.027039	-0.122742	0.999816	-0.005302	-0.005054	-0.017693	
44808	    0	12.614368	15.819474	-17.366783	-1.004280	-1.089925	-3.512595	0.129832	0.155064	-0.173751	0.999818	-0.005021	-0.005449	-0.017562	
44809	    0	17.765855	12.079778	-14.161329	-1.602276	-0.317975	-3.576128	0.179993	0.116455	-0.142273	0.999806	-0.008011	-0.001590	-0.017879	
44810	    0	25.499658	-3.760965	-11.788418	-1.931515	-0.086981	-3.595983	0.254303	-0.043322	-0.117373	0.999791	-0.009657	-0.000435	-0.017979	
44811	    0	28.823459	-14.473394	-11.001426	-1.269606	-0.086027	-3.549405	0.285645	-0.150513	-0.108948	0.999822	-0.006348	-0.000430	-0.017746	
44812	    0	23.577550	-8.606165	-5.929987	-0.240721	-0.144776	-3.610236	0.234213	-0.090370	-0.059023	0.999836	-0.001204	-0.000724	-0.018050	
44813	    0	20.586894	-0.538125	-0.867113	-0.229465	-0.232708	-3.361671	0.205750	-0.008850	-0.008423	0.999857	-0.001147	-0.001163	-0.016808	
44814	    0	20.484835	1.467140	2.647284	-1.041078	0.011063	-3.134107	0.205048	0.011597	0.026396	0.999864	-0.005205	0.000055	-0.015670	
44815	    0	19.665891	-1.537170	6.215282	-1.802921	0.237477	-3.063364	0.196472	-0.017822	0.062073	0.999841	-0.009014	0.001187	-0.015316	
44816	    0	17.594475	-4.407465	6.432468	-2.307651	0.409533	-3.023141	0.175391	-0.045985	0.064488	0.999817	-0.011538	0.002048	-0.015115	
44817	    0	13.514078	-7.088547	5.885901	-2.722355	0.483928	-2.979484	0.134216	-0.072083	0.059509	0.999793	-0.013611	0.002419	-0.014896	
44818	    0	10.699657	-10.062651	3.077480	-3.286425	0.462568	-2.744505	0.105680	-0.101562	0.032193	0.999767	-0.016431	0.002313	-0.013721	
44819	    0	8.516564	-14.655728	-0.010172	-3.775350	0.272584	-2.519443	0.083313	-0.147583	0.002563	0.999742	-0.018875	0.001363	-0.012596	
44820	    0	6.732159	-20.875988	-2.815714	-4.052526	0.025179	-2.263463	0.064946	-0.210017	-0.023918	0.999730	-0.020261	0.000126	-0.011316	
44821	    0	5.002860	-24.134844	-4.246168	-3.700336	-0.071722	-1.960898	0.047668	-0.242554	-0.037964	0.999781	-0.018500	-0.000359	-0.009804	
44822	    0	4.723282	-25.308960	-2.892928	-2.555366	0.257692	-1.384212	0.045444	-0.253751	-0.025749	0.999893	-0.012776	0.001288	-0.006921	
44823	    0	4.589137	-24.335241	-1.828582	-0.382998	0.553325	-0.905614	0.044739	-0.243591	-0.017944	0.999984	-0.001915	0.002767	-0.004528	
44824	    0	3.088193	-23.456515	-0.629079	2.274569	0.535597	-0.624672	0.030128	-0.234568	-0.009040	0.999927	0.011373	0.002678	-0.003123	
44825	    0	0.690009	-24.090286	1.180465	3.961446	0.346588	-0.470765	0.006348	-0.241089	0.007019	0.999799	0.019806	0.001733	-0.002354	
44826	    0	-0.964283	-19.421722	3.144101	4.028213	0.288029	-0.187505	-0.009784	-0.194789	0.027535	0.999795	0.020140	0.001440	-0.000937	
44827	    0	0.112991	-8.920348	6.281110	2.861887	0.417533	0.321972	0.001404	-0.090088	0.061523	0.999894	0.014309	0.002088	0.001610	
44828	    0	3.261007	0.364038	6.698396	1.243226	0.649079	1.037039	0.032809	0.003394	0.066899	0.999962	0.006216	0.003245	0.005185	
44829	    0	5.679562	1.141436	7.697862	0.196269	0.943769	1.547263	0.057068	0.011780	0.076721	0.999958	0.000981	0.004719	0.007736	
44830	    0	7.244792	-3.707944	9.398259	-0.719848	1.231028	1.704442	0.073336	-0.036119	0.093664	0.999938	-0.003599	0.006155	0.008522	
44831	    0	8.101762	-5.741942	8.715343	-0.874160	1.490058	1.721997	0.082153	-0.056335	0.086792	0.999926	-0.004371	0.007450	0.008610	
44832	    0	8.683584	-5.512293	5.738417	-0.711462	1.716855	1.909122	0.087845	-0.054085	0.056827	0.999910	-0.003557	0.008584	0.009545	
44833	    0	10.158808	-4.337410	2.911844	-0.938449	1.835889	2.085951	0.102295	-0.042175	0.028381	0.999892	-0.004692	0.009179	0.010429	
44834	    0	11.539065	-4.116953	-2.422648	-1.341109	1.657359	2.177132	0.115626	-0.040077	-0.024913	0.999884	-0.006705	0.008286	0.010885	
44835	    0	16.039949	-8.772092	-10.790396	-1.113930	1.217884	2.362905	0.160767	-0.086426	-0.108398	0.999896	-0.005569	0.006089	0.011814	
44836	    0	28.467696	-14.494414	-15.890278	-0.036241	1.032864	2.643483	0.285734	-0.141201	-0.160351	0.999899	-0.000181	0.005164	0.013217	
44837	    0	37.902648	-13.814894	-13.489667	1.258919	1.352194	3.126698	0.380188	-0.131348	-0.138306	0.999835	0.006294	0.006761	0.015633	
44838	    0	31.028317	-8.833796	-6.314646	2.263079	1.762546	3.612266	0.311224	-0.081980	-0.066838	0.999734	0.011314	0.008812	0.018060	
44839	    0	23.086330	-5.724690	-0.871562	2.540081	1.736053	3.835683	0.231812	-0.052673	-0.011414	0.999698	0.012699	0.008679	0.019176	
44840	    0	20.810288	-0.949565	0.608361	2.273785	1.384300	4.086518	0.208275	-0.005299	0.004566	0.999702	0.011368	0.006921	0.020431	
44841	    0	22.283115	3.923879	-0.635482	1.788679	0.993435	4.125578	0.221924	0.043884	-0.007080	0.999735	0.008943	0.004967	0.020626	
44842	    0	27.359107	7.674808	-3.351439	1.241014	0.629091	4.013554	0.271869	0.082425	-0.033872	0.999774	0.006205	0.003145	0.020066	
44843	    0	32.258098	8.914084	-5.037845	0.537147	0.293180	4.038519	0.320618	0.095764	-0.050598	0.999791	0.002686	0.001466	0.020191	
44844	    0	31.399911	6.301805	-4.938740	-0.003052	0.102051	4.383438	0.312492	0.069878	-0.049548	0.999760	-0.000015	0.000510	0.021915	
44845	    0	28.339439	2.424337	-3.786086	0.209827	0.094041	4.622300	0.282715	0.030823	-0.037964	0.999732	0.001049	0.000470	0.023109	
44846	    0	23.209746	1.515025	-1.379225	1.159771	0.112925	4.473131	0.231672	0.020415	-0.013815	0.999732	0.005798	0.000565	0.022364	
44847	    0	18.009387	1.750790	-1.160983	2.074609	0.080306	4.017982	0.179688	0.021240	-0.011475	0.999743	0.010372	0.000401	0.020088	
44848	    0	14.540915	3.805494	-2.077152	2.809180	0.076300	3.396691	0.144724	0.040804	-0.020267	0.999757	0.014045	0.000381	0.016982	
44849	    0	12.245894	6.265380	-2.682660	3.425871	0.045208	2.719333	0.121582	0.064758	-0.025757	0.999761	0.017128	0.000226	0.013596	
44850	    0	10.249731	9.389472	-3.869842	3.315752	-0.025751	2.016385	0.101544	0.095546	-0.037110	0.999811	0.016578	-0.000129	0.010081	
44851	    0	7.541496	13.364785	-4.777437	2.726282	-0.115971	1.456509	0.074463	0.134827	-0.045898	0.999880	0.013631	-0.000580	0.007282	
44852	    0	4.336353	16.823275	-5.261686	1.763947	-0.292783	1.020068	0.042579	0.168906	-0.051066	0.999947	0.008820	-0.001464	0.005100	
44853	    0	1.819204	18.565578	-5.040397	0.793652	-0.503543	0.664524	0.017700	0.185913	-0.049622	0.999983	0.003968	-0.002518	0.003323	
44854	    0	0.286145	18.440928	-4.566210	-0.146294	-0.744059	0.416757	0.002647	0.184381	-0.045787	0.999990	-0.000731	-0.003720	0.002084	
44855	    0	-0.765563	17.550063	-5.206311	-1.213658	-0.912485	0.244906	-0.007629	0.175171	-0.053162	0.999969	-0.006068	-0.004562	0.001225	
44856	    0	-2.114018	16.084401	-5.314080	-1.889836	-0.914590	-0.027466	-0.020870	0.160335	-0.054753	0.999945	-0.009449	-0.004573	-0.000137	
44857	    0	-2.623864	16.828134	-4.796433	-2.497938	-0.846697	-0.469985	-0.025635	0.167725	-0.050171	0.999909	-0.012489	-0.004233	-0.002350	
44858	    0	-5.288266	19.729109	-6.768743	-3.376372	-0.821156	-0.521877	-0.052082	0.196245	-0.071221	0.999846	-0.016881	-0.004106	-0.002609	
44859	    0	-7.942053	19.821436	-4.462845	-3.047312	-0.991673	-0.334182	-0.078857	0.197632	-0.048035	0.999869	-0.015236	-0.004958	-0.001671	
44860	    0	-6.728456	13.068541	3.802028	0.485426	-1.557559	-0.353627	-0.067348	0.130713	0.037813	0.999965	0.002427	-0.007788	-0.001768	
44861	    0	-2.818365	-2.458107	8.126755	4.248466	-2.346843	-0.345646	-0.029175	-0.026245	0.080383	0.999703	0.021240	-0.011733	-0.001728	
44862	    0	2.693487	-12.817610	10.724902	4.200612	-2.691741	-0.483754	0.025199	-0.130458	0.104872	0.999685	0.021001	-0.013457	-0.002419	
44863	    0	6.456120	-15.845412	6.586590	2.432610	-3.186256	-0.746969	0.062927	-0.159485	0.064941	0.999792	0.012162	-0.015930	-0.003735	
44864	    0	8.485101	-13.940941	0.358189	1.414742	-2.716563	-1.002355	0.084101	-0.139858	0.003739	0.999869	0.007073	-0.013582	-0.005012	
44865	    0	16.004312	-13.880779	-7.334616	2.664473	-1.064340	-0.757627	0.159912	-0.138428	-0.074341	0.999889	0.013322	-0.005322	-0.003788	
44866	    0	15.563686	-19.923065	-7.643303	0.024223	0.585748	-0.324631	0.155088	-0.199473	-0.076912	0.999994	0.000121	0.002929	-0.001623	
44867	    0	2.243704	-10.545410	2.012287	-5.233412	0.399063	0.194572	0.022583	-0.104858	0.022827	0.999655	-0.026164	0.001995	0.000973	
44868	    0	-0.804355	0.645849	2.679949	-6.233391	-1.877934	1.058961	-0.008330	0.007244	0.026505	0.999455	-0.031161	-0.009388	0.005294	
44869	    0	-3.032204	6.288089	11.153930	-7.379112	-0.321271	-0.128203	-0.030457	0.066956	0.109070	0.999317	-0.036887	-0.001606	-0.000641	
44870	    0	29.203237	12.185828	3.391801	-0.893216	-0.507166	0.325395	0.291747	0.122485	0.034112	0.999985	-0.004466	-0.002536	0.001627	
44871	    0	55.843062	-26.622339	5.848571	6.767138	-1.516081	-1.108016	0.556519	-0.271179	0.053589	0.999383	0.033829	-0.007579	-0.005539	
44872	    0	15.678972	-75.185377	-75.204630	-1.661708	-0.626955	0.770390	0.162044	-0.757447	-0.745266	0.999952	-0.008308	-0.003135	0.003852	
44873	    0	25.631205	32.263493	39.086699	0.138093	0.696759	0.970465	0.256104	0.323608	0.390198	0.999982	0.000690	0.003484	0.004852	
44874	    0	-3.333152	51.914374	-3.926690	-0.133515	-0.626375	-0.518991	-0.031860	0.519201	-0.039715	0.999991	-0.000668	-0.003132	-0.002595	
44875	    0	-16.640667	55.945215	-7.957127	-0.430871	-0.188447	-0.723269	-0.164307	0.559875	-0.080933	0.999990	-0.002154	-0.000942	-0.003616	
44876	    0	6.925047	21.168132	-9.849459	-2.250598	-0.172433	-2.732992	0.072210	0.209582	-0.100800	0.999843	-0.011252	-0.000862	-0.013664	
44877	    0	24.717463	15.628559	-16.003766	-2.816239	-0.299669	-3.400699	0.250000	0.149780	-0.161804	0.999755	-0.014080	-0.001498	-0.017002	
44878	    0	12.904812	2.605484	-10.681787	-1.938544	-0.420212	-3.028081	0.129637	0.023060	-0.106779	0.999836	-0.009692	-0.002101	-0.015140	
44879	    0	11.229068	1.195346	-13.066312	-1.702990	-0.884113	-3.425818	0.113037	0.008911	-0.130249	0.999806	-0.008514	-0.004420	-0.017128	
44880	    0	13.223725	11.308302	-16.134581	-1.351251	-1.034421	-3.510126	0.135016	0.109639	-0.161401	0.999809	-0.006756	-0.005172	-0.017550	
44881	    0	15.656700	9.393756	-14.361896	-1.425070	-0.596656	-3.577649	0.158630	0.090088	-0.143799	0.999809	-0.007125	-0.002983	-0.017887	
44882	    0	23.557609	-2.752163	-9.023245	-1.277625	-0.387598	-3.701640	0.235180	-0.032451	-0.089580	0.999806	-0.006388	-0.001938	-0.018507	
44883	    0	28.993735	-13.545923	-10.915045	-0.954304	-0.483733	-3.647070	0.287659	-0.141235	-0.107788	0.999819	-0.004771	-0.002419	-0.018234	
44884	    0	22.969899	-8.183659	-6.982583	-0.015832	-0.308245	-3.675860	0.228251	-0.086046	-0.069467	0.999829	-0.000079	-0.001541	-0.018378	
44885	    0	19.184652	-1.324726	-1.120385	0.165758	-0.367757	-3.573038	0.191589	-0.016663	-0.010864	0.999838	0.000829	-0.001839	-0.017864	
44886	    0	20.095539	1.271841	2.080771	-0.373285	-0.249683	-3.258852	0.201101	0.009481	0.021039	0.999865	-0.001866	-0.001248	-0.016294	
44887	    0	19.227571	-1.019780	5.292763	-1.197871	-0.041773	-3.120568	0.192078	-0.012878	0.053040	0.999860	-0.005989	-0.000209	-0.015602	
44888	    0	18.199316	-2.969468	6.910165	-1.974212	0.143631	-3.007479	0.181576	-0.031744	0.069278	0.999838	-0.009871	0.000718	-0.015037	
44889	    0	16.245231	-6.762738	7.418775	-2.651957	0.254838	-2.881807	0.161560	-0.068970	0.074890	0.999807	-0.013259	0.001274	-0.014408	
44890	    0	13.250645	-11.708881	6.761865	-3.346702	0.209252	-2.711506	0.130985	-0.117720	0.069448	0.999767	-0.016732	0.001046	-0.013556	
44891	    0	9.893386	-16.737208	4.148674	-4.190477	0.030711	-2.479798	0.096863	-0.167664	0.044983	0.999703	-0.020950	0.000154	-0.012398	
44892	    0	7.666133	-20.841889	0.184312	-4.873657	0.042730	-2.096040	0.074473	-0.209080	0.006917	0.999648	-0.024365	0.000214	-0.010479	
44893	    0	6.594892	-23.336656	-1.778486	-4.433854	0.486991	-1.561882	0.064087	-0.234192	-0.012756	0.999721	-0.022167	0.002435	-0.007809	
44894	    0	3.945712	-26.483275	-0.604566	-2.763476	0.897252	-1.038783	0.038064	-0.265084	-0.002557	0.999881	-0.013817	0.004486	-0.005194	
44895	    0	-0.637125	-30.286151	-0.878985	-0.466921	0.737957	-0.689701	-0.007446	-0.302856	-0.008057	0.999984	-0.002335	0.003690	-0.003448	
44896	    0	-4.341514	-30.421709	-1.126609	1.199731	0.499157	-0.256159	-0.043836	-0.304087	-0.012981	0.999977	0.005999	0.002496	-0.001281	
44897	    0	-3.829803	-22.961251	0.804132	1.822690	0.496872	0.329595	-0.037903	-0.229736	0.006042	0.999953	0.009113	0.002484	0.001648	
44898	    0	0.392086	-13.454053	3.167861	1.815640	0.693716	0.936526	0.004659	-0.134800	0.030440	0.999941	0.009078	0.003469	0.004683	
44899	    0	4.117729	-8.332731	4.456259	1.603927	0.924704	1.467167	0.041992	-0.083374	0.043701	0.999929	0.008019	0.004623	0.007336	
44900	    0	6.095137	-5.393598	6.022253	1.202232	1.152830	1.788565	0.061777	-0.053745	0.059545	0.999925	0.006011	0.005764	0.008943	
44901	    0	7.827273	-3.061528	8.208726	0.526631	1.333649	1.877638	0.079102	-0.030090	0.081482	0.999929	0.002633	0.006668	0.009388	
44902	    0	9.153312	-1.839295	8.062980	-0.180821	1.529732	1.907015	0.092316	-0.017443	0.079942	0.999925	-0.000904	0.007648	0.009535	
44903	    0	9.862023	-1.263121	5.987905	-0.752282	1.699310	2.008119	0.099243	-0.011414	0.059082	0.999906	-0.003761	0.008496	0.010040	
44904	    0	11.006710	-1.898723	0.369958	-1.285602	1.754638	2.122388	0.110288	-0.017797	0.002850	0.999884	-0.006428	0.008773	0.010612	
44905	    0	14.141391	-4.957574	-8.380205	-1.509728	1.471007	2.302645	0.141357	-0.048584	-0.084473	0.999878	-0.007548	0.007355	0.011513	
44906	    0	24.540079	-10.182258	-15.068758	-0.827247	1.133197	2.609921	0.245850	-0.099242	-0.151666	0.999889	-0.004136	0.005666	0.013049	
44907	    0	36.406703	-12.854208	-15.385175	0.495359	1.011699	2.935912	0.365112	-0.122803	-0.156006	0.999876	0.002477	0.005058	0.014679	
44908	    0	33.295927	-11.712686	-9.516584	1.939138	1.196940	3.259683	0.334217	-0.110744	-0.098258	0.999802	0.009695	0.005984	0.016297	
44909	    0	27.511864	-11.993280	-3.331970	2.897149	1.433886	3.423626	0.276855	-0.114685	-0.036987	0.999722	0.014484	0.007169	0.017117	
44910	    0	22.298857	-4.523134	0.394162	3.088340	1.340633	3.909163	0.223833	-0.040900	0.001789	0.999667	0.015440	0.006702	0.019544	
44911	    0	22.054976	1.995285	1.125637	3.131644	1.067471	3.980700	0.220154	0.024170	0.010437	0.999664	0.015656	0.005337	0.019901	
44912	    0	25.980069	8.883513	-1.997668	2.342800	0.829956	3.709148	0.258008	0.093865	-0.019970	0.999750	0.011713	0.004149	0.018544	
44913	    0	28.338251	12.926259	-4.226409	1.098704	0.628894	3.742461	0.280762	0.134766	-0.042419	0.999804	0.005493	0.003144	0.018711	
44914	    0	27.285482	9.957489	-3.342606	0.057797	0.451500	4.027833	0.270700	0.105051	-0.034009	0.999794	0.000289	0.002257	0.020138	
44915	    0	25.416917	4.378508	-1.947311	-0.044063	0.326561	4.078196	0.253174	0.048950	-0.019897	0.999790	-0.000220	0.001633	0.020390	
44916	    0	20.859891	1.558108	-0.987954	0.645299	0.223938	3.951147	0.208225	0.019730	-0.010054	0.999799	0.003226	0.001120	0.019754	
44917	    0	15.896963	2.333338	-1.102247	1.489351	0.191701	3.566965	0.158508	0.026245	-0.010986	0.999812	0.007446	0.000958	0.017834	
44918	    0	12.432688	4.936419	-2.193476	2.167254	0.190364	3.011686	0.123542	0.051463	-0.021502	0.999827	0.010836	0.000952	0.015058	
44919	    0	10.828421	7.018085	-3.337687	2.713922	0.114638	2.365240	0.107422	0.071899	-0.032471	0.999837	0.013569	0.000573	0.011826	
44920	    0	10.150302	8.076974	-4.154242	3.019105	0.009346	1.748555	0.100786	0.082268	-0.040313	0.999847	0.015095	0.000047	0.008742	
44921	    0	9.145288	10.149485	-4.937188	2.806964	-0.185211	1.204728	0.090881	0.102722	-0.047852	0.999883	0.014034	-0.000926	0.006023	
44922	    0	7.071815	12.790736	-5.103061	2.286968	-0.376520	0.761623	0.070323	0.128747	-0.049429	0.999925	0.011435	-0.001883	0.003808	
44923	    0	4.098791	15.575608	-5.789699	1.376357	-0.593382	0.494390	0.040771	0.156250	-0.056702	0.999969	0.006882	-0.002967	0.002472	
44924	    0	0.838180	17.127898	-6.331988	0.170899	-0.737955	0.374604	0.008294	0.171349	-0.063143	0.999990	0.000854	-0.003690	0.001873	
44925	    0	-1.743971	17.411584	-5.524766	-0.755123	-0.743870	0.186921	-0.017395	0.173889	-0.055969	0.999985	-0.003776	-0.003719	0.000935	
44926	    0	-2.645025	17.136880	-4.017828	-1.213846	-0.627141	-0.168802	-0.026177	0.171143	-0.041300	0.999976	-0.006069	-0.003136	-0.000844	
44927	    0	-2.809690	19.061857	-2.358357	-1.566334	-0.509459	-0.468451	-0.027588	0.190491	-0.025146	0.999963	-0.007832	-0.002547	-0.002342	
44928	    0	-5.284183	19.952455	-4.782037	-2.500222	-0.558678	-0.360499	-0.052344	0.198999	-0.050457	0.999916	-0.012501	-0.002793	-0.001802	
44929	    0	-7.630427	19.078162	-1.901994	-1.630425	-0.786411	-0.311284	-0.075928	0.190735	-0.020874	0.999957	-0.008152	-0.003932	-0.001556	
44930	    0	-7.055430	11.758815	5.196788	1.408980	-1.277371	-0.206760	-0.070766	0.117293	0.052343	0.999954	0.007045	-0.006387	-0.001034	
44931	    0	-3.372883	-2.237038	8.219912	3.532851	-2.134093	-0.055699	-0.034607	-0.023804	0.081421	0.999786	0.017663	-0.010670	-0.000278	
44932	    0	0.329218	-11.697102	9.465952	3.129025	-2.498985	-0.309965	0.001942	-0.118437	0.092844	0.999798	0.015644	-0.012494	-0.001550	
44933	    0	3.307494	-17.107581	5.230418	2.172192	-2.489400	-0.742376	0.031799	-0.171753	0.050842	0.999856	0.010860	-0.012446	-0.003712	
44934	    0	7.944159	-16.152686	0.546663	1.432079	-1.923426	-1.076157	0.078521	-0.161988	0.005066	0.999913	0.007160	-0.009617	-0.005381	
44935	    0	15.997952	-15.086301	-7.903748	1.008616	-0.948916	-0.747688	0.159790	-0.151062	-0.079041	0.999969	0.005043	-0.004745	-0.003738	
44936	    0	12.637056	-17.836564	-5.602696	-1.421369	-0.017357	-0.284007	0.126122	-0.178937	-0.054746	0.999973	-0.007107	-0.000087	-0.001420	
44937	    0	1.703597	-11.455942	3.303107	-5.424403	-0.140207	0.244934	0.017151	-0.113586	0.036133	0.999631	-0.027119	-0.000701	0.001225	
44938	    0	-0.426438	-2.974806	1.872198	-5.675475	-2.323719	1.180650	-0.004314	-0.029227	0.019506	0.999512	-0.028373	-0.011617	0.005902	
44939	    0	-1.738737	0.707511	4.032338	-5.782944	-0.655457	-0.046546	-0.017517	0.008240	0.040039	0.999577	-0.028911	-0.003277	-0.000233	
44940	    0	43.461068	8.923966	11.895474	2.062079	0.942632	0.271612	0.435047	0.088612	0.117821	0.999934	0.010310	0.004713	0.001358	
44941	    0	51.511906	-40.181693	-3.454212	6.290945	-2.476048	-1.679569	0.512207	-0.404907	-0.040894	0.999393	0.031448	-0.012378	-0.008396	
44942	    0	26.526637	-67.031601	-57.124794	-2.525432	1.266149	1.305824	0.266079	-0.675736	-0.564421	0.999879	-0.012627	0.006330	0.006529	
44943	    0	17.239579	46.444674	37.252574	-0.137330	0.016213	1.312265	0.169373	0.465820	0.372192	0.999978	-0.000687	0.000081	0.006561	
44944	    0	-11.087483	59.208906	-6.529873	-0.437166	-0.769236	-0.282098	-0.109784	0.592099	-0.067017	0.999989	-0.002186	-0.003846	-0.001410	
44945	    0	-18.039444	55.477422	-12.758665	-1.590557	-0.093843	-0.585182	-0.178711	0.554260	-0.132080	0.999964	-0.007953	-0.000469	-0.002926	
44946	    0	3.150353	20.164311	-15.357944	-3.293470	0.004578	-2.601242	0.034097	0.198646	-0.156868	0.999780	-0.016466	0.000023	-0.013005	
44947	    0	21.624106	11.408057	-20.279132	-2.701845	0.240541	-4.148526	0.218262	0.106812	-0.204529	0.999692	-0.013508	0.001203	-0.020741	
44948	    0	18.828180	-4.727428	-10.486145	-1.440145	-0.150118	-3.748383	0.187421	-0.051545	-0.104360	0.999798	-0.007200	-0.000751	-0.018741	
44949	    0	16.021359	-2.994318	-14.546711	-0.931608	-0.827651	-3.683704	0.160217	-0.033569	-0.144653	0.999810	-0.004658	-0.004138	-0.018417	
44950	    0	9.596392	12.277275	-14.837328	-0.861027	-0.960596	-3.499806	0.098798	0.120421	-0.148425	0.999825	-0.004305	-0.004803	-0.017498	
44951	    0	15.715240	12.163553	-14.518096	-0.858168	-0.540194	-3.662330	0.159729	0.118103	-0.145264	0.999819	-0.004291	-0.002701	-0.018311	
44952	    0	25.332201	-3.451198	-10.179792	-0.922070	-0.258843	-3.737109	0.252744	-0.039706	-0.101295	0.999813	-0.004610	-0.001294	-0.018684	
44953	    0	27.095352	-12.492830	-9.883642	-0.348494	-0.302142	-3.776778	0.268677	-0.130188	-0.098206	0.999819	-0.001742	-0.001511	-0.018883	
44954	    0	22.566819	-5.108678	-4.753579	0.701378	-0.349258	-3.886096	0.224704	-0.055293	-0.047332	0.999804	0.003507	-0.001746	-0.019429	
44955	    0	19.815665	2.579223	1.920583	0.547822	-0.386642	-3.673004	0.198547	0.022095	0.019653	0.999825	0.002739	-0.001933	-0.018364	
44956	    0	20.129106	4.275831	5.421627	-0.425550	-0.248349	-3.369685	0.201907	0.039475	0.054380	0.999854	-0.002128	-0.001242	-0.016848	
44957	    0	20.114318	1.218971	8.103182	-1.450231	-0.037386	-3.174752	0.201294	0.009583	0.080994	0.999847	-0.007251	-0.000187	-0.015873	
44958	    0	19.333148	-3.058241	8.206381	-2.076074	0.157937	-3.001952	0.192917	-0.032627	0.082243	0.999833	-0.010380	0.000790	-0.015009	
44959	    0	15.747483	-9.315538	7.397462	-2.586335	0.305195	-2.848230	0.156250	-0.094421	0.074951	0.999813	-0.012931	0.001526	-0.014240	
44960	    0	12.218389	-13.208769	4.623615	-3.200952	0.419265	-2.619169	0.120546	-0.132914	0.048105	0.999784	-0.016004	0.002096	-0.013095	
44961	    0	9.867252	-17.163861	1.642073	-3.840001	0.399050	-2.216522	0.096802	-0.172363	0.019531	0.999752	-0.019198	0.001995	-0.011082	
44962	    0	8.015859	-21.632387	-0.848172	-4.165253	0.358995	-1.911522	0.078075	-0.217193	-0.004106	0.999736	-0.020824	0.001795	-0.009557	
44963	    0	5.048066	-24.572387	-2.237136	-3.650718	0.522648	-1.548870	0.048523	-0.246460	-0.018005	0.999800	-0.018252	0.002613	-0.007744	
44964	    0	3.856257	-24.499288	-0.820141	-2.048924	0.858519	-0.991083	0.037319	-0.245248	-0.005852	0.999926	-0.010244	0.004292	-0.004955	
44965	    0	2.358336	-27.441704	-0.089938	0.029755	0.842479	-0.503542	0.022888	-0.274475	-0.001038	0.999988	0.000149	0.004212	-0.002518	
44966	    0	-0.648279	-29.738280	-2.544812	1.971661	0.580417	-0.207905	-0.006871	-0.297106	-0.028358	0.999947	0.009858	0.002902	-0.001040	
44967	    0	-3.341460	-24.261192	-1.796596	3.066377	0.456447	0.061801	-0.033386	-0.242310	-0.021606	0.999879	0.015331	0.002282	0.000309	
44968	    0	-1.624577	-13.228119	1.726679	3.227191	0.502800	0.568797	-0.015829	-0.132583	0.015169	0.999862	0.016135	0.002514	0.002844	
44969	    0	2.153087	-5.366698	4.502459	2.404288	0.592059	1.149022	0.021973	-0.054077	0.044312	0.999907	0.012021	0.002960	0.005745	
44970	    0	4.699528	-1.191700	6.443151	1.290729	0.741401	1.614794	0.047330	-0.011950	0.064179	0.999939	0.006454	0.003707	0.008074	
44971	    0	6.503615	-0.204882	8.834062	0.274854	0.996417	1.784547	0.065491	-0.001587	0.088013	0.999947	0.001374	0.004982	0.008923	
44972	    0	8.765743	-0.772862	8.742985	-0.457011	1.242664	1.844064	0.088264	-0.006718	0.086899	0.999935	-0.002285	0.006213	0.009220	
44973	    0	10.680233	-1.704693	7.163998	-0.875116	1.468891	1.956995	0.107483	-0.015686	0.070923	0.999915	-0.004375	0.007344	0.009785	
44974	    0	11.664421	-2.136950	2.630138	-1.359990	1.632369	2.092630	0.117068	-0.019971	0.025486	0.999888	-0.006800	0.008162	0.010463	
44975	    0	12.942266	-4.260880	-4.514002	-1.658509	1.424467	2.288914	0.129578	-0.041504	-0.045715	0.999874	-0.008292	0.007122	0.011444	
44976	    0	19.222530	-9.233814	-12.204237	-1.193283	1.055377	2.594857	0.192762	-0.090569	-0.122515	0.999884	-0.005966	0.005277	0.012974	
44977	    0	32.397934	-13.190714	-13.925454	0.055697	0.746375	2.987789	0.325378	-0.127014	-0.140503	0.999881	0.000278	0.003732	0.014938	
44978	    0	39.802552	-11.748618	-9.910962	1.148099	0.969180	3.406149	0.399454	-0.110112	-0.101689	0.999826	0.005740	0.004846	0.017030	
44979	    0	31.924080	-9.270818	-3.901537	1.926567	1.288130	3.563959	0.320557	-0.086609	-0.041931	0.999774	0.009632	0.006440	0.017818	
44980	    0	26.385351	-4.232953	-0.102202	1.986867	1.281659	3.909451	0.264598	-0.037138	-0.003102	0.999739	0.009933	0.006408	0.019546	
44981	    0	24.878693	1.040329	1.925335	1.931944	1.061539	4.195797	0.248596	0.015442	0.018066	0.999719	0.009659	0.005307	0.020977	
44982	    0	27.106767	7.165310	0.197245	1.301483	0.810494	3.989333	0.269573	0.077030	0.001368	0.999771	0.006507	0.004052	0.019945	
44983	    0	29.156456	13.425906	-1.786433	0.274675	0.480873	3.828669	0.288879	0.139832	-0.018372	0.999812	0.001373	0.002404	0.019142	
44984	    0	25.832307	12.475639	-1.996406	-0.871531	0.185408	4.078971	0.255690	0.129900	-0.020761	0.999782	-0.004357	0.000927	0.020393	
44985	    0	23.804975	5.522086	-0.996563	-0.911783	-0.033381	4.220146	0.236816	0.060181	-0.010193	0.999766	-0.004559	-0.000167	0.021099	
44986	    0	20.580964	-0.672228	0.144620	0.275822	-0.031664	4.125508	0.205890	-0.002478	0.001473	0.999785	0.001379	-0.000158	0.020626	
44987	    0	16.040654	0.168837	0.023807	1.620593	0.105483	3.681431	0.160339	0.004639	0.000183	0.999797	0.008102	0.000527	0.018406	
44988	    0	12.637454	4.052339	-1.474623	2.687820	0.233856	2.886388	0.125753	0.042536	-0.014331	0.999804	0.013438	0.001169	0.014431	
44989	    0	10.222141	7.793354	-1.783106	3.381762	0.203718	2.092118	0.101379	0.079285	-0.016602	0.999802	0.016908	0.001019	0.010460	
44990	    0	8.051600	9.758733	-2.789001	3.452124	-0.063328	1.521201	0.079777	0.098658	-0.026168	0.999822	0.017260	-0.000317	0.007606	
44991	    0	6.056016	13.061722	-4.622523	2.716162	-0.436989	1.007116	0.059998	0.131531	-0.044312	0.999892	0.013580	-0.002185	0.005035	
44992	    0	3.859848	16.520046	-5.669127	1.889072	-0.698675	0.558482	0.038330	0.165833	-0.054993	0.999945	0.009445	-0.003493	0.002792	
44993	    0	2.424015	16.169895	-5.436185	1.216327	-0.769050	0.190737	0.024292	0.162048	-0.053284	0.999973	0.006082	-0.003845	0.000954	
44994	    0	-0.106670	14.353072	-5.047943	0.385095	-0.652124	0.080300	-0.000960	0.143627	-0.050206	0.999992	0.001925	-0.003261	0.000401	
44995	    0	-2.668600	14.938693	-4.833700	-0.642969	-0.543214	-0.004578	-0.026550	0.149231	-0.048889	0.999990	-0.003215	-0.002716	-0.000023	
44996	    0	-2.964467	20.696268	-3.719021	-1.479546	-0.526815	-0.375370	-0.029156	0.206735	-0.038797	0.999967	-0.007398	-0.002634	-0.001877	
44997	    0	-4.324582	24.175334	-4.959158	-2.421442	-0.457776	-0.384531	-0.042664	0.241211	-0.052612	0.999922	-0.012107	-0.002289	-0.001923	
44998	    0	-5.180510	22.481958	-5.223791	-2.748961	-0.499360	-0.167661	-0.051481	0.224115	-0.055450	0.999902	-0.013744	-0.002497	-0.000838	
44999	    0	-4.638435	15.889715	-0.697415	-0.788693	-0.914007	-0.030518	-0.046326	0.158875	-0.007812	0.999981	-0.003943	-0.004570	-0.000153	
45000	    0	-4.490835	1.900915	4.124509	1.914262	-1.481855	0.137905	-0.045226	0.018584	0.041090	0.999926	0.009571	-0.007409	0.000690	
45001	    0	-2.712996	-10.535472	9.145041	2.856779	-1.964668	-0.112158	-0.028076	-0.106628	0.089661	0.999849	0.014283	-0.009823	-0.000561	
45002	    0	-0.094621	-17.396810	10.885477	2.165902	-2.567228	-0.771561	-0.003001	-0.175124	0.106933	0.999851	0.010829	-0.012836	-0.003858	
45003	    0	3.392402	-17.057567	3.774721	0.701175	-3.104358	-1.159723	0.032349	-0.170898	0.037659	0.999856	0.003506	-0.015521	-0.005798	
45004	    0	8.343239	-8.934455	-4.613402	0.385296	-2.411152	-1.143872	0.083469	-0.089734	-0.045300	0.999908	0.001926	-0.012055	-0.005719	
45005	    0	17.493761	-6.810778	-9.241507	1.550512	-1.306939	-0.543986	0.175354	-0.067871	-0.091797	0.999945	0.007752	-0.006535	-0.002720	
45006	    0	9.599828	-17.118192	-2.544588	-0.943571	-0.581172	0.347902	0.096368	-0.171131	-0.024359	0.999983	-0.004718	-0.002906	0.001740	
45007	    0	1.190605	-16.437555	2.049655	-5.837918	-0.797389	0.780602	0.012451	-0.163635	0.025330	0.999557	-0.029185	-0.003986	0.003902	
45008	    0	-0.197678	-9.921579	3.563312	-5.682299	-1.822944	1.235390	-0.001710	-0.098162	0.038416	0.999536	-0.028407	-0.009113	0.006176	
45009	    0	-0.663783	-13.059083	-7.500630	-2.842641	-1.342830	0.431079	-0.005859	-0.131653	-0.073181	0.999874	-0.014213	-0.006714	0.002155	
45010	    0	8.404284	11.981591	6.700549	0.825315	0.478938	-0.761800	0.084659	0.119217	0.067296	0.999981	0.004127	0.002395	-0.003809	
45011	    0	67.366664	1.326416	29.062140	9.174048	-0.018317	-1.681365	0.673645	-0.005737	0.290710	0.998913	0.045854	-0.000092	-0.008404	
45012	    0	21.029146	-81.808127	-73.759152	-1.881159	-3.637759	-0.043300	0.223388	-0.824993	-0.725869	0.999790	-0.009405	-0.018188	-0.000216	
45013	    0	29.685994	19.250538	33.791280	0.712606	2.431748	0.677510	0.300293	0.192322	0.334961	0.999913	0.003563	0.012158	0.003387	
45014	    0	5.772198	37.706336	-1.698437	0.993360	-1.443119	0.228503	0.057403	0.377206	-0.014696	0.999961	0.004967	-0.007215	0.001143	
45015	    0	-17.441617	60.597807	-9.208967	-1.083957	-0.945291	-0.569921	-0.172241	0.605957	-0.096191	0.999969	-0.005420	-0.004726	-0.002850	
45016	    0	-5.597058	35.014601	-12.619106	-1.967487	-0.285729	-1.711322	-0.052795	0.349342	-0.129707	0.999913	-0.009837	-0.001429	-0.008556	
45017	    0	18.424672	16.629152	-20.928384	-3.057960	-0.226614	-3.648722	0.187439	0.159668	-0.211548	0.999716	-0.015288	-0.001133	-0.018242	
45018	    0	17.163381	6.163939	-14.835192	-2.180831	0.042918	-3.574251	0.172647	0.056937	-0.149027	0.999781	-0.010903	0.000215	-0.017870	
45019	    0	14.386910	-1.164542	-10.459511	-1.083249	-0.802661	-3.557038	0.144043	-0.014771	-0.103943	0.999819	-0.005416	-0.004013	-0.017784	
45020	    0	15.496619	9.046766	-15.412241	-1.471610	-0.743149	-3.477120	0.157067	0.086615	-0.154188	0.999814	-0.007358	-0.003716	-0.017385	
45021	    0	14.134936	13.512539	-14.660479	-1.707370	-0.386833	-3.354845	0.143860	0.131470	-0.147461	0.999821	-0.008536	-0.001934	-0.016773	
45022	    0	25.088701	0.947599	-9.073676	-1.680865	0.082021	-3.571361	0.250957	0.004231	-0.090890	0.999804	-0.008404	0.000410	-0.017856	
45023	    0	29.441805	-17.589705	-8.265554	-1.385577	-0.076871	-3.415873	0.291382	-0.181458	-0.081299	0.999829	-0.006927	-0.000384	-0.017078	
45024	    0	23.749309	-12.513475	-4.979171	0.016023	-0.138290	-3.485093	0.235299	-0.129244	-0.049639	0.999847	0.000080	-0.000691	-0.017425	
45025	    0	20.723016	-3.425286	1.889902	0.424214	-0.214205	-3.313601	0.206604	-0.037720	0.019043	0.999860	0.002121	-0.001071	-0.016567	
45026	    0	19.211625	-0.344913	5.405023	-0.479907	-0.072482	-2.968900	0.192019	-0.006170	0.054132	0.999887	-0.002399	-0.000362	-0.014844	
45027	    0	17.332974	-1.709462	8.712343	-1.363426	0.174148	-2.723799	0.173157	-0.018860	0.087097	0.999883	-0.006817	0.000871	-0.013618	
45028	    0	16.133421	-4.274894	7.854812	-2.243340	0.419637	-2.508474	0.160954	-0.043887	0.078698	0.999856	-0.011216	0.002098	-0.012542	
45029	    0	13.260369	-7.222111	6.626140	-2.931393	0.652544	-2.377465	0.131958	-0.072815	0.066895	0.999816	-0.014656	0.003263	-0.011887	
45030	    0	10.358874	-11.844049	3.867194	-3.747097	0.663048	-2.195726	0.102418	-0.118821	0.040555	0.999759	-0.018734	0.003315	-0.010978	
45031	    0	7.877778	-16.494990	1.031604	-4.234516	0.528003	-2.011295	0.077148	-0.165466	0.013611	0.999722	-0.021171	0.002640	-0.010056	
45032	    0	5.801187	-21.028120	-2.391939	-4.154371	0.516554	-1.756819	0.056105	-0.211218	-0.019685	0.999742	-0.020770	0.002583	-0.008783	
45033	    0	4.411260	-20.633599	-2.911909	-3.066976	0.812570	-1.294772	0.042664	-0.207031	-0.026123	0.999853	-0.015334	0.004063	-0.006474	
45034	    0	3.355559	-22.837874	-1.798961	-1.300448	0.961317	-0.805675	0.032553	-0.228622	-0.016662	0.999959	-0.006502	0.004807	-0.004028	
45035	    0	1.622741	-27.594431	-2.960510	0.656322	0.865178	-0.430300	0.015503	-0.275879	-0.030579	0.999983	0.003282	0.004326	-0.002151	
45036	    0	-1.075325	-27.560622	-3.782573	2.439374	0.671405	-0.190168	-0.011149	-0.275107	-0.041146	0.999919	0.012197	0.003357	-0.000951	
45037	    0	-2.696555	-19.933552	-0.969763	3.206013	0.548005	0.081638	-0.026917	-0.199158	-0.012817	0.999867	0.016029	0.002740	0.000408	
45038	    0	-0.324200	-9.770952	3.260740	2.839191	0.491541	0.604842	-0.002868	-0.098168	0.031223	0.999891	0.014195	0.002458	0.003024	
45039	    0	2.824722	-2.980394	5.143053	1.785315	0.536548	1.199365	0.028564	-0.030090	0.051086	0.999938	0.008926	0.002683	0.005997	
45040	    0	4.730736	-0.169841	7.773480	0.624093	0.708971	1.549551	0.047595	-0.001573	0.077561	0.999958	0.003120	0.003545	0.007748	
45041	    0	6.970388	-1.531235	8.680576	-0.317388	0.977532	1.676968	0.070251	-0.014587	0.086487	0.999951	-0.001587	0.004888	0.008385	
45042	    0	9.799514	-3.443062	7.745563	-0.674645	1.320487	1.800959	0.098807	-0.033283	0.076919	0.999931	-0.003373	0.006602	0.009005	
45043	    0	11.583418	-4.272896	7.246185	-0.907735	1.605273	1.961577	0.116821	-0.041260	0.071716	0.999908	-0.004539	0.008026	0.009808	
45044	    0	11.816525	-4.551760	4.182193	-1.315168	1.733847	2.139365	0.118999	-0.043976	0.041085	0.999883	-0.006576	0.008669	0.010696	
45045	    0	11.694052	-5.485975	-2.660254	-1.696853	1.526901	2.349196	0.117371	-0.053711	-0.027039	0.999866	-0.008484	0.007634	0.011745	
45046	    0	16.774508	-9.502136	-11.447660	-1.086275	1.041260	2.556132	0.168349	-0.093495	-0.114841	0.999889	-0.005431	0.005206	0.012780	
45047	    0	29.974663	-14.718105	-15.645127	0.238045	0.644897	2.814582	0.301270	-0.142761	-0.157593	0.999894	0.001190	0.003224	0.014072	
45048	    0	42.579004	-13.131129	-13.314366	1.360778	0.792166	3.299515	0.427335	-0.123352	-0.135692	0.999832	0.006804	0.003961	0.016497	
45049	    0	35.580502	-9.517560	-5.711620	1.992957	1.349938	3.650956	0.357056	-0.088074	-0.060425	0.999761	0.009964	0.006749	0.018253	
45050	    0	27.409035	-4.464525	-0.260796	2.084733	1.608996	3.889632	0.274854	-0.039259	-0.005245	0.999723	0.010423	0.008044	0.019446	
45051	    0	23.297074	0.354455	2.973017	2.162588	1.429135	4.295800	0.233032	0.008240	0.028137	0.999685	0.010812	0.007145	0.021477	
45052	    0	25.307446	4.823275	1.707473	1.504077	0.974741	4.231253	0.252061	0.053449	0.016233	0.999736	0.007520	0.004873	0.021154	
45053	    0	27.836334	10.894245	-0.868117	0.560228	0.526465	4.042338	0.276062	0.114563	-0.009094	0.999788	0.002801	0.002632	0.020210	
45054	    0	24.823826	10.546145	-0.866540	-0.249118	0.267812	4.209832	0.245934	0.110643	-0.009131	0.999776	-0.001245	0.001339	0.021048	
45055	    0	23.305547	4.309440	-0.103497	-0.009156	0.105485	4.304074	0.232056	0.048096	-0.001160	0.999768	-0.000046	0.000527	0.021519	
45056	    0	20.471995	0.224016	1.044250	1.080408	0.179496	4.237132	0.204621	0.006520	0.010286	0.999760	0.005402	0.000897	0.021184	
45057	    0	14.917505	2.216123	1.249685	1.950983	0.293182	3.763864	0.148743	0.024841	0.012512	0.999774	0.009754	0.001466	0.018818	
45058	    0	10.150926	6.825747	-0.308590	2.431447	0.411059	2.952758	0.100481	0.069778	-0.002451	0.999815	0.012156	0.002055	0.014763	
45059	    0	8.254662	9.473676	-0.934550	2.827028	0.443291	2.064621	0.081543	0.095703	-0.008179	0.999844	0.014134	0.002216	0.010323	
45060	    0	7.747911	9.814469	-1.208188	2.691752	0.236711	1.334432	0.076808	0.098810	-0.010846	0.999886	0.013458	0.001184	0.006672	
45061	    0	6.967799	11.374428	-1.798628	2.315006	-0.186162	0.734729	0.069275	0.114197	-0.016602	0.999926	0.011575	-0.000931	0.003674	
45062	    0	5.132467	13.831020	-3.854164	1.749829	-0.764096	0.227741	0.051311	0.138698	-0.037133	0.999953	0.008749	-0.003820	0.001139	
45063	    0	3.305627	15.672574	-5.708381	0.788314	-1.145944	-0.163270	0.033508	0.156921	-0.056274	0.999975	0.003942	-0.005730	-0.000816	
45064	    0	1.681672	15.437828	-6.619635	-0.179864	-1.070410	-0.254251	0.017367	0.154297	-0.066243	0.999984	-0.000899	-0.005352	-0.001271	
45065	    0	0.493103	13.791479	-7.122598	-1.279463	-0.910005	-0.164797	0.005371	0.137451	-0.072083	0.999969	-0.006397	-0.004550	-0.000824	
45066	    0	-0.884287	16.524495	-7.434830	-2.652637	-0.903922	-0.241097	-0.008302	0.164249	-0.076570	0.999901	-0.013263	-0.004519	-0.001205	
45067	    0	-1.579887	21.851759	-7.579705	-3.409572	-1.086485	-0.553924	-0.014771	0.217224	-0.079590	0.999836	-0.017047	-0.005432	-0.002769	
45068	    0	-5.023470	21.795398	-9.573170	-4.408845	-1.255147	-0.493666	-0.049078	0.215891	-0.100817	0.999734	-0.022042	-0.006275	-0.002468	
45069	    0	-7.558100	17.973366	-8.435874	-4.031690	-1.606687	-0.331142	-0.074585	0.178101	-0.088562	0.999763	-0.020157	-0.008033	-0.001656	
45070	    0	-7.842571	10.332518	-1.500774	-0.131419	-2.084198	-0.208286	-0.078156	0.103396	-0.015891	0.999945	-0.000657	-0.010421	-0.001041	
45071	    0	-4.778888	-3.425095	7.078327	4.194479	-2.425622	-0.047307	-0.048645	-0.035706	0.069458	0.999706	0.020970	-0.012127	-0.000237	
45072	    0	1.681454	-15.107584	8.648012	4.171435	-2.837865	-0.374262	0.015330	-0.152868	0.083529	0.999680	0.020855	-0.014188	-0.001871	
45073	    0	5.869528	-20.897402	8.014252	3.088040	-2.781124	-0.917122	0.056641	-0.210449	0.077698	0.999773	0.015439	-0.013905	-0.004585	
45074	    0	4.697553	-21.970081	-4.043187	2.419231	-2.404735	-1.534551	0.045794	-0.219549	-0.042533	0.999825	0.012095	-0.012023	-0.007672	
45075	    0	11.696848	-16.891873	-11.610948	2.886329	-0.435467	-1.493902	0.115967	-0.168091	-0.118286	0.999866	0.014431	-0.002177	-0.007469	
45076	    0	20.423023	-15.679022	-3.303511	3.089494	1.608742	-0.664364	0.203422	-0.156915	-0.037097	0.999843	0.015447	0.008043	-0.003322	
45077	    0	6.606947	-16.212938	5.990770	-1.499011	1.361870	-0.016785	0.066467	-0.161682	0.060669	0.999949	-0.007495	0.006809	-0.000084	
45078	    0	-0.127353	-6.983382	11.122608	-4.713323	-0.903980	0.371587	-0.001655	-0.067190	0.112823	0.999710	-0.023564	-0.004519	0.001858	
45079	    0	3.055797	0.224420	16.071652	-5.761639	-1.791654	0.136587	0.029114	0.006897	0.160828	0.999544	-0.028804	-0.008957	0.000683	
45080	    0	52.838456	3.893316	3.788162	1.011281	-0.251199	0.289728	0.528279	0.039504	0.038744	0.999985	0.005056	-0.001256	0.001449	
45081	    0	31.246713	-55.726732	-28.368031	2.606374	-2.933506	-0.726367	0.314636	-0.554688	-0.286316	0.999801	0.013031	-0.014667	-0.003632	
45082	    0	21.683801	-24.111628	-18.789265	-0.058747	1.214237	1.501870	0.217495	-0.239540	-0.189141	0.999953	-0.000294	0.006071	0.007509	
45083	    0	13.018552	42.723916	15.863700	0.692182	-0.822455	0.776678	0.127869	0.427185	0.160645	0.999977	0.003461	-0.004112	0.003883	
45084	    0	-12.934790	63.485622	-8.628781	-1.139651	-0.718695	-0.591856	-0.127150	0.634727	-0.090364	0.999972	-0.005698	-0.003593	-0.002959	
45085	    0	-13.905857	48.598092	-10.663510	-1.424432	-0.282865	-1.376366	-0.135559	0.486145	-0.110291	0.999949	-0.007122	-0.001414	-0.006882	
45086	    0	10.453471	19.731488	-18.253226	-2.800991	-0.185029	-3.570291	0.108174	0.192824	-0.185155	0.999742	-0.014004	-0.000925	-0.017850	
45087	    0	26.724426	6.484526	-16.842550	-2.209668	0.029948	-4.046226	0.268433	0.057556	-0.169128	0.999734	-0.011047	0.000150	-0.020229	
45088	    0	18.444614	-7.531422	-9.914826	-1.283153	-0.513108	-3.594430	0.183298	-0.079247	-0.098177	0.999814	-0.006415	-0.002565	-0.017971	
45089	    0	10.755185	4.180510	-12.753809	-0.875908	-1.064938	-3.578405	0.108948	0.039307	-0.127136	0.999816	-0.004379	-0.005324	-0.017891	
45090	    0	11.830227	14.656867	-15.740026	-0.789115	-0.874187	-3.487021	0.121514	0.143847	-0.157445	0.999830	-0.003945	-0.004371	-0.017434	
45091	    0	20.928247	6.238151	-10.766551	-1.033081	-0.292032	-3.598997	0.210510	0.058044	-0.107666	0.999824	-0.005165	-0.001460	-0.017994	
45092	    0	26.394021	-10.526868	-9.119979	-1.139897	-0.140961	-3.544440	0.262077	-0.110441	-0.090395	0.999826	-0.005699	-0.000705	-0.017721	
45093	    0	26.020865	-14.844000	-6.754959	-0.297371	-0.238049	-3.509704	0.257629	-0.153076	-0.067017	0.999844	-0.001487	-0.001190	-0.017548	
45094	    0	20.590537	-6.021540	-0.915797	0.481820	-0.313965	-3.404977	0.204855	-0.063687	-0.008986	0.999850	0.002409	-0.001570	-0.017024	
45095	    0	19.585602	-0.918706	3.975944	-0.017358	-0.347151	-3.027461	0.195618	-0.012146	0.040100	0.999884	-0.000087	-0.001736	-0.015137	
45096	    0	19.245917	-1.353855	7.205537	-0.957522	-0.082210	-2.723598	0.192225	-0.015812	0.072206	0.999895	-0.004787	-0.000411	-0.013618	
45097	    0	17.755086	-4.238032	8.783275	-1.846197	0.247965	-2.475075	0.177124	-0.043762	0.088013	0.999880	-0.009231	0.001240	-0.012375	
45098	    0	15.360664	-7.760437	8.808214	-2.395169	0.580052	-2.243718	0.152987	-0.078264	0.088573	0.999861	-0.011975	0.002900	-0.011218	
45099	    0	11.626982	-10.917696	7.054356	-2.948927	0.757832	-2.054711	0.115417	-0.109314	0.071716	0.999831	-0.014744	0.003789	-0.010273	
45100	    0	8.856188	-12.727463	3.714604	-3.212738	0.715298	-1.845088	0.087523	-0.127470	0.038878	0.999822	-0.016063	0.003576	-0.009225	
45101	    0	6.463225	-14.959895	0.480915	-3.182395	0.548774	-1.646513	0.063416	-0.150024	0.007019	0.999835	-0.015911	0.002744	-0.008232	
45102	    0	4.479976	-15.568122	-2.701227	-2.796291	0.362793	-1.473489	0.043603	-0.156363	-0.024909	0.999873	-0.013981	0.001814	-0.007367	
45103	    0	4.141958	-15.108524	-4.173849	-2.019547	0.366410	-1.159695	0.040466	-0.151733	-0.040283	0.999930	-0.010098	0.001832	-0.005798	
45104	    0	4.824032	-17.347612	-3.713608	-0.751119	0.559810	-0.804525	0.047439	-0.173806	-0.036617	0.999981	-0.003756	0.002799	-0.004023	
45105	    0	4.612766	-20.571304	-2.387422	0.854498	0.653271	-0.619511	0.045410	-0.205750	-0.024902	0.999980	0.004272	0.003266	-0.003098	
45106	    0	2.295019	-21.077174	-1.208493	2.092214	0.588811	-0.541317	0.022340	-0.210690	-0.014356	0.999937	0.010461	0.002944	-0.002707	
45107	    0	-0.832442	-16.421060	0.994468	2.620776	0.481620	-0.367748	-0.008606	-0.164307	0.007812	0.999909	0.013103	0.002408	-0.001839	
45108	    0	-1.664365	-9.752194	3.588449	2.317291	0.398264	0.100901	-0.016524	-0.097938	0.034784	0.999930	0.011586	0.001991	0.000504	
45109	    0	0.118547	-3.884485	6.123709	1.328291	0.467877	0.698097	0.001465	-0.039246	0.060974	0.999969	0.006641	0.002339	0.003490	
45110	    0	3.460826	-0.014191	8.922111	0.356868	0.695234	1.148233	0.034919	-0.000101	0.089100	0.999975	0.001784	0.003476	0.005741	
45111	    0	6.120612	-1.412368	9.432145	-0.607117	0.999464	1.332110	0.061768	-0.013428	0.094055	0.999960	-0.003036	0.004997	0.006660	
45112	    0	7.761096	-4.151955	8.105815	-1.323731	1.324303	1.437221	0.078440	-0.040422	0.080811	0.999929	-0.006618	0.006621	0.007186	
45113	    0	8.935793	-5.890054	5.580524	-1.551677	1.587727	1.622060	0.090271	-0.057739	0.055542	0.999905	-0.007758	0.007938	0.008110	
45114	    0	9.659053	-7.503252	-0.291264	-1.652586	1.582393	1.832837	0.097249	-0.074168	-0.003065	0.999892	-0.008263	0.007912	0.009164	
45115	    0	11.975331	-10.319872	-8.209552	-1.441239	1.125562	2.082128	0.120361	-0.102539	-0.082031	0.999904	-0.007206	0.005628	0.010410	
45116	    0	20.646510	-14.867672	-15.211280	-0.306137	0.672167	2.339613	0.207675	-0.146485	-0.152584	0.999925	-0.001531	0.003361	0.011698	
45117	    0	34.665182	-16.594800	-16.173058	1.082845	0.485249	2.857322	0.348572	-0.160095	-0.163452	0.999880	0.005414	0.002426	0.014286	
45118	    0	37.591046	-12.297565	-10.370987	1.909010	0.903003	3.554788	0.377528	-0.115267	-0.106537	0.999785	0.009544	0.004515	0.017773	
45119	    0	28.649040	-8.106696	-2.588483	2.457655	1.289678	3.806657	0.287781	-0.075256	-0.028687	0.999722	0.012287	0.006448	0.019032	
45120	    0	24.494735	-1.888277	2.615137	2.461116	1.267564	4.142618	0.245431	-0.014110	0.024404	0.999689	0.012304	0.006337	0.020711	
45121	    0	23.333367	4.224928	4.574214	1.984601	1.090539	4.305692	0.232605	0.046814	0.044922	0.999703	0.009922	0.005452	0.021526	
45122	    0	24.183295	10.326038	3.110320	1.002198	0.742016	4.115803	0.239757	0.108054	0.030745	0.999768	0.005011	0.003710	0.020577	
45123	    0	24.944270	12.802546	0.463629	-0.479157	0.384737	3.905741	0.246887	0.132874	0.003845	0.999804	-0.002396	0.001924	0.019527	
45124	    0	24.013566	8.705548	1.040914	-1.398189	0.088698	3.958230	0.238354	0.091854	0.009672	0.999779	-0.006990	0.000443	0.019790	
45125	    0	23.485992	1.785340	2.246214	-1.101572	-0.045780	3.979012	0.234436	0.022644	0.022400	0.999786	-0.005507	-0.000229	0.019894	
45126	    0	20.014179	-1.854391	2.862902	-0.031855	0.093656	3.761132	0.200457	-0.014771	0.028538	0.999823	-0.000159	0.000468	0.018805	
45127	    0	15.551162	-1.092803	2.430413	1.233161	0.333421	3.174746	0.155701	-0.008606	0.023987	0.999853	0.006166	0.001667	0.015873	
45128	    0	12.596561	1.774263	0.885315	2.262409	0.379961	2.371133	0.125761	0.019135	0.008825	0.999864	0.011312	0.001900	0.011855	
45129	    0	11.140672	4.565984	-1.098373	2.672113	0.240336	1.600712	0.111023	0.046692	-0.010498	0.999878	0.013360	0.001202	0.008003	
45130	    0	9.700485	8.020995	-1.832388	2.818214	0.066569	1.074641	0.096565	0.080977	-0.017219	0.999886	0.014091	0.000333	0.005373	
45131	    0	8.288926	9.839524	-2.826723	2.764415	-0.257882	0.695825	0.082581	0.099060	-0.026794	0.999897	0.013822	-0.001289	0.003479	
45132	    0	6.104016	12.098565	-4.394256	2.107282	-0.607503	0.402459	0.060926	0.121561	-0.042479	0.999937	0.010536	-0.003037	0.002012	
45133	    0	3.695140	15.211315	-6.172385	1.182567	-0.832184	0.286105	0.036987	0.152527	-0.060669	0.999972	0.005913	-0.004161	0.001431	
45134	    0	2.045930	17.233347	-7.273303	0.202752	-0.882152	0.289537	0.020530	0.172437	-0.072468	0.999989	0.001014	-0.004411	0.001448	
45135	    0	0.628616	16.461254	-6.127678	-0.629428	-0.855069	0.319673	0.006287	0.164429	-0.061768	0.999984	-0.003147	-0.004275	0.001598	
45136	    0	-0.736348	13.768112	-5.128891	-1.147663	-1.009760	0.162698	-0.007214	0.137378	-0.052114	0.999970	-0.005738	-0.005049	0.000813	
45137	    0	-2.920655	12.006259	-7.582998	-2.113395	-1.229698	-0.080111	-0.028687	0.119263	-0.077271	0.999925	-0.010567	-0.006148	-0.000401	
45138	    0	-4.881646	16.353803	-10.977910	-3.227972	-1.354859	-0.313584	-0.047805	0.161810	-0.112726	0.999846	-0.016139	-0.006774	-0.001568	
45139	    0	-7.199162	19.937207	-10.455452	-3.140986	-1.360388	-0.344103	-0.070923	0.197815	-0.108154	0.999851	-0.015704	-0.006802	-0.001720	
45140	    0	-8.689863	19.781730	-2.231513	-0.594911	-1.820402	-0.187114	-0.086502	0.197829	-0.023692	0.999953	-0.002975	-0.009102	-0.000936	
45141	    0	-5.785486	9.318180	9.031134	3.882354	-2.273752	0.151838	-0.058960	0.091370	0.091431	0.999746	0.019410	-0.011368	0.000759	
45142	    0	0.995290	-10.320554	7.328454	4.486211	-2.662579	0.080690	0.009039	-0.104813	0.071070	0.999660	0.022429	-0.013311	0.000403	
45143	    0	4.892234	-23.738057	8.703305	3.288472	-1.859971	-0.749253	0.047241	-0.238953	0.083557	0.999814	0.016441	-0.009299	-0.003746	
45144	    0	5.667989	-28.032046	2.906225	1.600502	-1.173434	-1.712657	0.054112	-0.281013	0.027138	0.999913	0.008002	-0.005867	-0.008563	
45145	    0	12.042894	-19.737251	-6.958912	1.910448	0.403033	-1.468695	0.118835	-0.197571	-0.071716	0.999925	0.009552	0.002015	-0.007343	
45146	    0	21.198671	-14.608004	1.172751	3.133174	1.567922	-0.504902	0.211688	-0.146757	0.007771	0.999843	0.015665	0.007839	-0.002524	
45147	    0	6.359479	-16.989760	8.555719	-1.560991	0.273326	0.297550	0.063965	-0.169128	0.086792	0.999967	-0.007805	0.001367	0.001488	
45148	    0	-1.409191	-0.888475	13.147794	-7.343455	-2.479043	1.159011	-0.015689	-0.004144	0.131500	0.999232	-0.036708	-0.012392	0.005794	
45149	    0	2.640256	12.144799	5.687360	-7.523603	-2.350470	0.911952	0.025208	0.123596	0.052551	0.999212	-0.037608	-0.011749	0.004559	
45150	    0	57.029242	-0.155676	4.342256	2.541819	0.943407	0.870734	0.570490	0.000398	0.040729	0.999898	0.012709	0.004717	0.004354	
45151	    0	27.881398	-72.383897	-38.355850	1.606269	-3.295321	-0.267807	0.284180	-0.721130	-0.384705	0.999830	0.008031	-0.016476	-0.001339	
45152	    0	31.168444	-36.747039	-9.580315	-0.209628	3.205272	1.377939	0.312622	-0.365422	-0.100425	0.999846	-0.001048	0.016026	0.006889	
45153	    0	9.818403	52.942725	13.788166	1.428443	-1.530489	0.807207	0.094971	0.528809	0.142395	0.999937	0.007142	-0.007652	0.004036	
45154	    0	-16.651065	71.231743	-11.713180	0.035095	-0.744631	-0.474168	-0.164384	0.712729	-0.117621	0.999990	0.000175	-0.003723	-0.002371	
45155	    0	-13.955390	47.882698	-7.129505	-1.593807	-0.209621	-1.202413	-0.136597	0.479065	-0.075256	0.999949	-0.007969	-0.001048	-0.006012	
45156	    0	11.981123	23.480946	-18.352853	-3.402416	-0.062948	-2.830546	0.123147	0.229916	-0.187429	0.999755	-0.017011	-0.000315	-0.014152	
45157	    0	23.071648	6.697746	-17.529875	-2.679476	0.166335	-3.573143	0.231689	0.060486	-0.176331	0.999750	-0.013396	0.000832	-0.017864	
45158	    0	18.713444	-9.050136	-9.325207	-1.508420	-0.322361	-3.419886	0.185692	-0.094383	-0.092250	0.999824	-0.007542	-0.001612	-0.017098	
45159	    0	15.214742	-0.965912	-13.426524	-0.980244	-0.788925	-3.524986	0.152466	-0.013000	-0.133606	0.999825	-0.004901	-0.003944	-0.017624	
45160	    0	10.136714	12.286287	-13.371122	-0.931406	-0.730933	-3.288818	0.103851	0.120545	-0.133900	0.999846	-0.004657	-0.003654	-0.016443	
45161	    0	18.297448	8.366220	-11.555289	-1.000270	-0.388930	-3.531084	0.184631	0.079834	-0.115601	0.999829	-0.005001	-0.001945	-0.017654	
45162	    0	27.116276	-8.034302	-8.714671	-1.114147	-0.097471	-3.545965	0.269718	-0.085617	-0.086548	0.999826	-0.005570	-0.000487	-0.017729	
45163	    0	27.065593	-15.625185	-6.871912	-0.769083	-0.083737	-3.435694	0.267944	-0.161133	-0.067993	0.999845	-0.003845	-0.000419	-0.017178	
45164	    0	21.006078	-8.276145	-2.279402	-0.097279	-0.034525	-3.354421	0.208637	-0.086280	-0.022717	0.999859	-0.000486	-0.000173	-0.016771	
45165	    0	18.356122	-2.379741	3.437192	-0.346388	-0.008202	-3.068664	0.183167	-0.026550	0.034424	0.999881	-0.001732	-0.000041	-0.015343	
45166	    0	17.444246	-1.819395	6.396147	-1.167913	0.165373	-2.748592	0.174227	-0.020216	0.063931	0.999887	-0.005839	0.000827	-0.013742	
45167	    0	16.601177	-4.294185	7.832763	-1.936422	0.314535	-2.495680	0.165588	-0.044250	0.078491	0.999873	-0.009682	0.001573	-0.012478	
45168	    0	14.894370	-5.493190	6.871932	-2.387731	0.511384	-2.299989	0.148481	-0.055819	0.069002	0.999859	-0.011938	0.002557	-0.011499	
45169	    0	12.010751	-7.715651	5.486900	-2.730703	0.644145	-2.166862	0.119446	-0.077698	0.055542	0.999843	-0.013653	0.003221	-0.010834	
45170	    0	9.755375	-9.337624	2.294740	-2.932517	0.602373	-2.017703	0.096679	-0.094007	0.024031	0.999837	-0.014662	0.003012	-0.010088	
45171	    0	8.276182	-11.844841	-0.727108	-2.789252	0.457023	-1.921175	0.081604	-0.119324	-0.005798	0.999853	-0.013946	0.002285	-0.009605	
45172	    0	6.977520	-14.196433	-2.150994	-2.468400	0.374619	-1.881676	0.068396	-0.142864	-0.019879	0.999877	-0.012341	0.001873	-0.009408	
45173	    0	6.095380	-15.170893	-2.137005	-1.864674	0.430500	-1.680038	0.059631	-0.152405	-0.020081	0.999919	-0.009323	0.002152	-0.008400	
45174	    0	4.868875	-17.692569	-1.057998	-0.855456	0.548751	-1.360337	0.047456	-0.177295	-0.009953	0.999964	-0.004277	0.002744	-0.006802	
45175	    0	2.790500	-20.470568	-0.446876	0.680738	0.612645	-1.069650	0.026794	-0.204834	-0.005249	0.999975	0.003404	0.003063	-0.005348	
45176	    0	0.068510	-21.249994	0.426521	1.913489	0.579655	-0.819604	-0.000177	-0.212528	0.002232	0.999941	0.009567	0.002898	-0.004098	
45177	    0	-2.295173	-17.303846	1.222927	2.133223	0.463305	-0.520336	-0.023376	-0.173096	0.010437	0.999936	0.010666	0.002316	-0.002602	
45178	    0	-2.425489	-11.187510	3.367099	1.529710	0.401310	-0.057221	-0.024220	-0.112122	0.032863	0.999969	0.007648	0.002007	-0.000286	
45179	    0	0.149417	-6.908997	5.444569	0.699619	0.506785	0.576022	0.001831	-0.069275	0.054199	0.999986	0.003498	0.002534	0.002880	
45180	    0	3.158750	-3.727196	8.032047	0.001717	0.769430	1.064690	0.032094	-0.037103	0.080197	0.999978	0.000009	0.003847	0.005323	
45181	    0	5.229529	-3.016764	8.995648	-0.774204	1.094834	1.288623	0.052979	-0.029480	0.089783	0.999956	-0.003871	0.005474	0.006443	
45182	    0	7.268426	-4.385587	7.275294	-1.221875	1.393159	1.407083	0.073494	-0.042897	0.072507	0.999932	-0.006109	0.006966	0.007035	
45183	    0	9.079816	-6.180849	5.771817	-1.299894	1.623581	1.541944	0.091736	-0.060730	0.057373	0.999916	-0.006499	0.008118	0.007710	
45184	    0	9.505937	-6.792449	3.853107	-1.278727	1.739366	1.705605	0.095965	-0.066864	0.038129	0.999905	-0.006393	0.008697	0.008528	
45185	    0	9.151202	-7.112530	-1.713522	-1.429036	1.664220	1.905890	0.092041	-0.070374	-0.017395	0.999894	-0.007145	0.008321	0.009529	
45186	    0	10.971117	-8.970545	-9.500302	-1.242295	1.144254	2.143545	0.110125	-0.089117	-0.095078	0.999907	-0.006211	0.005721	0.010717	
45187	    0	20.398607	-12.774950	-15.704026	-0.084688	0.592245	2.275138	0.204956	-0.125488	-0.157593	0.999930	-0.000423	0.002961	0.011375	
45188	    0	35.813238	-15.730199	-17.397345	1.123088	0.391975	2.717690	0.359874	-0.151437	-0.175539	0.999889	0.005615	0.001960	0.013588	
45189	    0	38.278456	-10.942496	-10.863191	1.880004	0.893650	3.335023	0.384033	-0.101990	-0.111328	0.999806	0.009399	0.004468	0.016674	
45190	    0	30.266405	-7.830110	-3.659258	2.257530	1.306449	3.560928	0.303738	-0.072465	-0.039414	0.999756	0.011287	0.006532	0.017803	
45191	    0	24.216324	-2.314515	0.935747	2.453855	1.223303	4.020325	0.242615	-0.018372	0.007629	0.999703	0.012268	0.006116	0.020100	
45192	    0	22.333212	2.525603	2.272330	2.212738	0.902454	4.173872	0.222844	0.029664	0.022029	0.999710	0.011063	0.004512	0.020867	
45193	    0	25.476180	9.050900	0.330883	1.428519	0.490606	3.923324	0.252930	0.095459	0.003357	0.999779	0.007142	0.002453	0.019615	
45194	    0	26.234473	11.863415	-0.797091	0.138100	0.196850	3.782499	0.260031	0.123572	-0.008143	0.999820	0.000690	0.000984	0.018911	
45195	    0	24.468592	7.476971	0.067367	-0.783400	-0.098426	3.904219	0.243164	0.079529	0.000488	0.999802	-0.003917	-0.000492	0.019520	
45196	    0	22.808470	1.866914	0.841134	-0.393702	-0.201620	3.935499	0.227650	0.023169	0.008598	0.999804	-0.001968	-0.001008	0.019676	
45197	    0	18.613831	0.007740	1.695951	0.670662	-0.000572	3.650875	0.186096	0.003418	0.016968	0.999827	0.003353	-0.000003	0.018253	
45198	    0	14.582461	1.462189	1.126147	1.756374	0.247205	2.965884	0.145601	0.016684	0.011222	0.999850	0.008781	0.001236	0.014829	
45199	    0	11.789660	4.727676	-0.308026	2.485198	0.346390	2.164558	0.117371	0.048584	-0.002686	0.999863	0.012425	0.001732	0.010822	
45200	    0	10.222784	6.659875	-1.083908	2.713119	0.189026	1.429423	0.101738	0.067467	-0.010024	0.999882	0.013565	0.000945	0.007147	
45201	    0	8.972708	8.189611	-1.191145	2.750493	-0.084499	0.914796	0.089355	0.082458	-0.010742	0.999894	0.013752	-0.000422	0.004574	
45202	    0	7.421047	9.797634	-2.600977	2.416866	-0.490392	0.539031	0.074007	0.098479	-0.024640	0.999920	0.012084	-0.002452	0.002695	
45203	    0	4.478729	12.503533	-4.517800	1.756506	-0.861373	0.284581	0.044800	0.125488	-0.043884	0.999950	0.008782	-0.004307	0.001423	
45204	    0	1.492507	16.065664	-6.537932	0.697141	-1.104744	0.137902	0.015173	0.160893	-0.064735	0.999978	0.003486	-0.005524	0.000690	
45205	    0	-0.149717	17.099340	-6.319602	-0.106049	-1.032834	0.058747	-0.001221	0.170959	-0.063293	0.999986	-0.000530	-0.005164	0.000294	
45206	    0	-1.188596	14.717885	-4.002842	-0.479510	-0.930027	-0.017929	-0.011685	0.147083	-0.040436	0.999986	-0.002398	-0.004650	-0.000090	
45207	    0	-2.075490	12.201204	-4.401615	-1.207746	-1.061833	-0.217440	-0.020386	0.121765	-0.044861	0.999967	-0.006039	-0.005309	-0.001087	
45208	    0	-2.554347	14.490773	-6.796359	-2.318832	-1.168476	-0.543420	-0.024747	0.144174	-0.069784	0.999911	-0.011594	-0.005842	-0.002717	
45209	    0	-4.764805	17.888337	-9.765572	-3.322016	-1.197688	-0.608858	-0.046509	0.177368	-0.100891	0.999839	-0.016609	-0.005988	-0.003044	
45210	    0	-6.780876	17.025889	-5.068851	-2.498137	-1.222460	-0.415243	-0.067136	0.169744	-0.053223	0.999901	-0.012490	-0.006112	-0.002076	
45211	    0	-5.907868	11.693849	6.649728	1.754238	-1.898246	-0.139622	-0.059631	0.116394	0.066956	0.999916	0.008771	-0.009491	-0.000698	
45212	    0	-1.035556	-4.123389	7.692575	4.985163	-2.883547	0.010683	-0.011451	-0.043132	0.075706	0.999585	0.024922	-0.014416	0.000053	
45213	    0	3.637026	-17.005407	11.700749	4.676054	-2.706477	-0.317422	0.034546	-0.172791	0.113464	0.999634	0.023377	-0.013531	-0.001587	
45214	    0	7.109701	-24.087485	6.586969	3.070839	-2.290302	-0.928557	0.069242	-0.242181	0.062958	0.999805	0.015353	-0.011451	-0.004642	
45215	    0	8.590568	-23.893603	-3.102726	1.976081	-1.588304	-1.361131	0.084534	-0.239197	-0.032715	0.999896	0.009880	-0.007941	-0.006805	
45216	    0	20.962025	-14.224826	-12.697124	2.839199	0.716428	-0.863109	0.208548	-0.141321	-0.129730	0.999883	0.014195	0.003582	-0.004315	
45217	    0	12.536263	-14.172597	5.225863	1.379609	1.473261	0.077821	0.125793	-0.142029	0.050354	0.999949	0.006898	0.007366	0.000389	
45218	    0	-0.804961	-7.667691	9.520714	-4.638145	-0.330192	0.688425	-0.007950	-0.074470	0.096938	0.999723	-0.023189	-0.001651	0.003442	
45219	    0	-4.868506	3.467464	7.665748	-7.483272	-2.879370	1.541566	-0.050049	0.037109	0.074585	0.999166	-0.037406	-0.014393	0.007706	
45220	    0	-0.236190	12.361716	-3.396924	-6.216377	-1.792650	0.510305	-0.002348	0.122476	-0.037809	0.999474	-0.031076	-0.008962	0.002551	
45221	    0	56.594214	2.459389	15.994098	5.723835	1.495580	-0.173976	0.567139	0.019592	0.156311	0.999561	0.028615	0.007477	-0.000870	
45222	    0	29.334137	-91.565305	-59.946644	2.667532	-4.390821	-0.437022	0.304594	-0.908265	-0.605009	0.999667	0.013336	-0.021952	-0.002185	
45223	    0	34.957492	-12.718173	16.360425	-0.297561	3.246657	1.070457	0.352844	-0.125061	0.158081	0.999852	-0.001488	0.016232	0.005352	
45224	    0	4.496062	55.410606	5.280734	1.932970	-1.962534	0.413145	0.043261	0.553649	0.058590	0.999903	0.009665	-0.009812	0.002066	
45225	    0	-16.477621	73.085740	-10.370874	0.051308	-0.970466	-0.841528	-0.161194	0.731567	-0.104309	0.999979	0.000257	-0.004852	-0.004208	
45226	    0	-10.087387	42.493909	-8.975946	-1.681561	-0.538649	-1.695675	-0.097022	0.424996	-0.093597	0.999925	-0.008408	-0.002693	-0.008478	
45227	    0	19.119447	22.416230	-20.074346	-3.321376	-0.427857	-3.240497	0.195190	0.217651	-0.203979	0.999728	-0.016605	-0.002139	-0.016201	
45228	    0	22.137270	4.803213	-16.007737	-2.665537	0.045208	-3.408889	0.222088	0.042111	-0.160715	0.999765	-0.013327	0.000226	-0.017043	
45229	    0	15.767154	-6.514865	-9.841465	-1.572518	-0.755930	-3.497537	0.156860	-0.068665	-0.097290	0.999808	-0.007862	-0.003779	-0.017487	
45230	    0	16.469640	3.012757	-14.591548	-1.215245	-0.922640	-3.483219	0.165849	0.026361	-0.145320	0.999819	-0.006076	-0.004613	-0.017415	
45231	    0	13.920693	11.342969	-14.152845	-1.254340	-0.800939	-3.283869	0.141602	0.110229	-0.141663	0.999837	-0.006271	-0.004004	-0.016418	
45232	    0	21.618880	6.086905	-9.581292	-1.577855	-0.242439	-3.470250	0.217309	0.056348	-0.096006	0.999817	-0.007889	-0.001212	-0.017350	
45233	    0	30.165519	-12.810279	-8.203922	-1.848716	-0.168429	-3.370111	0.299500	-0.133911	-0.080566	0.999814	-0.009243	-0.000842	-0.016850	
45234	    0	25.776623	-16.334412	-6.024377	-1.066642	-0.057986	-3.285381	0.255051	-0.167867	-0.059282	0.999850	-0.005333	-0.000290	-0.016426	
45235	    0	18.900281	-6.802192	1.158883	-0.154120	-0.145537	-3.221270	0.187866	-0.071045	0.011780	0.999869	-0.000771	-0.000728	-0.016106	
45236	    0	18.222642	-1.458073	4.424778	-0.644899	-0.022889	-2.930942	0.181983	-0.017106	0.044321	0.999887	-0.003224	-0.000114	-0.014654	
45237	    0	16.102691	-1.796209	7.848145	-1.413783	0.306904	-2.714646	0.160889	-0.019592	0.078369	0.999881	-0.007069	0.001534	-0.013573	
45238	    0	14.250181	-4.417676	7.803834	-2.250969	0.469802	-2.469180	0.142133	-0.045053	0.078208	0.999857	-0.011254	0.002349	-0.012345	
45239	    0	11.890892	-5.008633	6.219359	-2.709344	0.634991	-2.287416	0.118530	-0.050598	0.062500	0.999837	-0.013546	0.003175	-0.011436	
45240	    0	9.232215	-7.304245	4.125345	-3.171739	0.696417	-2.131024	0.091687	-0.073359	0.042095	0.999811	-0.015858	0.003482	-0.010654	
45241	    0	8.022339	-10.340228	0.543855	-3.602858	0.576251	-1.961658	0.079224	-0.104065	0.007080	0.999785	-0.018013	0.002881	-0.009808	
45242	    0	7.524211	-14.660955	-2.243249	-3.868399	0.348690	-1.802582	0.073878	-0.147678	-0.019712	0.999770	-0.019341	0.001743	-0.009012	
45243	    0	6.391653	-16.769969	-4.164347	-3.605128	0.288601	-1.685445	0.062439	-0.168945	-0.038696	0.999801	-0.018024	0.001443	-0.008427	
45244	    0	5.035919	-16.314163	-2.915929	-2.663715	0.493641	-1.368003	0.049171	-0.163851	-0.027102	0.999885	-0.013318	0.002468	-0.006840	
45245	    0	3.568911	-17.468968	-2.010442	-1.347178	0.664529	-0.954450	0.034790	-0.174988	-0.019043	0.999960	-0.006736	0.003323	-0.004772	
45246	    0	2.151175	-20.707673	-1.703397	0.373079	0.703433	-0.664714	0.020762	-0.207114	-0.017494	0.999986	0.001865	0.003517	-0.003324	
45247	    0	-0.432634	-22.703920	-2.082470	1.992072	0.565539	-0.434884	-0.004883	-0.226807	-0.023071	0.999944	0.009960	0.002828	-0.002174	
45248	    0	-2.851397	-19.442590	0.173473	2.616387	0.404370	-0.235564	-0.028743	-0.194393	-0.000751	0.999911	0.013082	0.002022	-0.001178	
45249	    0	-1.836774	-11.585462	2.135891	2.138752	0.254827	0.158694	-0.018250	-0.116089	0.020142	0.999941	0.010694	0.001274	0.000793	
45250	    0	1.320130	-3.625324	4.139339	1.138314	0.300600	0.678640	0.013387	-0.036443	0.041166	0.999976	0.005692	0.001503	0.003393	
45251	    0	3.577190	-1.085501	7.455303	0.032234	0.492099	1.034552	0.036011	-0.010681	0.074463	0.999983	0.000161	0.002460	0.005173	
45252	    0	4.899213	-3.880588	8.241014	-0.712403	0.798806	1.221861	0.049556	-0.038211	0.082350	0.999967	-0.003562	0.003994	0.006109	
45253	    0	6.523611	-6.888021	6.800021	-0.694858	1.114672	1.422141	0.066101	-0.068176	0.067871	0.999952	-0.003474	0.005573	0.007111	
45254	    0	8.781629	-7.481064	5.140169	-0.473414	1.381712	1.664005	0.088787	-0.073954	0.050966	0.999938	-0.002367	0.006908	0.008320	
45255	    0	10.352908	-6.396160	1.780773	-0.745220	1.481667	1.863909	0.104248	-0.062927	0.017273	0.999922	-0.003726	0.007408	0.009319	
45256	    0	11.297041	-6.679602	-4.639375	-1.231421	1.177441	2.063813	0.113379	-0.065914	-0.046653	0.999910	-0.006157	0.005887	0.010319	
45257	    0	17.708833	-10.952814	-12.660876	-0.677317	0.663775	2.304900	0.177917	-0.107910	-0.126831	0.999922	-0.003386	0.003319	0.011524	
45258	    0	33.394746	-15.618186	-17.014485	0.719094	0.405897	2.649202	0.335625	-0.151129	-0.171374	0.999904	0.003595	0.002029	0.013246	
45259	    0	39.924284	-13.502691	-12.549082	1.848706	0.770040	3.080160	0.400757	-0.127686	-0.128235	0.999831	0.009243	0.003850	0.015400	
45260	    0	31.765106	-9.997236	-4.697853	2.585051	1.256092	3.377428	0.318963	-0.093958	-0.050220	0.999754	0.012924	0.006280	0.016886	
45261	    0	25.146058	-4.825537	1.730910	2.639460	1.347485	3.874591	0.252441	-0.043579	0.015015	0.999702	0.013196	0.006737	0.019371	
45262	    0	21.147677	-0.447392	4.248875	2.589501	1.052777	4.201763	0.211736	-0.000567	0.041350	0.999681	0.012946	0.005263	0.021007	
45263	    0	23.415575	6.095168	2.048808	1.815943	0.741828	3.943190	0.232971	0.065369	0.020203	0.999757	0.009079	0.003709	0.019714	
45264	    0	28.636313	12.034826	-0.657371	0.678293	0.514442	3.640196	0.284092	0.125556	-0.006886	0.999825	0.003391	0.002572	0.018200	
45265	    0	27.495727	11.097265	-0.592878	-0.515777	0.313777	3.708104	0.272827	0.116028	-0.006653	0.999824	-0.002579	0.001569	0.018539	
45266	    0	25.520208	6.483506	0.239760	-0.840431	0.160609	3.793192	0.253913	0.069668	0.001907	0.999810	-0.004202	0.000803	0.018965	
45267	    0	22.560024	2.475758	1.411056	-0.133332	0.210584	3.750831	0.225098	0.028992	0.013855	0.999823	-0.000667	0.001053	0.018753	
45268	    0	17.948415	1.836632	2.241609	0.765460	0.329607	3.482051	0.179166	0.021402	0.022199	0.999839	0.003827	0.001648	0.017409	
45269	    0	14.310850	4.046729	0.735362	1.467198	0.385492	2.897010	0.142517	0.042480	0.007385	0.999866	0.007336	0.001927	0.014484	
45270	    0	12.368416	6.347472	-0.257066	2.133073	0.343146	2.207081	0.122970	0.064858	-0.002095	0.999880	0.010665	0.001716	0.011035	
45271	    0	11.201988	7.179169	-1.333801	2.495093	0.140386	1.547297	0.111450	0.072815	-0.012512	0.999891	0.012475	0.000702	0.007736	
45272	    0	9.193325	8.925377	-2.538964	2.528080	-0.166135	1.082073	0.091468	0.090060	-0.024179	0.999905	0.012640	-0.000831	0.005410	
45273	    0	6.166668	12.108456	-4.061165	2.146960	-0.597967	0.631728	0.061401	0.121704	-0.039124	0.999932	0.010735	-0.002990	0.003159	
45274	    0	2.678055	15.597736	-6.372282	1.095782	-0.971040	0.274089	0.026873	0.156360	-0.062737	0.999971	0.005479	-0.004855	0.001370	
45275	    0	-0.049524	17.450482	-7.493771	-0.013542	-1.004033	0.143433	-0.000244	0.174500	-0.074951	0.999987	-0.000068	-0.005020	0.000717	
45276	    0	-2.275798	16.381217	-6.797423	-0.864988	-0.899893	0.200273	-0.022614	0.163493	-0.068784	0.999980	-0.004325	-0.004499	0.001001	
45277	    0	-3.320682	13.675647	-4.873294	-1.367011	-0.837716	0.029755	-0.033020	0.136414	-0.049805	0.999968	-0.006835	-0.004189	0.000149	
45278	    0	-2.655721	13.638421	-4.354945	-1.880297	-0.725568	-0.341994	-0.026163	0.136011	-0.044925	0.999948	-0.009401	-0.003628	-0.001710	
45279	    0	-4.102463	15.949712	-8.062635	-3.038914	-0.752862	-0.389878	-0.040405	0.158325	-0.083191	0.999875	-0.015194	-0.003764	-0.001949	
45280	    0	-7.108650	17.568517	-5.869709	-2.888788	-0.783187	-0.259028	-0.070622	0.174902	-0.061504	0.999887	-0.014443	-0.003916	-0.001295	
45281	    0	-7.670336	15.008250	4.220735	1.085105	-1.406879	-0.129701	-0.076904	0.149902	0.042480	0.999960	0.005425	-0.007034	-0.000648	
45282	    0	-3.608754	1.233644	6.698907	4.481822	-2.641404	0.182554	-0.036981	0.010805	0.066758	0.999660	0.022407	-0.013206	0.000913	
45283	    0	1.231367	-10.813766	7.897492	4.315856	-2.836161	0.141159	0.011292	-0.109802	0.076782	0.999666	0.021577	-0.014179	0.000706	
45284	    0	4.551906	-18.910138	6.882261	3.794226	-2.382478	-0.274109	0.044463	-0.190430	0.065752	0.999747	0.018970	-0.011911	-0.001370	
45285	    0	7.230320	-21.303258	0.403980	2.542411	-1.576299	-1.046034	0.071167	-0.213440	0.001892	0.999874	0.012712	-0.007881	-0.005230	
45286	    0	16.555579	-13.419942	-9.995747	1.753079	-0.090982	-1.314571	0.164719	-0.134401	-0.101060	0.999939	0.008765	-0.000455	-0.006573	
45287	    0	17.698397	-7.456503	-3.712021	1.433589	1.315522	-0.747694	0.176453	-0.074951	-0.038818	0.999946	0.007168	0.006577	-0.003738	
45288	    0	4.620523	-9.132184	7.798443	-2.792271	1.044503	0.074771	0.046650	-0.090206	0.079006	0.999888	-0.013961	0.005222	0.000374	
45289	    0	-1.423287	0.905923	9.835385	-6.571751	-1.981560	0.980574	-0.015259	0.012207	0.097839	0.999398	-0.032852	-0.009906	0.004902	
45290	    0	3.241274	-2.034801	4.593824	-8.031023	-2.573598	1.098392	0.031916	-0.018295	0.047113	0.999096	-0.040143	-0.012864	0.005490	
45291	    0	32.733115	2.707845	2.171206	-1.594373	-0.518042	0.464636	0.327209	0.028015	0.022339	0.999962	-0.007972	-0.002590	0.002323	
45292	    0	48.797578	-39.584187	-12.758511	6.965862	-2.007362	-1.087051	0.487171	-0.393842	-0.136435	0.999328	0.034822	-0.010035	-0.005434	
45293	    0	20.828739	-52.950766	-50.162908	-0.938236	0.585944	1.276413	0.210205	-0.530518	-0.499756	0.999964	-0.004691	0.002930	0.006382	
45294	    0	18.794516	50.515206	32.204892	0.547603	-0.034523	1.085479	0.185147	0.505278	0.323464	0.999981	0.002738	-0.000173	0.005427	
45295	    0	-8.966222	57.781795	-7.133317	-1.033601	-0.326541	-0.867469	-0.087036	0.577820	-0.074463	0.999975	-0.005168	-0.001633	-0.004337	
45296	    0	-13.999384	53.195480	-8.725672	-1.051343	0.160791	-1.311318	-0.136576	0.532390	-0.089944	0.999964	-0.005257	0.000804	-0.006557	
45297	    0	10.373880	20.460189	-13.998507	-3.046656	-0.109681	-3.084806	0.106934	0.200806	-0.143005	0.999764	-0.015232	-0.000548	-0.015423	
45298	    0	25.594461	10.181168	-17.882480	-2.955303	0.205057	-3.370949	0.257398	0.094822	-0.180524	0.999748	-0.014775	0.001025	-0.016853	
45299	    0	13.827661	-5.113265	-12.037350	-2.029537	-0.117309	-3.127470	0.137512	-0.054504	-0.119751	0.999825	-0.010147	-0.000587	-0.015636	
45300	    0	12.129238	1.699909	-15.196721	-1.468746	-0.671236	-3.420080	0.122056	0.013802	-0.151668	0.999821	-0.007343	-0.003356	-0.017099	
45301	    0	12.496461	10.851885	-16.884750	-1.091635	-0.667608	-3.363219	0.127319	0.105469	-0.169006	0.999838	-0.005458	-0.003338	-0.016815	
45302	    0	18.494926	7.344364	-13.950748	-1.432883	-0.138482	-3.442773	0.186262	0.069243	-0.139885	0.999825	-0.007164	-0.000692	-0.017213	
45303	    0	24.897278	-5.747030	-9.549263	-1.410761	-0.074582	-3.560093	0.247925	-0.062561	-0.094971	0.999816	-0.007053	-0.000373	-0.017799	
45304	    0	28.238525	-14.282970	-10.361611	-0.950296	-0.140198	-3.598040	0.279821	-0.148369	-0.102723	0.999826	-0.004751	-0.000701	-0.017989	
45305	    0	21.276247	-6.624668	-4.656539	0.020028	-0.117499	-3.610426	0.211548	-0.070068	-0.046448	0.999836	0.000100	-0.000587	-0.018051	
45306	    0	18.842143	-0.623268	0.207299	-0.008393	-0.157936	-3.476509	0.188273	-0.009506	0.002222	0.999848	-0.000042	-0.000790	-0.017382	
45307	    0	19.031628	1.218121	3.106933	-0.622398	0.033571	-3.343362	0.190491	0.009094	0.031006	0.999855	-0.003112	0.000168	-0.016716	
45308	    0	17.290984	-0.708880	5.544293	-1.316140	0.185976	-3.313622	0.172816	-0.009588	0.055340	0.999840	-0.006580	0.000930	-0.016567	
45309	    0	15.650931	-1.984619	5.527154	-1.868357	0.297564	-3.224370	0.156250	-0.021851	0.055237	0.999825	-0.009341	0.001488	-0.016121	
45310	    0	13.310712	-5.125294	5.541626	-2.235171	0.342581	-3.140264	0.132382	-0.052713	0.055773	0.999812	-0.011175	0.001713	-0.015700	
45311	    0	11.175865	-10.133382	3.586066	-2.756690	0.286313	-2.978721	0.110291	-0.102478	0.037109	0.999793	-0.013783	0.001431	-0.014893	
45312	    0	8.785545	-15.392290	1.052358	-3.361205	0.075155	-2.771025	0.085718	-0.154915	0.013089	0.999763	-0.016805	0.000376	-0.013854	
45313	    0	6.959580	-21.365361	-0.849300	-3.775345	-0.156988	-2.468319	0.066956	-0.214600	-0.004395	0.999745	-0.018875	-0.000785	-0.012341	
45314	    0	5.044834	-23.858086	-1.434005	-3.347610	0.054554	-2.022300	0.048028	-0.239270	-0.010352	0.999808	-0.016737	0.000273	-0.010111	
45315	    0	4.174804	-23.415296	0.365139	-1.833194	0.602736	-1.315338	0.040222	-0.234375	0.005676	0.999931	-0.009166	0.003014	-0.006577	
45316	    0	2.360844	-24.832601	1.952434	0.443843	0.744252	-0.812154	0.022671	-0.248462	0.018888	0.999982	0.002219	0.003721	-0.004061	
45317	    0	0.121345	-27.620569	1.662754	2.182056	0.548756	-0.553906	0.000488	-0.276367	0.013611	0.999932	0.010910	0.002744	-0.002769	
45318	    0	-2.105305	-23.408591	1.166651	2.613145	0.410474	-0.297364	-0.021381	-0.234180	0.008651	0.999911	0.013065	0.002052	-0.001487	
45319	    0	-1.256206	-13.764200	3.605225	1.968609	0.547037	0.198368	-0.012329	-0.138000	0.034729	0.999947	0.009843	0.002735	0.000992	
45320	    0	2.504363	-5.535256	4.518410	0.981722	0.735862	0.923929	0.025465	-0.055456	0.044819	0.999970	0.004909	0.003679	0.004620	
45321	    0	4.474963	-2.620659	6.373075	0.406843	0.892651	1.486226	0.045227	-0.026001	0.063477	0.999960	0.002034	0.004463	0.007431	
45322	    0	5.957367	-4.928524	8.294957	-0.088312	1.064128	1.718741	0.060434	-0.048732	0.082651	0.999949	-0.000442	0.005321	0.008594	
45323	    0	7.717322	-6.800377	7.594985	-0.288969	1.247431	1.783788	0.078247	-0.067200	0.075562	0.999939	-0.001445	0.006237	0.008919	
45324	    0	9.063144	-6.032002	5.249614	-0.405322	1.467168	1.885842	0.091577	-0.059354	0.051948	0.999927	-0.002027	0.007336	0.009429	
45325	    0	10.983187	-4.380995	1.197834	-0.871303	1.587153	1.989806	0.110352	-0.042664	0.011292	0.999909	-0.004356	0.007936	0.009949	
45326	    0	13.655292	-4.304837	-5.457299	-1.359606	1.422551	2.137450	0.136614	-0.041963	-0.055257	0.999894	-0.006798	0.007113	0.010687	
45327	    0	21.419150	-8.496821	-12.203068	-1.045073	1.127665	2.482693	0.214539	-0.082947	-0.122803	0.999893	-0.005225	0.005638	0.012413	
45328	    0	35.539896	-13.509885	-14.240942	0.196655	1.036875	2.870481	0.356543	-0.129846	-0.144385	0.999883	0.000983	0.005184	0.014352	
45329	    0	35.197279	-12.035962	-9.114073	1.503837	1.294971	3.061846	0.353149	-0.114258	-0.094299	0.999833	0.007519	0.006474	0.015308	
45330	    0	26.218362	-12.204152	-3.389338	2.538115	1.383317	3.203450	0.263839	-0.117366	-0.037224	0.999766	0.012690	0.006916	0.016016	
45331	    0	22.953146	-7.736878	-0.917934	2.553013	1.272119	3.515925	0.230774	-0.073181	-0.011597	0.999743	0.012764	0.006360	0.017578	
45332	    0	21.087201	-0.189639	-0.244328	2.492560	1.025484	3.821912	0.210840	0.002172	-0.003514	0.999726	0.012462	0.005127	0.019108	
45333	    0	24.064512	4.396678	-2.486500	2.055516	0.739536	3.682990	0.239685	0.048645	-0.025269	0.999770	0.010277	0.003697	0.018414	
45334	    0	29.132391	8.680755	-5.030353	1.101748	0.427271	3.516017	0.289627	0.092187	-0.050426	0.999827	0.005508	0.002136	0.017579	
45335	    0	29.622540	9.233576	-5.281087	0.257316	0.238814	3.726414	0.294373	0.097900	-0.053040	0.999825	0.001287	0.001194	0.018631	
45336	    0	27.605007	5.176050	-3.921900	-0.003052	0.148974	4.087733	0.274886	0.057386	-0.039425	0.999790	-0.000015	0.000745	0.020437	
45337	    0	24.488189	1.671110	-2.147125	0.663999	0.065618	4.243796	0.244446	0.021973	-0.021484	0.999769	0.003320	0.000328	0.021217	
45338	    0	19.959091	1.846173	-1.787046	1.517609	-0.020220	4.121921	0.199154	0.022704	-0.017689	0.999759	0.007587	-0.000101	0.020608	
45339	    0	15.768596	4.275754	-2.534139	2.276028	-0.063901	3.713520	0.156860	0.045959	-0.024780	0.999763	0.011379	-0.000319	0.018566	
45340	    0	13.338308	6.432259	-3.175797	3.089577	-0.117120	3.069930	0.132388	0.066839	-0.030661	0.999763	0.015447	-0.000586	0.015348	
45341	    0	11.643385	7.856184	-4.737921	3.537445	-0.218217	2.361476	0.115540	0.080750	-0.045837	0.999773	0.017686	-0.001091	0.011806	
45342	    0	9.534635	10.310230	-5.839036	3.448324	-0.363182	1.801796	0.094510	0.104940	-0.056419	0.999808	0.017241	-0.001816	0.009008	
45343	    0	6.313063	13.427985	-6.094945	2.893192	-0.500319	1.334439	0.062378	0.135559	-0.058838	0.999869	0.014465	-0.002501	0.006672	
45344	    0	3.086409	15.842595	-5.554597	2.094508	-0.601973	0.889417	0.030321	0.159131	-0.053790	0.999930	0.010472	-0.003010	0.004447	
45345	    0	0.031389	16.483152	-4.981394	1.342025	-0.701721	0.588996	0.000000	0.165161	-0.048706	0.999967	0.006710	-0.003509	0.002945	
45346	    0	-2.641834	16.478893	-5.095308	0.164795	-0.741580	0.450708	-0.026601	0.164771	-0.050916	0.999990	0.000824	-0.003708	0.002254	
45347	    0	-4.871086	16.758927	-5.801051	-0.978667	-0.786596	0.270082	-0.048706	0.167236	-0.059021	0.999979	-0.004893	-0.003933	0.001350	
45348	    0	-5.140009	19.916746	-4.757025	-1.745631	-0.653658	-0.047494	-0.051193	0.198753	-0.049474	0.999956	-0.008728	-0.003268	-0.000237	
45349	    0	-5.581933	23.307382	-3.695387	-2.192543	-0.379189	-0.280005	-0.055420	0.232727	-0.039612	0.999937	-0.010962	-0.001896	-0.001400	
45350	    0	-7.308333	21.184670	-2.826697	-2.491827	-0.378428	-0.327691	-0.072680	0.211591	-0.031042	0.999919	-0.012459	-0.001892	-0.001638	
45351	    0	-8.460136	17.643011	0.892397	-0.983437	-0.865752	-0.392917	-0.084290	0.176636	0.007690	0.999976	-0.004917	-0.004329	-0.001965	
45352	    0	-6.124957	6.624458	8.846357	1.992460	-1.131273	-0.182156	-0.061691	0.065417	0.088770	0.999933	0.009962	-0.005656	-0.000911	
45353	    0	-0.776376	-6.474406	12.045851	2.984212	-2.088281	-0.057987	-0.009033	-0.066528	0.119385	0.999834	0.014920	-0.010441	-0.000290	
45354	    0	3.623237	-16.601688	12.071233	2.695249	-2.691434	-0.418498	0.034274	-0.167701	0.118930	0.999816	0.013475	-0.013456	-0.002092	
45355	    0	6.093548	-21.830546	3.456283	1.541214	-2.922776	-1.017049	0.059326	-0.218872	0.033752	0.999850	0.007706	-0.014613	-0.005085	
45356	    0	11.992708	-15.577090	-4.755651	1.980676	-2.472984	-0.557161	0.120082	-0.155634	-0.047614	0.999870	0.009903	-0.012364	-0.002786	
45357	    0	20.647922	-15.427901	-12.862105	1.100357	-0.660710	0.006104	0.206909	-0.153564	-0.128784	0.999979	0.005502	-0.003304	0.000031	
45358	    0	3.652572	-17.863847	-0.722764	-4.768636	-0.277164	0.264384	0.036768	-0.178694	-0.002916	0.999714	-0.023841	-0.001386	0.001322	
45359	    0	-0.297660	-4.997487	2.576376	-7.288469	-2.343574	1.222535	-0.002991	-0.049011	0.027527	0.999249	-0.036433	-0.011715	0.006111	
45360	    0	1.901312	1.848283	8.446535	-5.949527	-0.653746	0.117319	0.018726	0.020996	0.083927	0.999552	-0.029743	-0.003268	0.000587	
45361	    0	47.443190	1.164245	11.336295	2.819363	1.129958	0.463885	0.475037	0.011169	0.110840	0.999882	0.014096	0.005650	0.002319	
45362	    0	42.682117	-54.661311	-17.804375	5.034406	-2.767769	-1.196270	0.426096	-0.544550	-0.185869	0.999569	0.025168	-0.013837	-0.005980	
45363	    0	22.502488	-52.225139	-43.328192	-2.231502	1.789169	1.427520	0.224915	-0.525452	-0.429443	0.999872	-0.011157	0.008945	0.007137	
45364	    0	18.967390	49.298817	26.636490	1.740122	-1.172289	1.491969	0.184419	0.492028	0.271740	0.999917	0.008700	-0.005861	0.007460	
45365	    0	-13.617453	63.167871	-8.238557	-0.517084	-0.849155	-0.101471	-0.135498	0.631531	-0.084595	0.999987	-0.002585	-0.004246	-0.000507	
45366	    0	-17.608490	53.178882	-8.894171	-1.169024	-0.465206	-0.631147	-0.174194	0.531807	-0.092457	0.999975	-0.005845	-0.002326	-0.003156	
45367	    0	8.111840	24.881367	-13.414720	-2.826115	-0.437765	-2.773468	0.084839	0.245728	-0.137451	0.999801	-0.014130	-0.002189	-0.013866	
45368	    0	24.390449	12.285223	-18.208002	-2.217497	-0.179307	-4.144860	0.246516	0.115734	-0.183169	0.999722	-0.011086	-0.000896	-0.020722	
45369	    0	19.250278	-5.359068	-7.230857	-1.326838	-0.355362	-3.699733	0.191589	-0.057617	-0.071594	0.999804	-0.006634	-0.001777	-0.018497	
45370	    0	16.233543	-2.073217	-11.488566	-0.885825	-0.984632	-3.535290	0.162492	-0.024110	-0.113984	0.999822	-0.004429	-0.004923	-0.017675	
45371	    0	10.582662	14.172958	-14.213759	-1.017625	-0.957541	-3.309809	0.108826	0.139221	-0.142334	0.999838	-0.005088	-0.004787	-0.016548	
45372	    0	18.481977	11.600785	-14.298170	-1.318435	-0.334759	-3.446013	0.187011	0.111854	-0.143416	0.999828	-0.006592	-0.001674	-0.017229	
45373	    0	24.622413	-3.859772	-10.462662	-1.399312	0.029947	-3.459368	0.245483	-0.043579	-0.104370	0.999825	-0.006996	0.000150	-0.017296	
45374	    0	25.772189	-13.405756	-8.658333	-0.975088	-0.136573	-3.427306	0.255428	-0.138867	-0.085739	0.999841	-0.004875	-0.000683	-0.017136	
45375	    0	22.067169	-6.683347	-6.918877	-0.254643	-0.285353	-3.360909	0.219604	-0.070618	-0.068787	0.999857	-0.001273	-0.001427	-0.016804	
45376	    0	17.848059	2.510176	-0.463075	-0.303090	-0.332655	-3.027653	0.178841	0.022389	-0.004369	0.999883	-0.001515	-0.001663	-0.015138	
45377	    0	17.720274	3.402929	3.094866	-1.296856	-0.233468	-2.739058	0.177612	0.031799	0.030945	0.999884	-0.006484	-0.001167	-0.013695	
45378	    0	18.023792	-0.343955	4.114189	-2.232466	-0.040438	-2.520871	0.180171	-0.005251	0.041230	0.999858	-0.011162	-0.000202	-0.012604	
45379	    0	16.641480	-4.616347	4.986840	-2.700000	0.180064	-2.407969	0.165894	-0.047485	0.050354	0.999836	-0.013499	0.000900	-0.012039	
45380	    0	14.843200	-8.690877	5.451841	-3.103453	0.284404	-2.351338	0.147482	-0.087789	0.055666	0.999809	-0.015516	0.001422	-0.011756	
45381	    0	12.043161	-11.248368	4.304137	-3.373761	0.244158	-2.274480	0.119202	-0.113098	0.044800	0.999792	-0.016868	0.001221	-0.011372	
45382	    0	8.425139	-13.836203	2.209457	-3.693101	0.107773	-2.179122	0.082753	-0.138830	0.024611	0.999769	-0.018464	0.000539	-0.010895	
45383	    0	6.367230	-15.387696	-0.202798	-3.707392	0.123033	-1.915117	0.062195	-0.154480	0.000793	0.999782	-0.018536	0.000615	-0.009575	
45384	    0	6.720059	-17.240577	-1.490206	-2.809837	0.367753	-1.543684	0.065842	-0.173105	-0.012595	0.999869	-0.014049	0.001839	-0.007718	
45385	    0	6.994438	-20.590904	-0.723721	-1.522852	0.556383	-1.165028	0.068726	-0.206360	-0.005859	0.999949	-0.007614	0.002782	-0.005825	
45386	    0	5.039090	-24.199499	-1.185257	-0.014687	0.557902	-0.848202	0.049331	-0.242207	-0.011973	0.999987	-0.000073	0.002789	-0.004241	
45387	    0	1.437214	-24.128219	0.161021	1.252759	0.544172	-0.682837	0.013550	-0.241333	0.000061	0.999970	0.006264	0.002721	-0.003414	
45388	    0	-0.865209	-18.924719	1.845443	1.786068	0.497253	-0.396734	-0.008985	-0.189384	0.016786	0.999954	0.008930	0.002486	-0.001984	
45389	    0	-1.690799	-12.351765	3.995254	1.311504	0.512890	0.035858	-0.016785	-0.123779	0.039185	0.999974	0.006557	0.002564	0.000179	
45390	    0	-0.323150	-8.130087	5.355004	0.326349	0.578120	0.671389	-0.002804	-0.081398	0.053426	0.999989	0.001632	0.002891	0.003357	
45391	    0	2.695784	-6.218405	5.766533	-0.199129	0.802811	1.285565	0.027588	-0.061951	0.057617	0.999970	-0.000996	0.004014	0.006428	
45392	    0	5.297656	-6.119915	8.281579	-0.655758	1.115246	1.599149	0.053924	-0.060499	0.082716	0.999947	-0.003279	0.005576	0.007996	
45393	    0	6.842791	-5.750834	8.839659	-1.164848	1.360356	1.728102	0.069519	-0.056396	0.088257	0.999922	-0.005824	0.006802	0.008640	
45394	    0	8.307060	-5.774296	6.743805	-1.333089	1.565793	1.873267	0.084130	-0.056510	0.067162	0.999903	-0.006665	0.007829	0.009366	
45395	    0	9.787277	-6.309182	2.964336	-1.405387	1.716869	2.022628	0.098755	-0.061890	0.029236	0.999887	-0.007027	0.008584	0.010113	
45396	    0	10.862183	-6.894128	-3.174882	-1.583547	1.607008	2.225969	0.109125	-0.067982	-0.032084	0.999874	-0.007917	0.008035	0.011129	
45397	    0	14.751453	-10.000448	-11.528340	-1.215217	1.162000	2.473542	0.148071	-0.098877	-0.115540	0.999887	-0.006076	0.005810	0.012367	
45398	    0	26.000875	-14.511370	-16.358701	0.050165	0.704025	2.691356	0.261352	-0.141562	-0.164541	0.999903	0.000251	0.003520	0.013456	
45399	    0	40.622443	-14.862551	-16.018290	1.379466	0.669323	3.170177	0.407959	-0.141052	-0.162537	0.999845	0.006897	0.003346	0.015850	
45400	    0	35.939633	-9.912520	-8.470270	2.310565	1.136494	3.676532	0.360632	-0.091500	-0.087836	0.999747	0.011552	0.005682	0.018381	
45401	    0	27.764900	-7.414972	-1.941907	2.775084	1.438473	3.726564	0.278809	-0.068665	-0.022400	0.999703	0.013874	0.007192	0.018631	
45402	    0	24.503737	-0.439901	1.376680	2.759471	1.380689	4.079882	0.245149	0.000427	0.012058	0.999673	0.013796	0.006903	0.020397	
45403	    0	23.967987	5.073970	1.600619	2.476942	1.030835	4.129446	0.238647	0.055481	0.015442	0.999697	0.012383	0.005154	0.020645	
45404	    0	27.169038	10.556098	-1.381475	1.395516	0.557176	3.866091	0.269543	0.110882	-0.013806	0.999784	0.006977	0.002786	0.019329	
45405	    0	26.746455	12.420440	-1.959417	0.045016	0.203909	3.901921	0.264954	0.129395	-0.019836	0.999808	0.000225	0.001019	0.019508	
45406	    0	26.376249	7.557482	-1.398399	-0.796947	-0.107964	4.044629	0.262171	0.080832	-0.014157	0.999787	-0.003984	-0.000540	0.020222	
45407	    0	24.419516	1.789953	-0.427595	-0.320456	-0.080686	3.995782	0.243774	0.022766	-0.004211	0.999799	-0.001602	-0.000403	0.019978	
45408	    0	19.025368	-0.146390	1.191848	0.859123	0.163851	3.766676	0.190247	0.002069	0.011766	0.999813	0.004295	0.000819	0.018832	
45409	    0	14.514623	1.532707	1.183885	2.077038	0.321980	3.190044	0.144897	0.017517	0.011780	0.999817	0.010385	0.001610	0.015949	
45410	    0	11.631437	5.244365	-0.010362	3.034785	0.366616	2.436793	0.115664	0.053851	0.000494	0.999808	0.015173	0.001833	0.012183	
45411	    0	10.021901	7.561543	-1.491516	3.539696	0.216689	1.716725	0.099548	0.076721	-0.013672	0.999805	0.017697	0.001083	0.008583	
45412	    0	8.850304	9.723543	-2.939182	3.460694	-0.028612	1.148287	0.087945	0.098230	-0.027685	0.999833	0.017303	-0.000143	0.005741	
45413	    0	6.596516	12.633453	-4.436477	2.980922	-0.349249	0.673702	0.065613	0.127197	-0.042358	0.999881	0.014904	-0.001746	0.003368	
45414	    0	3.450741	15.673459	-5.235791	2.160119	-0.645270	0.263029	0.034466	0.157332	-0.050550	0.999935	0.010800	-0.003226	0.001315	
45415	    0	0.885111	16.684598	-5.375208	1.249706	-0.772674	-0.045777	0.009094	0.167175	-0.052673	0.999972	0.006248	-0.003863	-0.000229	
45416	    0	-1.678955	15.900150	-4.810142	0.264359	-0.681879	-0.095368	-0.016550	0.159073	-0.047948	0.999992	0.001322	-0.003409	-0.000477	
45417	    0	-3.468078	14.220425	-3.690617	-0.425530	-0.485230	-0.148773	-0.034485	0.142151	-0.037292	0.999994	-0.002128	-0.002426	-0.000744	
45418	    0	-3.777609	15.291925	-2.882598	-1.090057	-0.473598	-0.451663	-0.037361	0.152843	-0.029748	0.999979	-0.005450	-0.002368	-0.002258	
45419	    0	-4.238332	19.794903	-4.204797	-1.853213	-0.601016	-0.695813	-0.041565	0.197693	-0.044006	0.999946	-0.009266	-0.003005	-0.003479	
45420	    0	-6.225047	21.676792	-7.161865	-3.045971	-0.664166	-0.492307	-0.061473	0.215794	-0.075115	0.999875	-0.015229	-0.003321	-0.002461	
45421	    0	-6.330258	18.069665	-4.156602	-2.793224	-0.913081	-0.466936	-0.062683	0.180237	-0.044373	0.999888	-0.013966	-0.004565	-0.002335	
45422	    0	-6.036925	7.891451	3.829838	0.512508	-1.079757	-0.444797	-0.060400	0.078951	0.038175	0.999979	0.002563	-0.005399	-0.002224	
45423	    0	-3.275214	-6.530996	6.321540	2.876410	-1.546357	-0.274670	-0.033325	-0.066162	0.062012	0.999866	0.014381	-0.007731	-0.001373	
45424	    0	0.718585	-15.543993	12.591841	2.901998	-2.095718	-0.502232	0.005488	-0.157261	0.123709	0.999836	0.014509	-0.010478	-0.002511	
45425	    0	5.541683	-21.445173	12.044277	2.697934	-2.808377	-0.937715	0.052734	-0.216309	0.118286	0.999799	0.013489	-0.014041	-0.004688	
45426	    0	7.501734	-23.281150	1.937496	2.100283	-2.449344	-1.059774	0.073557	-0.233397	0.017833	0.999855	0.010501	-0.012246	-0.005299	
45427	    0	19.901460	-18.657595	-16.823419	2.395904	-1.516013	-0.566121	0.199768	-0.185120	-0.168945	0.999895	0.011979	-0.007580	-0.002831	
45428	    0	17.822079	-17.939563	-4.141073	1.313794	0.640303	0.335506	0.178385	-0.178817	-0.043158	0.999971	0.006569	0.003201	0.001678	
45429	    0	2.380433	-13.898994	3.454981	-5.154051	0.230434	0.820253	0.024414	-0.137939	0.038086	0.999659	-0.025767	0.001152	0.004101	
45430	    0	-2.777958	-3.863368	1.007803	-6.863207	-1.845769	1.635151	-0.027564	-0.038489	0.011146	0.999334	-0.034308	-0.009227	0.008174	
45431	    0	7.258810	-5.442817	1.027608	-4.065794	-0.096137	0.180829	0.072632	-0.054138	0.011414	0.999792	-0.020328	-0.000481	0.000904	
45432	    0	58.715064	-2.084803	11.308982	5.803325	2.397560	-1.043114	0.588314	-0.027046	0.105316	0.999494	0.029012	0.011986	-0.005215	
45433	    0	33.845992	-81.093739	-40.402474	1.877702	-3.196709	0.143441	0.345520	-0.806885	-0.406128	0.999827	0.009388	-0.015983	0.000717	
45434	    0	19.658926	7.755953	-0.968165	0.296407	1.758606	1.001185	0.196103	0.078558	-0.011292	0.999948	0.001482	0.008793	0.005006	
45435	    0	1.156829	60.430859	2.120694	2.069335	-1.284060	0.360879	0.010315	0.604065	0.027527	0.999924	0.010346	-0.006420	0.001804	
45436	    0	-17.129272	64.536526	-19.405661	-0.779921	-0.825507	-0.853355	-0.167729	0.645321	-0.197270	0.999974	-0.003900	-0.004128	-0.004267	
45437	    0	-9.451047	39.438261	-10.975658	-1.929331	-0.192266	-1.477087	-0.091492	0.393982	-0.113647	0.999926	-0.009646	-0.000961	-0.007385	
45438	    0	14.849127	13.951089	-22.234156	-2.846779	-0.069434	-3.619895	0.151023	0.133610	-0.224219	0.999734	-0.014233	-0.000347	-0.018098	
45439	    0	24.328568	1.659111	-13.458373	-1.701299	0.011445	-4.014142	0.243530	0.010559	-0.134705	0.999762	-0.008506	0.000057	-0.020069	
45440	    0	18.927894	-8.970767	-9.496303	-0.536382	-0.894416	-3.878663	0.187910	-0.093614	-0.093873	0.999798	-0.002682	-0.004472	-0.019392	
45441	    0	12.213177	8.204629	-12.269706	-0.428608	-1.194075	-3.649366	0.124329	0.079529	-0.122131	0.999813	-0.002143	-0.005970	-0.018246	
45442	    0	11.960828	18.919582	-15.867511	-0.631943	-1.122924	-3.573060	0.123847	0.186507	-0.158580	0.999819	-0.003160	-0.005614	-0.017864	
45443	    0	23.841809	8.567173	-11.727309	-1.262555	-0.402858	-3.694390	0.240173	0.080505	-0.117310	0.999807	-0.006312	-0.002014	-0.018471	
45444	    0	27.776424	-10.631636	-9.022581	-1.485536	-0.108535	-3.586804	0.275839	-0.111940	-0.089258	0.999811	-0.007427	-0.000543	-0.017933	
45445	    0	26.863465	-13.736518	-4.571957	-0.523215	-0.276199	-3.587539	0.266174	-0.142273	-0.044983	0.999834	-0.002616	-0.001381	-0.017937	
45446	    0	21.118439	-2.455798	2.033239	0.249494	-0.415442	-3.447516	0.210676	-0.028218	0.020737	0.999848	0.001247	-0.002077	-0.017237	
45447	    0	19.167113	1.690873	6.973077	-0.346198	-0.379197	-3.120552	0.191772	0.014038	0.070068	0.999874	-0.001731	-0.001896	-0.015602	
45448	    0	18.687657	-1.405363	9.280250	-1.240400	-0.084690	-2.897192	0.186613	-0.016182	0.092978	0.999875	-0.006202	-0.000423	-0.014485	
45449	    0	17.030803	-5.626997	9.411546	-1.980683	0.162704	-2.687198	0.169617	-0.057617	0.094543	0.999860	-0.009903	0.000813	-0.013435	
45450	    0	14.020612	-7.207531	8.273671	-2.378965	0.436805	-2.494175	0.139482	-0.072829	0.083295	0.999848	-0.011894	0.002184	-0.012470	
45451	    0	10.024122	-9.242654	7.304726	-2.926616	0.608861	-2.248514	0.099426	-0.092468	0.074097	0.999825	-0.014632	0.003044	-0.011242	
45452	    0	8.050519	-11.988058	4.522538	-3.512243	0.643584	-1.943913	0.079490	-0.119841	0.047073	0.999793	-0.017560	0.003218	-0.009719	
45453	    0	7.663257	-14.862316	1.563440	-3.802769	0.566333	-1.669434	0.075439	-0.148926	0.018250	0.999780	-0.019012	0.002831	-0.008347	
45454	    0	6.836039	-17.232546	-1.271190	-3.574217	0.451689	-1.518346	0.067024	-0.173030	-0.009776	0.999808	-0.017870	0.002258	-0.007591	
45455	    0	4.734384	-17.629444	-2.684157	-2.725135	0.440996	-1.296284	0.046143	-0.176941	-0.024536	0.999884	-0.013625	0.002205	-0.006481	
45456	    0	3.150868	-18.418860	-3.651614	-1.785501	0.526056	-0.927751	0.030560	-0.184649	-0.034950	0.999946	-0.008927	0.002630	-0.004639	
45457	    0	2.537648	-20.534786	-4.260375	-0.380708	0.681498	-0.617984	0.024597	-0.205505	-0.042297	0.999988	-0.001904	0.003407	-0.003090	
45458	    0	1.449195	-22.058100	-4.135132	1.272404	0.710494	-0.383571	0.013919	-0.220339	-0.042804	0.999971	0.006362	0.003552	-0.001918	
45459	    0	-0.404778	-19.370847	-2.623226	2.488205	0.659961	-0.137333	-0.004272	-0.193359	-0.028625	0.999916	0.012441	0.003300	-0.000687	
45460	    0	-0.902067	-13.227490	-0.055118	2.989502	0.449389	0.209435	-0.008886	-0.132257	-0.002508	0.999885	0.014947	0.002247	0.001047	
45461	    0	-0.136986	-5.717407	2.479550	2.611049	0.257881	0.623340	-0.001160	-0.057495	0.024048	0.999908	0.013055	0.001289	0.003117	
45462	    0	1.908403	-0.065486	6.000629	1.424425	0.314335	0.882732	0.019182	-0.000998	0.059970	0.999963	0.007122	0.001572	0.004414	
45463	    0	4.216510	1.587109	8.073264	0.099946	0.535777	1.048285	0.042297	0.016052	0.080627	0.999982	0.000500	0.002679	0.005241	
45464	    0	5.974323	-0.639525	7.271936	-0.636680	0.889788	1.181997	0.060102	-0.005810	0.072472	0.999968	-0.003183	0.004449	0.005910	
45465	    0	7.616253	-3.334872	5.230820	-1.091788	1.268221	1.391629	0.076721	-0.032532	0.052002	0.999940	-0.005459	0.006341	0.006958	
45466	    0	9.489707	-4.598060	0.951934	-1.370086	1.426546	1.654099	0.095339	-0.045130	0.009151	0.999916	-0.006850	0.007133	0.008270	
45467	    0	10.950222	-7.165838	-5.115229	-1.355020	1.091989	1.972255	0.109924	-0.070923	-0.051270	0.999913	-0.006775	0.005460	0.009861	
45468	    0	17.010907	-12.290014	-12.026312	-0.445186	0.647942	2.308712	0.171124	-0.121197	-0.120545	0.999926	-0.002226	0.003240	0.011543	
45469	    0	30.995412	-15.816207	-13.227970	0.924142	0.392164	2.677246	0.311768	-0.153381	-0.133606	0.999897	0.004621	0.001961	0.013386	
45470	    0	39.748385	-13.315047	-8.521119	1.814946	0.760885	3.134334	0.399166	-0.126114	-0.087893	0.999828	0.009074	0.003804	0.015671	
45471	    0	31.129157	-8.085877	-0.498005	2.171675	1.159753	3.386173	0.312561	-0.075500	-0.007629	0.999781	0.010858	0.005798	0.016930	
45472	    0	24.324852	-1.272911	5.389056	1.839020	1.165100	3.766548	0.243745	-0.008628	0.052380	0.999763	0.009194	0.005825	0.018831	
45473	    0	21.756612	4.729971	7.177529	1.173494	0.886796	4.098835	0.216858	0.051331	0.071106	0.999763	0.005867	0.004434	0.020493	
45474	    0	23.276830	10.081158	4.401082	-0.142679	0.619548	3.919859	0.230867	0.105380	0.043220	0.999803	-0.000713	0.003098	0.019598	
45475	    0	24.693649	12.473761	1.121198	-1.458643	0.270098	3.634114	0.244629	0.129272	0.009949	0.999807	-0.007293	0.001350	0.018169	
45476	    0	25.288178	9.478919	0.041849	-2.313977	-0.024416	3.540684	0.251151	0.099242	-0.000682	0.999776	-0.011569	-0.000122	0.017702	
45477	    0	25.860948	1.664148	1.061509	-2.057606	-0.209061	3.616595	0.258240	0.021423	0.010681	0.999783	-0.010287	-0.001045	0.018082	
45478	    0	23.805323	-4.721476	1.538317	-0.916723	-0.228132	3.524785	0.238817	-0.042938	0.015859	0.999833	-0.004583	-0.001141	0.017623	
45479	    0	18.688466	-4.196844	1.199546	0.605037	-0.224886	3.141919	0.187500	-0.039062	0.012085	0.999871	0.003025	-0.001124	0.015709	
45480	    0	14.801960	-2.167522	-1.203225	1.866418	-0.286877	2.521810	0.148293	-0.019694	-0.012010	0.999875	0.009332	-0.001434	0.012609	
45481	    0	13.459974	0.537110	-3.063932	2.848388	-0.314347	1.986032	0.134583	0.007141	-0.030334	0.999847	0.014241	-0.001572	0.009930	
45482	    0	12.978626	3.199728	-3.615456	3.284451	-0.303858	1.685048	0.129561	0.033675	-0.035414	0.999828	0.016421	-0.001519	0.008425	
45483	    0	11.768425	8.238068	-4.022551	2.843025	-0.275433	1.468722	0.117126	0.083801	-0.038879	0.999870	0.014215	-0.001377	0.007343	
45484	    0	8.599255	13.742842	-2.616599	2.690037	-0.373473	1.339391	0.085114	0.138334	-0.024150	0.999885	0.013450	-0.001867	0.006697	
45485	    0	5.134702	15.796347	-3.078523	2.201138	-0.439274	1.104765	0.050537	0.158569	-0.028931	0.999921	0.011005	-0.002196	0.005524	
45486	    0	2.037290	15.950990	-2.998766	1.644351	-0.395400	0.968185	0.019657	0.159845	-0.028635	0.999952	0.008222	-0.001977	0.004841	
45487	    0	-0.001643	15.584091	-3.189396	1.061256	-0.243952	0.732427	-0.000549	0.156006	-0.031067	0.999978	0.005306	-0.001220	0.003662	
45488	    0	-2.315512	14.533189	-3.381105	0.751879	-0.176430	0.501253	-0.023490	0.145399	-0.033285	0.999989	0.003759	-0.000882	0.002506	
45489	    0	-4.228897	13.798362	-4.144987	0.389100	-0.369835	0.299836	-0.042419	0.138000	-0.041260	0.999995	0.001945	-0.001849	0.001499	
45490	    0	-6.104457	16.980550	-7.676090	-0.636294	-0.724414	0.200845	-0.060935	0.169498	-0.077521	0.999988	-0.003181	-0.003622	0.001004	
45491	    0	-7.266202	21.354342	-8.589649	-1.488322	-0.789652	0.180056	-0.072510	0.212830	-0.087769	0.999964	-0.007442	-0.003948	0.000900	
45492	    0	-6.362992	19.165054	-2.174427	-0.693707	-0.953298	-0.015831	-0.063508	0.191578	-0.022712	0.999982	-0.003469	-0.004766	-0.000079	
45493	    0	-5.666210	6.219608	2.096176	0.564010	-1.573200	-0.202181	-0.056763	0.062195	0.020691	0.999964	0.002820	-0.007866	-0.001011	
45494	    0	-4.087507	-6.753269	5.653664	1.320110	-2.020125	-0.647180	-0.041659	-0.067768	0.055672	0.999922	0.006600	-0.010100	-0.003236	
45495	    0	-0.512787	-14.915761	7.565767	0.940921	-2.081356	-1.158174	-0.006775	-0.149475	0.074890	0.999918	0.004704	-0.010406	-0.005791	
45496	    0	4.291538	-13.521143	7.405620	-0.556577	-1.717988	-1.482616	0.041272	-0.135314	0.074792	0.999931	-0.002783	-0.008590	-0.007413	
45497	    0	10.289977	-11.205884	6.614417	0.604257	-1.299115	-1.284047	0.101746	-0.112915	0.066467	0.999953	0.003021	-0.006495	-0.006420	
45498	    0	17.291432	-17.460769	-0.636398	2.998321	-1.910693	-0.319879	0.172702	-0.174779	-0.007333	0.999840	0.014991	-0.009553	-0.001599	
45499	    0	14.485588	-21.458210	-4.154515	1.958518	-1.339567	0.915552	0.146118	-0.213501	-0.042664	0.999919	0.009792	-0.006698	0.004578	
45500	    0	5.204751	-15.698805	-1.833158	-3.225684	-0.285736	1.375079	0.053150	-0.156893	-0.015725	0.999845	-0.016128	-0.001429	0.006875	
45501	    0	-0.357263	-5.030487	1.875016	-5.365508	-0.616537	1.593991	-0.003235	-0.049805	0.020081	0.999603	-0.026824	-0.003082	0.007969	
45502	    0	-0.410618	-8.814479	-0.083807	-4.578490	-1.626755	1.064029	-0.003641	-0.088154	0.001149	0.999690	-0.022890	-0.008133	0.005320	
45503	    0	27.849213	4.341461	15.120149	-0.719264	0.687411	0.080109	0.278992	0.044067	0.150085	0.999987	-0.003596	0.003437	0.000401	
45504	    0	55.006171	-24.316874	1.344434	6.923268	-1.812946	-0.886346	0.548875	-0.245988	0.009940	0.999350	0.034609	-0.009063	-0.004431	
45505	    0	19.427066	-79.572006	-72.200085	-2.276483	-0.430310	1.080352	0.200134	-0.802795	-0.712463	0.999918	-0.011382	-0.002151	0.005402	
45506	    0	27.557605	43.930621	42.585613	1.862406	1.175353	2.077945	0.273532	0.438174	0.428329	0.999885	0.009312	0.005877	0.010389	
45507	    0	-9.118210	61.190214	-9.835243	0.235751	-1.659986	0.308231	-0.091309	0.611877	-0.098389	0.999963	0.001179	-0.008300	0.001541	
45508	    0	-24.182052	66.722096	-15.170419	-0.944333	-0.570300	-0.215913	-0.240661	0.666753	-0.155540	0.999984	-0.004722	-0.002851	-0.001080	
45509	    0	-2.296390	29.116468	-10.561292	-2.784671	-0.240337	-1.896758	-0.020081	0.289856	-0.109680	0.999857	-0.013923	-0.001202	-0.009483	
45510	    0	22.862828	19.033458	-20.457661	-2.954037	-0.015260	-4.121268	0.232459	0.182522	-0.207294	0.999679	-0.014769	-0.000076	-0.020604	
45511	    0	24.237506	-0.953328	-10.340834	-1.954799	-0.005913	-3.792860	0.242126	-0.015137	-0.103271	0.999772	-0.009773	-0.000030	-0.018963	
45512	    0	23.042098	-10.474544	-8.058271	-0.816392	-0.758596	-3.546156	0.228814	-0.109138	-0.079273	0.999826	-0.004082	-0.003793	-0.017730	
45513	    0	13.158121	10.847598	-11.818237	-0.997978	-1.101553	-3.264793	0.133972	0.105713	-0.117981	0.999839	-0.004990	-0.005507	-0.016323	
45514	    0	13.587921	20.988778	-15.265409	-1.039184	-0.878957	-3.475200	0.140162	0.206682	-0.153124	0.999825	-0.005196	-0.004395	-0.017375	
45515	    0	25.113618	5.223498	-13.310391	-1.567941	-0.291271	-3.573073	0.252197	0.046692	-0.133118	0.999808	-0.007839	-0.001456	-0.017864	
45516	    0	29.732567	-11.349482	-11.489646	-1.403701	-0.151452	-3.495805	0.295359	-0.119471	-0.113848	0.999822	-0.007018	-0.000757	-0.017478	
45517	    0	25.618820	-9.265131	-9.013396	-0.564608	-0.206578	-3.677581	0.254517	-0.097595	-0.089600	0.999825	-0.002823	-0.001033	-0.018387	
45518	    0	20.356477	-0.300702	-2.884271	-0.086026	-0.338573	-3.621873	0.203514	-0.006705	-0.028496	0.999834	-0.000430	-0.001693	-0.018108	
45519	    0	20.726347	4.503195	0.963866	-0.684198	-0.263226	-3.252562	0.207947	0.041687	0.009766	0.999861	-0.003421	-0.001316	-0.016262	
45520	    0	20.582497	2.176609	5.166683	-1.613890	-0.117499	-3.099981	0.206103	0.018990	0.051627	0.999846	-0.008069	-0.000587	-0.015499	
45521	    0	19.525525	-0.535955	5.620481	-2.227911	0.132187	-2.966479	0.195190	-0.007629	0.056152	0.999827	-0.011139	0.000661	-0.014832	
45522	    0	15.619352	-4.401902	5.917929	-2.704425	0.349832	-3.017443	0.155618	-0.045567	0.059516	0.999793	-0.013521	0.001749	-0.015086	
45523	    0	11.612305	-7.100384	2.656991	-3.270988	0.377877	-2.956632	0.115112	-0.072266	0.027527	0.999755	-0.016354	0.001889	-0.014782	
45524	    0	9.021239	-10.745767	-1.221422	-3.469183	0.334577	-2.786868	0.088683	-0.108892	-0.010483	0.999751	-0.017344	0.001673	-0.013933	
45525	    0	7.348631	-15.335630	-3.737263	-3.531736	0.229663	-2.556050	0.071472	-0.154907	-0.034729	0.999762	-0.017657	0.001148	-0.012779	
45526	    0	6.108910	-18.883078	-4.377413	-3.128439	0.241295	-2.278661	0.058877	-0.190165	-0.040878	0.999811	-0.015641	0.001206	-0.011393	
45527	    0	5.040046	-21.927900	-2.173419	-2.269829	0.440423	-1.890634	0.048279	-0.219971	-0.019348	0.999888	-0.011349	0.002202	-0.009453	
45528	    0	4.067534	-24.208989	0.237942	-0.881589	0.646028	-1.454373	0.038923	-0.242364	0.003320	0.999958	-0.004408	0.003230	-0.007272	
45529	    0	2.853241	-24.865133	1.202383	0.817306	0.591283	-1.031503	0.027283	-0.248840	0.010925	0.999973	0.004086	0.002956	-0.005157	
45530	    0	1.435809	-23.475552	1.527160	1.977578	0.444802	-0.788895	0.013462	-0.234945	0.012918	0.999940	0.009888	0.002224	-0.003944	
45531	    0	0.077921	-16.799983	2.590880	2.211810	0.361069	-0.471507	0.000427	-0.168274	0.024048	0.999934	0.011059	0.001805	-0.002357	
45532	    0	0.135324	-9.369810	5.813317	1.554507	0.514799	0.049592	0.001525	-0.094146	0.057399	0.999966	0.007772	0.002574	0.000248	
45533	    0	2.343750	-4.683921	8.031178	0.128365	0.687411	0.646975	0.023865	-0.046814	0.080200	0.999989	0.000642	0.003437	0.003235	
45534	    0	4.441540	-3.729427	8.120703	-0.864039	0.880824	1.133169	0.044982	-0.036690	0.081169	0.999965	-0.004320	0.004404	0.005666	
45535	    0	5.886294	-7.118387	7.263596	-1.299312	1.146149	1.342037	0.059753	-0.070312	0.072754	0.999940	-0.006496	0.005731	0.006710	
45536	    0	6.863945	-8.852286	5.338580	-1.262122	1.415285	1.393732	0.069631	-0.087703	0.053451	0.999930	-0.006310	0.007076	0.006968	
45537	    0	7.853506	-8.464201	3.551137	-0.978876	1.629107	1.532783	0.079468	-0.083862	0.035278	0.999925	-0.004894	0.008145	0.007664	
45538	    0	9.143513	-7.424710	2.883803	-0.782034	1.724290	1.695297	0.092305	-0.073356	0.028333	0.999919	-0.003910	0.008621	0.008476	
45539	    0	9.797011	-7.038771	1.184831	-0.807213	1.703120	1.794484	0.098694	-0.069458	0.011292	0.999915	-0.004036	0.008515	0.008972	
45540	    0	9.276482	-7.907322	-3.963725	-0.997572	1.466221	1.917321	0.093226	-0.078380	-0.039927	0.999914	-0.004988	0.007331	0.009586	
45541	    0	11.868686	-11.237335	-11.499504	-0.660530	0.919364	2.085925	0.119324	-0.111511	-0.115173	0.999929	-0.003303	0.004597	0.010429	
