// Start Time: Unknown
// Update Rate: 100.0Hz
// Filter Profile: human (34.3)
// Firmware Version: 2.1.4
PacketCounter	SampleTimeFine	Acc_X	Acc_Y	Acc_Z	Gyr_X	Gyr_Y	Gyr_Z	VelInc_X	VelInc_Y	VelInc_Z	OriInc_q0	OriInc_q1	OriInc_q2	OriInc_q3	
 6677	    0	15.345834	-14.099049	-2.518115	2.644928	-5.310841	0.384578	0.154358	-0.140381	-0.022949	0.999557	0.013223	-0.026550	0.001923	
 6678	    0	10.835411	-25.626606	-22.219130	-1.522483	-1.842544	0.399027	0.110896	-0.257723	-0.219219	0.999927	-0.007612	-0.009212	0.001995	
 6679	    0	6.582207	-16.364105	-7.706576	-5.206921	1.246220	0.160999	0.065491	-0.165527	-0.073181	0.999640	-0.026031	0.006230	0.000805	
 6680	    0	8.139973	-9.307589	-2.961986	-3.457273	1.292114	0.699657	0.081539	-0.093290	-0.028535	0.999824	-0.017285	0.006460	0.003498	
 6681	    0	15.737993	-8.668836	26.588714	0.975261	2.623077	-0.733973	0.160522	-0.088562	0.263367	0.999895	0.004876	0.013115	-0.003670	
 6682	    0	54.762799	-24.650139	-11.087476	3.009579	-1.728152	-1.045094	0.547288	-0.247704	-0.109866	0.999835	0.015047	-0.008640	-0.005225	
 6683	    0	31.818113	-55.427364	-44.668667	-1.253521	-0.665861	0.411228	0.320801	-0.556396	-0.442139	0.999972	-0.006268	-0.003329	0.002056	
 6684	    0	10.795895	48.127326	35.758490	2.245471	-2.884663	1.258547	0.099721	0.477852	0.364441	0.999813	0.011227	-0.014422	0.006292	
 6685	    0	1.139882	53.373844	-14.828565	0.505077	-2.138377	-0.764483	0.015015	0.534058	-0.146790	0.999932	0.002525	-0.010692	-0.003822	
 6686	    0	-8.091513	57.445417	-7.177740	-1.060315	-1.094266	-1.442554	-0.076365	0.574623	-0.075250	0.999945	-0.005301	-0.005471	-0.007213	
 6687	    0	-2.010213	37.278773	-13.617861	-3.041828	-0.193798	-2.205788	-0.015869	0.370850	-0.141846	0.999823	-0.015208	-0.000969	-0.011028	
 6688	    0	20.412912	23.647967	-17.875885	-3.581604	0.584281	-3.375208	0.207513	0.229738	-0.183517	0.999693	-0.017906	0.002921	-0.016874	
 6689	    0	26.246830	2.875159	-11.950281	-2.744538	0.073439	-3.722713	0.262878	0.022217	-0.119934	0.999732	-0.013721	0.000367	-0.018612	
 6690	    0	15.289265	-14.079499	-13.983748	-2.379413	-0.766051	-3.542987	0.150877	-0.145125	-0.137547	0.999764	-0.011896	-0.003830	-0.017714	
 6691	    0	9.703420	2.510359	-15.731816	-1.375666	-1.137423	-3.441072	0.098328	0.022339	-0.156921	0.999812	-0.006878	-0.005687	-0.017204	
 6692	    0	16.335997	10.079396	-14.597939	-1.244812	-0.694889	-3.548457	0.165610	0.096960	-0.146018	0.999817	-0.006224	-0.003474	-0.017741	
 6693	    0	23.398552	-4.120576	-13.622421	-1.693649	-0.505863	-3.608183	0.233521	-0.046570	-0.135254	0.999798	-0.008468	-0.002529	-0.018040	
 6694	    0	25.111217	-12.751574	-10.571784	-0.950300	-0.446729	-3.728527	0.248905	-0.132668	-0.104538	0.999812	-0.004751	-0.002234	-0.018641	
 6695	    0	23.164388	-9.899109	-4.690296	-0.021364	-0.544583	-3.869875	0.229797	-0.103455	-0.046265	0.999808	-0.000107	-0.002723	-0.019348	
 6696	    0	20.657933	-3.473988	0.732710	0.146684	-0.470762	-3.776397	0.205856	-0.038637	0.007785	0.999818	0.000733	-0.002354	-0.018881	
 6697	    0	21.335267	-3.663926	5.630362	-0.498225	-0.340098	-3.441795	0.212585	-0.040161	0.056763	0.999846	-0.002491	-0.001700	-0.017208	
 6698	    0	22.643946	-7.806947	7.774733	-1.174222	-0.220119	-3.240746	0.225054	-0.081264	0.078466	0.999850	-0.005871	-0.001101	-0.016203	
 6699	    0	19.569294	-8.083401	8.679811	-1.631820	-0.055697	-3.087773	0.194397	-0.083130	0.087524	0.999847	-0.008159	-0.000278	-0.015438	
 6700	    0	15.018579	-8.001501	8.164490	-2.432198	0.181590	-2.765431	0.149144	-0.081082	0.082491	0.999829	-0.012160	0.000908	-0.013826	
 6701	    0	11.485335	-8.627226	5.293182	-3.313493	0.400572	-2.469049	0.113892	-0.086792	0.054138	0.999784	-0.016566	0.002003	-0.012344	
 6702	    0	8.234082	-12.401947	1.835088	-4.097742	0.470777	-2.229704	0.081001	-0.124519	0.020707	0.999724	-0.020487	0.002354	-0.011147	
 6703	    0	5.253485	-17.700961	-0.415976	-4.568764	0.293762	-1.974692	0.050781	-0.177551	-0.000183	0.999689	-0.022841	0.001469	-0.009872	
 6704	    0	4.835714	-23.713844	-0.578202	-4.434807	0.137342	-1.620634	0.046432	-0.237571	-0.000549	0.999721	-0.022172	0.000687	-0.008102	
 6705	    0	6.604071	-24.453176	-1.003312	-3.115998	0.026132	-1.445078	0.064270	-0.245117	-0.006226	0.999852	-0.015579	0.000131	-0.007225	
 6706	    0	7.441859	-26.723373	-2.914709	-1.707485	0.126268	-0.879683	0.073224	-0.267794	-0.026909	0.999953	-0.008537	0.000631	-0.004398	
 6707	    0	6.014570	-22.732889	-3.438877	0.763706	0.480845	-0.539401	0.059448	-0.227356	-0.035400	0.999986	0.003819	0.002404	-0.002697	
 6708	    0	2.733705	-19.217901	-0.712559	3.157563	0.653296	-0.352875	0.026968	-0.192081	-0.010247	0.999868	0.015787	0.003266	-0.001764	
 6709	    0	0.734915	-16.675133	3.448688	4.136387	0.621078	-0.076300	0.007385	-0.167419	0.031006	0.999781	0.020680	0.003105	-0.000381	
 6710	    0	-0.251169	-14.843456	6.821996	3.420240	0.636896	0.179681	-0.002166	-0.149574	0.065676	0.999847	0.017100	0.003184	0.000898	
 6711	    0	-0.156139	-7.532649	6.919622	1.739721	0.797285	0.498208	-0.001099	-0.075928	0.068542	0.999950	0.008698	0.003986	0.002491	
 6712	    0	2.149316	1.689677	7.775491	0.086976	1.043140	1.159298	0.021800	0.016989	0.077649	0.999969	0.000435	0.005216	0.005796	
 6713	    0	6.493357	2.330472	9.053213	-1.183922	1.300845	1.766251	0.065308	0.024414	0.089966	0.999922	-0.005919	0.006504	0.008831	
 6714	    0	9.164075	-2.650234	11.130447	-1.724885	1.676818	1.982006	0.092821	-0.024630	0.110747	0.999878	-0.008624	0.008384	0.009910	
 6715	    0	9.590956	-5.338843	10.715921	-1.429806	1.991543	1.915055	0.097473	-0.051697	0.106567	0.999879	-0.007149	0.009957	0.009575	
 6716	    0	8.831944	-5.926093	3.769994	-1.307543	2.039042	2.061168	0.089303	-0.058100	0.037175	0.999873	-0.006537	0.010195	0.010305	
 6717	    0	13.109924	-6.288430	-5.426916	-1.428288	1.684076	2.481956	0.131409	-0.061646	-0.054932	0.999862	-0.007141	0.008420	0.012409	
 6718	    0	27.499690	-9.978127	-14.038321	-0.699843	1.481898	3.171708	0.275490	-0.095910	-0.142083	0.999840	-0.003499	0.007409	0.015858	
 6719	    0	40.337500	-10.119805	-14.511744	0.490789	1.527493	3.359416	0.403870	-0.094055	-0.148438	0.999826	0.002454	0.007637	0.016796	
 6720	    0	37.357247	-9.584998	-8.922634	1.613741	2.012216	3.429867	0.374207	-0.088692	-0.093724	0.999769	0.008068	0.010060	0.017148	
 6721	    0	25.079314	-10.615558	-3.115982	2.404264	2.047363	3.761670	0.252380	-0.101013	-0.034973	0.999698	0.012020	0.010236	0.018806	
 6722	    0	21.769376	-4.080967	-2.280258	2.278376	1.769442	4.107907	0.218251	-0.036053	-0.025161	0.999684	0.011391	0.008846	0.020537	
 6723	    0	24.475569	3.768720	-1.517996	1.841150	1.425499	4.205727	0.243774	0.042969	-0.016541	0.999711	0.009205	0.007127	0.021027	
 6724	    0	26.346938	6.895036	-2.331269	1.427777	0.982753	4.270169	0.261798	0.074722	-0.024082	0.999734	0.007138	0.004913	0.021349	
 6725	    0	30.149064	8.801337	-5.954146	0.461805	0.486793	4.259821	0.299377	0.094543	-0.060059	0.999767	0.002309	0.002434	0.021297	
 6726	    0	34.554863	10.686391	-7.639133	-0.160039	0.248546	4.250085	0.343080	0.114111	-0.076908	0.999773	-0.000800	0.001243	0.021249	
 6727	    0	32.183321	5.683760	-6.362929	-0.026705	0.242063	4.485698	0.320374	0.064026	-0.064026	0.999747	-0.000134	0.001210	0.022427	
 6728	    0	25.956530	0.779178	-4.487883	0.970927	0.297382	4.506703	0.259232	0.013855	-0.045207	0.999733	0.004854	0.001487	0.022532	
 6729	    0	18.105851	4.578742	-4.320886	1.920695	0.252557	4.403348	0.179932	0.050171	-0.042969	0.999710	0.009603	0.001263	0.022015	
 6730	    0	13.047832	7.709105	-4.008841	3.162914	0.069244	3.968092	0.128893	0.080280	-0.038880	0.999678	0.015813	0.000346	0.019838	
 6731	    0	11.581132	8.326655	-4.263356	3.792397	-0.115216	3.278694	0.114441	0.085938	-0.040955	0.999685	0.018960	-0.000576	0.016392	
 6732	    0	11.946838	9.946064	-4.298517	3.919010	-0.175492	2.606824	0.118188	0.101822	-0.040901	0.999722	0.019593	-0.000877	0.013033	
 6733	    0	12.922333	12.353765	-4.654182	3.761761	-0.099189	1.911305	0.128052	0.125610	-0.044128	0.999777	0.018807	-0.000496	0.009556	
 6734	    0	11.420267	16.888165	-5.860868	3.157959	-0.009156	1.289239	0.113110	0.170510	-0.055920	0.999854	0.015789	-0.000046	0.006446	
 6735	    0	5.685298	22.569231	-7.354219	1.729614	0.032998	1.094074	0.055603	0.226624	-0.071594	0.999948	0.008648	0.000165	0.005470	
 6736	    0	-0.579632	27.188139	-6.964776	0.297739	0.349810	1.025396	-0.007312	0.271950	-0.069231	0.999984	0.001489	0.001749	0.005127	
 6737	    0	-3.750402	30.700364	-2.707183	-0.692752	0.629619	0.441744	-0.038269	0.306824	-0.028015	0.999986	-0.003464	0.003148	0.002209	
 6738	    0	-6.143793	28.904341	0.103184	-1.317416	0.142480	-0.197603	-0.061152	0.289103	-0.000829	0.999977	-0.006587	0.000712	-0.000988	
 6739	    0	-8.808094	23.700256	-3.305351	-2.654351	-0.690291	-0.366986	-0.087524	0.236694	-0.036499	0.999904	-0.013271	-0.003451	-0.001835	
 6740	    0	-9.740661	18.229505	-6.011010	-3.014314	-1.101732	-0.330939	-0.096763	0.181517	-0.063384	0.999869	-0.015071	-0.005508	-0.001655	
 6741	    0	-8.183910	9.459398	-2.862378	-1.890412	-1.105522	-0.410470	-0.081482	0.094482	-0.029968	0.999937	-0.009452	-0.005527	-0.002052	
 6742	    0	-6.219677	-3.243886	4.387621	0.084687	-0.798420	-0.791745	-0.062499	-0.032210	0.043613	0.999984	0.000423	-0.003992	-0.003959	
 6743	    0	-3.836114	-12.499034	7.391883	1.476510	-0.917836	-1.461823	-0.039612	-0.125244	0.072815	0.999935	0.007382	-0.004589	-0.007309	
 6744	    0	-2.474155	-13.422138	6.494644	1.737464	-1.502661	-1.732314	-0.026387	-0.134554	0.063584	0.999896	0.008687	-0.007513	-0.008661	
 6745	    0	0.178000	-10.733996	4.491729	2.275966	-2.117838	-1.644982	0.000427	-0.107849	0.043701	0.999845	0.011379	-0.010589	-0.008224	
 6746	    0	5.484995	-4.523605	6.959888	2.648915	-2.772901	-1.262941	0.053593	-0.046500	0.069737	0.999796	0.013244	-0.013864	-0.006314	
 6747	    0	16.628041	-4.828555	5.134150	3.967062	-4.111850	-0.123613	0.165161	-0.049438	0.053772	0.999591	0.019833	-0.020556	-0.000618	
 6748	    0	22.440419	-12.665382	-13.477605	1.443597	-4.066984	0.775209	0.227581	-0.124821	-0.131075	0.999760	0.007217	-0.020333	0.003876	
 6749	    0	8.765131	-11.767481	-11.696869	-4.580928	-0.924006	0.842364	0.088684	-0.119934	-0.113831	0.999718	-0.022902	-0.004620	0.004211	
 6750	    0	1.690989	-7.076454	-1.805123	-7.075855	0.599034	0.646919	0.017091	-0.071290	-0.015586	0.999364	-0.035372	0.002995	0.003234	
 6751	    0	2.244843	-7.683990	-8.668323	-5.402288	0.237495	0.914116	0.022705	-0.079041	-0.084595	0.999623	-0.027008	0.001187	0.004570	
 6752	    0	11.421840	-16.717720	12.137965	-1.158379	2.850073	-0.060275	0.115891	-0.166512	0.120702	0.999881	-0.005792	0.014250	-0.000301	
 6753	    0	49.136025	-18.477883	5.480512	4.396485	1.022629	-1.728226	0.489990	-0.190125	0.048157	0.999707	0.021980	0.005113	-0.008640	
 6754	    0	40.088286	-73.492272	-47.132877	0.536168	-2.092980	0.803393	0.408744	-0.732032	-0.469044	0.999933	0.002681	-0.010465	0.004017	
 6755	    0	9.917616	28.834304	22.227007	0.931762	-1.935623	0.992607	0.095581	0.287781	0.224548	0.999929	0.004659	-0.009678	0.004963	
 6756	    0	-0.386122	61.750804	-14.733151	2.008176	-3.163145	0.512726	-0.003181	0.618937	-0.141175	0.999821	0.010040	-0.015815	0.002563	
 6757	    0	-11.268829	64.908196	-12.606549	-1.019110	-1.147476	-0.906384	-0.109009	0.648926	-0.130005	0.999960	-0.005095	-0.005737	-0.004532	
 6758	    0	-7.736014	43.045425	-11.557360	-2.119315	-0.433171	-1.458209	-0.073968	0.429744	-0.120293	0.999914	-0.010596	-0.002166	-0.007291	
 6759	    0	11.963533	21.342580	-19.608788	-3.053393	0.680609	-3.719696	0.122864	0.208130	-0.199707	0.999704	-0.015265	0.003403	-0.018597	
 6760	    0	30.376116	3.407189	-7.269871	-1.893774	0.287843	-4.051929	0.304254	0.027218	-0.073416	0.999748	-0.009468	0.001439	-0.020258	
 6761	    0	29.761076	-18.444565	-9.229358	-1.367837	-0.910238	-3.296848	0.294922	-0.189941	-0.089661	0.999830	-0.006839	-0.004551	-0.016483	
 6762	    0	8.156297	4.591104	-9.800383	-0.700611	-1.790918	-3.285797	0.083173	0.044211	-0.097421	0.999819	-0.003503	-0.008954	-0.016428	
 6763	    0	10.685900	18.912036	-12.789571	-0.784918	-1.171178	-3.380774	0.110779	0.186768	-0.127991	0.999832	-0.003924	-0.005856	-0.016903	
 6764	    0	23.811854	8.094565	-14.068162	-2.176620	-0.683639	-3.274372	0.239865	0.075497	-0.140705	0.999801	-0.010882	-0.003418	-0.016371	
 6765	    0	25.210063	-7.709795	-15.019800	-2.471918	-0.359371	-3.428907	0.250977	-0.083252	-0.148743	0.999775	-0.012359	-0.001797	-0.017143	
 6766	    0	23.743332	-11.834476	-10.023230	-1.537047	-0.464281	-3.735609	0.235389	-0.123517	-0.098748	0.999793	-0.007685	-0.002321	-0.018677	
 6767	    0	23.817384	-10.233441	-6.274478	-0.622598	-0.547635	-3.821807	0.236328	-0.107056	-0.061768	0.999808	-0.003113	-0.002738	-0.019108	
 6768	    0	22.561862	-5.940956	-0.715472	-0.388168	-0.503570	-3.695514	0.224486	-0.063578	-0.006468	0.999824	-0.001941	-0.002518	-0.018476	
 6769	    0	23.287491	-7.164217	2.458849	-0.608859	-0.391219	-3.550151	0.231506	-0.075684	0.025269	0.999835	-0.003044	-0.001956	-0.017750	
 6770	    0	23.647781	-7.902930	5.559418	-0.634417	-0.220882	-3.474417	0.234998	-0.082943	0.056113	0.999843	-0.003172	-0.001104	-0.017371	
 6771	    0	18.948611	-8.454787	7.178614	-0.871131	-0.044253	-3.426540	0.187988	-0.087463	0.072205	0.999844	-0.004355	-0.000221	-0.017132	
 6772	    0	14.854285	-7.301320	6.564112	-1.473692	0.041773	-3.157012	0.147385	-0.074860	0.066157	0.999847	-0.007368	0.000209	-0.015784	
 6773	    0	12.212410	-7.905889	4.342110	-2.278834	0.132759	-2.806244	0.121033	-0.080261	0.044250	0.999836	-0.011394	0.000664	-0.014030	
 6774	    0	9.100080	-9.156103	1.230952	-3.096981	0.149165	-2.570517	0.089826	-0.092516	0.013670	0.999797	-0.015484	0.000746	-0.012852	
 6775	    0	7.124634	-11.984720	0.260511	-3.646184	0.109872	-2.366825	0.069824	-0.120605	0.004761	0.999763	-0.018229	0.000549	-0.011833	
 6776	    0	7.392851	-18.237374	1.543494	-3.777800	0.109872	-2.121519	0.072001	-0.182810	0.018846	0.999764	-0.018888	0.000549	-0.010607	
 6777	    0	7.663625	-22.725738	2.990330	-3.479043	0.119789	-1.928838	0.074463	-0.227417	0.033813	0.999802	-0.017394	0.000599	-0.009644	
 6778	    0	6.134517	-23.886759	1.905820	-2.406589	0.130658	-1.695885	0.059332	-0.239124	0.021895	0.999891	-0.012033	0.000653	-0.008479	
 6779	    0	4.035045	-24.962235	0.988343	-0.596432	0.350955	-1.143655	0.038940	-0.249817	0.010559	0.999977	-0.002982	0.001755	-0.005718	
 6780	    0	0.673037	-23.438578	1.452783	1.742963	0.428207	-0.757992	0.005870	-0.234524	0.012471	0.999952	0.008715	0.002141	-0.003790	
 6781	    0	-2.264627	-21.059606	2.421793	2.925981	0.393882	-0.386825	-0.023010	-0.210876	0.021179	0.999888	0.014629	0.001969	-0.001934	
 6782	    0	-1.770996	-17.712773	3.778742	2.381383	0.478566	0.060083	-0.017570	-0.177567	0.035717	0.999926	0.011907	0.002393	0.000300	
 6783	    0	0.529477	-11.086808	3.673434	0.936896	0.738721	0.555424	0.005737	-0.111023	0.036194	0.999978	0.004684	0.003694	0.002777	
 6784	    0	3.425621	-5.269191	5.072555	-0.329594	1.124395	1.210418	0.034859	-0.052399	0.050617	0.999964	-0.001648	0.005622	0.006052	
 6785	    0	5.384348	-6.212758	7.672886	-0.669876	1.455913	1.721231	0.054932	-0.061401	0.076538	0.999930	-0.003349	0.007279	0.008606	
 6786	    0	4.961864	-9.502118	9.824536	-0.446522	1.635975	1.824426	0.051284	-0.094339	0.098042	0.999922	-0.002233	0.008180	0.009122	
 6787	    0	5.429896	-7.453883	7.012946	-0.295075	1.724291	1.892905	0.055603	-0.073914	0.069763	0.999916	-0.001475	0.008621	0.009464	
 6788	    0	8.152343	-3.643958	1.063483	-0.384153	1.756155	2.190854	0.082006	-0.035523	0.009985	0.999899	-0.001921	0.008780	0.010954	
 6789	    0	15.583515	-2.856038	-6.378143	-0.746186	1.542156	2.655140	0.155701	-0.026733	-0.064880	0.999875	-0.003731	0.007710	0.013275	
 6790	    0	29.627657	-5.446870	-11.712796	-0.356503	1.499068	3.295126	0.296234	-0.049799	-0.119257	0.999834	-0.001782	0.007495	0.016475	
 6791	    0	39.603098	-6.384238	-10.350060	0.457030	1.665029	3.483038	0.396179	-0.056702	-0.106934	0.999810	0.002285	0.008325	0.017414	
 6792	    0	32.956202	-9.398107	-4.143498	1.331426	1.909586	3.475061	0.330706	-0.087949	-0.045188	0.999781	0.006657	0.009547	0.017374	
 6793	    0	21.039269	-12.692853	0.102639	1.924480	1.797631	3.539563	0.212585	-0.123169	-0.002075	0.999756	0.009622	0.008987	0.017696	
 6794	    0	20.840175	-3.973773	-0.685380	1.871837	1.592196	3.729749	0.209028	-0.035767	-0.008863	0.999750	0.009358	0.007960	0.018647	
 6795	    0	24.521580	4.792623	-0.747811	1.622147	1.362153	3.977540	0.244141	0.052856	-0.008728	0.999745	0.008110	0.006810	0.019886	
 6796	    0	27.822368	6.667453	-1.869781	1.264290	0.983316	4.042562	0.276704	0.072400	-0.019615	0.999763	0.006321	0.004916	0.020211	
 6797	    0	30.581796	7.253000	-5.510963	0.278492	0.554122	3.982050	0.304138	0.078674	-0.055847	0.999797	0.001392	0.002770	0.019909	
 6798	    0	33.502787	7.777186	-7.592125	-0.240533	0.424032	4.008947	0.333219	0.084372	-0.076728	0.999796	-0.001203	0.002120	0.020043	
 6799	    0	31.498871	4.306763	-6.016393	-0.134287	0.495375	4.197243	0.313843	0.049622	-0.060974	0.999776	-0.000671	0.002477	0.020985	
 6800	    0	25.439639	0.710433	-3.263155	0.612116	0.429187	4.285578	0.254094	0.012652	-0.033144	0.999763	0.003060	0.002146	0.021426	
 6801	    0	18.246849	1.994230	-3.422531	1.706845	0.229856	4.254524	0.181946	0.024109	-0.034241	0.999736	0.008533	0.001149	0.021271	
 6802	    0	14.151390	5.144673	-4.662896	2.504968	0.097284	4.061894	0.140400	0.054885	-0.046024	0.999715	0.012524	0.000486	0.020308	
 6803	    0	13.836375	6.947657	-4.784969	3.101070	-0.068671	3.615912	0.137085	0.072693	-0.046692	0.999716	0.015504	-0.000343	0.018078	
 6804	    0	14.499501	9.347687	-5.519573	3.266797	-0.371773	3.020156	0.143653	0.096535	-0.053368	0.999750	0.016333	-0.001859	0.015100	
 6805	    0	13.839706	13.257338	-6.540287	2.806256	-0.594174	2.418660	0.136963	0.135132	-0.063110	0.999824	0.014030	-0.002971	0.012093	
 6806	    0	11.864300	15.097099	-5.360655	2.801461	-0.607139	1.906680	0.117350	0.152822	-0.051117	0.999851	0.014007	-0.003036	0.009533	
 6807	    0	8.686725	15.338924	-6.222395	2.488038	-0.710895	1.484735	0.085938	0.154785	-0.059998	0.999888	0.012440	-0.003554	0.007423	
 6808	    0	3.555258	18.163362	-8.533253	0.981534	-0.593765	1.308648	0.034613	0.182278	-0.084335	0.999962	0.004908	-0.002969	0.006543	
 6809	    0	-3.336335	20.802404	-7.904625	-0.482946	-0.244715	1.467148	-0.034790	0.207581	-0.079590	0.999969	-0.002415	-0.001224	0.007336	
 6810	    0	-8.134804	24.241969	-2.966442	-1.083766	-0.005722	1.085483	-0.082661	0.241808	-0.030978	0.999970	-0.005419	-0.000029	0.005427	
 6811	    0	-11.338143	27.583015	1.060904	-0.856594	-0.479891	0.308992	-0.113831	0.275696	0.009155	0.999987	-0.004283	-0.002399	0.001545	
 6812	    0	-13.783534	28.054485	-2.436215	-1.502251	-1.169032	-0.160220	-0.137457	0.280457	-0.027273	0.999954	-0.007511	-0.005845	-0.000801	
 6813	    0	-14.007901	23.260606	-5.401836	-1.892711	-1.568644	-0.411235	-0.139160	0.232361	-0.057312	0.999922	-0.009463	-0.007843	-0.002056	
 6814	    0	-11.613273	15.228798	-4.510589	-1.271652	-1.530293	-0.560008	-0.115352	0.152317	-0.046959	0.999947	-0.006358	-0.007651	-0.002800	
 6815	    0	-6.480124	3.612506	0.563967	-0.343135	-1.203166	-0.749976	-0.064697	0.036377	0.005188	0.999973	-0.001716	-0.006016	-0.003750	
 6816	    0	-0.541559	-4.793462	6.385928	0.498398	-1.417944	-1.121728	-0.006137	-0.048060	0.063698	0.999955	0.002492	-0.007090	-0.005609	
 6817	    0	4.745439	-8.176338	7.568606	0.012398	-2.109584	-1.393165	0.046082	-0.082092	0.076172	0.999920	0.000062	-0.010548	-0.006966	
 6818	    0	11.879629	-7.352504	8.477748	0.135046	-2.911509	-1.545213	0.116973	-0.074492	0.086439	0.999864	0.000675	-0.014557	-0.007726	
 6819	    0	14.897867	-6.763129	12.971020	2.076139	-4.028481	-0.631769	0.146118	-0.069458	0.131958	0.999738	0.010380	-0.020141	-0.003159	
 6820	    0	11.826732	-25.069686	-8.602717	2.112892	-5.523545	0.729478	0.121542	-0.249353	-0.085340	0.999556	0.010563	-0.027614	0.003647	
 6821	    0	11.996752	-30.085690	-26.274311	-2.921219	-0.828585	0.436418	0.121704	-0.304382	-0.257812	0.999882	-0.014606	-0.004143	0.002182	
 6822	    0	8.232036	-16.303727	-7.491491	-5.023416	1.878583	0.316849	0.081898	-0.164733	-0.071562	0.999639	-0.025114	0.009392	0.001584	
 6823	    0	8.242875	-9.031060	17.214021	-3.031156	2.375178	0.268571	0.084595	-0.087585	0.172485	0.999813	-0.015155	0.011875	0.001343	
 6824	    0	36.717071	0.545303	20.676468	2.915894	0.961347	-1.133779	0.368171	0.000370	0.205027	0.999866	0.014579	0.004807	-0.005669	
 6825	    0	46.760705	-57.298063	-43.184598	-0.808558	-2.952695	0.591302	0.475586	-0.573303	-0.422546	0.999878	-0.004043	-0.014763	0.002956	
 6826	    0	15.446919	5.053829	4.850119	-0.087548	0.530817	0.640490	0.154434	0.051054	0.048069	0.999990	-0.000438	0.002654	0.003202	
 6827	    0	8.722717	41.582518	-2.903724	1.362892	-3.707372	0.734760	0.086182	0.416321	-0.024597	0.999798	0.006814	-0.018536	0.003674	
 6828	    0	1.114616	54.884475	-5.359466	-0.139238	-1.104559	-1.319329	0.015063	0.548717	-0.053901	0.999962	-0.000696	-0.005523	-0.006597	
 6829	    0	-5.364276	45.777428	-7.669201	-1.157971	-0.729383	-1.498439	-0.049927	0.457703	-0.079529	0.999949	-0.005790	-0.003647	-0.007492	
 6830	    0	11.166833	31.568188	-14.208386	-2.828963	0.186741	-2.600067	0.115606	0.312143	-0.146623	0.999815	-0.014144	0.000934	-0.013000	
 6831	    0	24.841224	18.250057	-11.644237	-2.610209	0.145923	-3.307587	0.251282	0.176819	-0.118958	0.999778	-0.013050	0.000730	-0.016537	
 6832	    0	18.982836	-2.406498	-11.189227	-2.269139	-0.423270	-3.356784	0.189610	-0.028513	-0.111184	0.999792	-0.011345	-0.002116	-0.016783	
 6833	    0	12.839243	-0.942172	-15.387632	-2.315677	-0.838336	-3.180146	0.128845	-0.013245	-0.153198	0.999797	-0.011578	-0.004191	-0.015900	
 6834	    0	14.827893	10.387221	-14.725633	-1.822200	-0.669710	-3.269393	0.150430	0.100080	-0.147678	0.999819	-0.009110	-0.003348	-0.016346	
 6835	    0	21.187194	2.533085	-13.980363	-2.265337	-0.378256	-3.570062	0.212524	0.019958	-0.139648	0.999774	-0.011326	-0.001891	-0.017849	
 6836	    0	25.696966	-10.455046	-12.642354	-1.928276	-0.347544	-3.641388	0.255213	-0.110417	-0.124933	0.999785	-0.009641	-0.001738	-0.018206	
 6837	    0	24.711331	-13.760888	-8.346194	-1.117588	-0.424222	-3.772219	0.244629	-0.142700	-0.082153	0.999804	-0.005588	-0.002121	-0.018860	
 6838	    0	23.437263	-8.393379	-4.817401	-0.490791	-0.348494	-3.793759	0.232806	-0.088477	-0.047554	0.999815	-0.002454	-0.001742	-0.018968	
 6839	    0	21.343039	-4.069805	1.284783	-0.486019	-0.102049	-3.595931	0.212646	-0.044495	0.013062	0.999835	-0.002430	-0.000510	-0.017979	
 6840	    0	21.248474	-5.726939	5.094956	-1.030973	0.081639	-3.294155	0.211527	-0.060495	0.051169	0.999850	-0.005155	0.000408	-0.016470	
 6841	    0	20.774177	-8.589798	7.752350	-1.493909	0.228321	-3.077849	0.206482	-0.088501	0.077942	0.999852	-0.007469	0.001142	-0.015388	
 6842	    0	15.905769	-8.383872	7.880526	-2.093241	0.399421	-2.966855	0.157957	-0.085359	0.079377	0.999833	-0.010466	0.001997	-0.014833	
 6843	    0	10.722162	-8.162438	6.997660	-2.903750	0.569954	-2.684963	0.106323	-0.082031	0.070862	0.999800	-0.014518	0.002850	-0.013424	
 6844	    0	7.450754	-9.974164	3.368970	-3.779919	0.488131	-2.369507	0.073409	-0.099957	0.035398	0.999748	-0.018898	0.002440	-0.011847	
 6845	    0	6.085531	-14.402625	-0.733311	-4.586517	0.236727	-2.107463	0.059326	-0.144775	-0.004089	0.999681	-0.022930	0.001184	-0.010536	
 6846	    0	6.541581	-21.430303	-2.677978	-4.894628	-0.025752	-1.896313	0.063379	-0.215480	-0.021507	0.999655	-0.024470	-0.000129	-0.009480	
 6847	    0	7.380593	-25.783332	-2.782992	-4.128612	-0.084503	-1.765590	0.071533	-0.258972	-0.022461	0.999747	-0.020641	-0.000422	-0.008827	
 6848	    0	6.457954	-27.906879	-4.416868	-2.146397	0.117114	-1.344717	0.062675	-0.279947	-0.041204	0.999919	-0.010732	0.000586	-0.006723	
 6849	    0	4.587054	-25.211607	-2.880647	0.377657	0.604442	-0.875859	0.044678	-0.252258	-0.029419	0.999984	0.001888	0.003022	-0.004379	
 6850	    0	0.659209	-21.074541	0.297487	3.179884	0.598744	-0.562502	0.006001	-0.210774	-0.000395	0.999865	0.015899	0.002994	-0.002812	
 6851	    0	-1.291084	-19.459548	3.153170	4.259817	0.405343	-0.276968	-0.013123	-0.195190	0.027405	0.999770	0.021297	0.002027	-0.001385	
 6852	    0	-1.044187	-16.203196	4.948041	3.486049	0.417159	0.001144	-0.010342	-0.162862	0.046668	0.999846	0.017429	0.002086	0.000006	
 6853	    0	0.627367	-9.528801	6.293634	1.760891	0.657855	0.363928	0.006653	-0.095825	0.062073	0.999953	0.008804	0.003289	0.001820	
 6854	    0	3.754747	-2.259223	6.227200	0.327685	0.944146	1.076136	0.037962	-0.022491	0.062057	0.999972	0.001638	0.004721	0.005381	
 6855	    0	6.084145	-1.137974	9.021659	-0.566875	1.317050	1.646456	0.061523	-0.010620	0.089844	0.999940	-0.002834	0.006585	0.008232	
 6856	    0	6.819271	-4.007851	11.873903	-1.160467	1.665739	1.828441	0.069538	-0.038759	0.118391	0.999907	-0.005802	0.008328	0.009142	
 6857	    0	7.437853	-5.641092	10.637956	-1.038207	1.885290	1.976846	0.075928	-0.055115	0.105957	0.999893	-0.005191	0.009426	0.009884	
 6858	    0	8.158404	-6.026052	6.538432	-0.944368	2.032365	2.233789	0.082909	-0.059032	0.064827	0.999874	-0.004722	0.010161	0.011168	
 6859	    0	10.502519	-5.593654	-0.352067	-1.353521	2.017502	2.420163	0.105652	-0.054688	-0.004211	0.999852	-0.006767	0.010087	0.012100	
 6860	    0	17.602870	-7.171038	-8.937040	-1.332923	1.619230	2.783916	0.176281	-0.069858	-0.090327	0.999847	-0.006664	0.008096	0.013919	
 6861	    0	31.194223	-11.147961	-14.640908	-0.479150	1.465109	3.137367	0.312561	-0.106934	-0.148438	0.999846	-0.002396	0.007325	0.015686	
 6862	    0	37.034371	-11.227824	-13.848168	0.830885	1.497347	3.105899	0.370969	-0.105936	-0.141706	0.999843	0.004154	0.007486	0.015529	
 6863	    0	30.215341	-14.370495	-8.925269	2.279270	1.715223	3.272504	0.303650	-0.137695	-0.093445	0.999763	0.011395	0.008575	0.016361	
 6864	    0	22.207270	-11.891031	-4.898025	3.108549	1.685323	3.641329	0.223745	-0.114047	-0.052659	0.999678	0.015541	0.008426	0.018205	
 6865	    0	22.872878	-2.905434	-3.810080	3.331587	1.481044	3.959371	0.228943	-0.023865	-0.040222	0.999638	0.016656	0.007404	0.019794	
 6866	    0	26.168042	3.729870	-3.354834	3.382905	1.192620	4.055900	0.260641	0.043169	-0.034408	0.999633	0.016912	0.005962	0.020277	
 6867	    0	28.981807	7.729935	-4.457673	2.804862	0.779234	4.114968	0.287964	0.083862	-0.044556	0.999682	0.014023	0.003896	0.020573	
 6868	    0	33.950262	11.285915	-7.571414	1.690819	0.443878	4.185463	0.336865	0.120566	-0.075466	0.999743	0.008453	0.002219	0.020926	
 6869	    0	33.819679	10.766313	-7.320504	0.862961	0.348122	4.530738	0.335510	0.115601	-0.073303	0.999732	0.004314	0.001740	0.022652	
 6870	    0	29.307805	5.123635	-6.735168	0.486228	0.393141	4.674963	0.291638	0.058229	-0.067790	0.999722	0.002431	0.001966	0.023373	
 6871	    0	22.989071	3.629905	-5.033633	1.134783	0.479169	4.450621	0.228882	0.041687	-0.050659	0.999733	0.005673	0.002396	0.022251	
 6872	    0	16.419620	5.973920	-4.500624	1.841705	0.365480	4.153802	0.162821	0.063543	-0.044731	0.999740	0.009208	0.001827	0.020767	
 6873	    0	12.655865	8.466456	-4.052747	2.553007	0.203912	3.649442	0.124939	0.087463	-0.039551	0.999751	0.012764	0.001019	0.018246	
 6874	    0	12.372998	9.919725	-3.564809	2.832803	0.087935	2.976627	0.122215	0.101516	-0.034275	0.999788	0.014163	0.000440	0.014882	
 6875	    0	13.589819	11.708921	-3.509578	2.906389	0.016786	2.217226	0.134583	0.119080	-0.033386	0.999832	0.014531	0.000084	0.011086	
 6876	    0	14.302608	14.882960	-4.771269	2.640442	0.001526	1.445634	0.141942	0.150471	-0.045734	0.999887	0.013202	0.000008	0.007228	
 6877	    0	10.364442	19.921131	-5.673992	2.082872	0.058175	1.028466	0.102600	0.200317	-0.054688	0.999932	0.010414	0.000291	0.005142	
 6878	    0	2.426898	22.620513	-5.011841	1.021776	0.074960	1.110469	0.022993	0.226587	-0.048970	0.999971	0.005109	0.000375	0.005552	
 6879	    0	-3.362046	25.100045	-4.361527	-0.637629	0.247193	0.743106	-0.034607	0.250732	-0.044373	0.999987	-0.003188	0.001236	0.003716	
 6880	    0	-5.988616	26.214121	0.036549	-1.184471	0.277139	-0.146295	-0.059695	0.262181	-0.001104	0.999981	-0.005922	0.001386	-0.000731	
 6881	    0	-9.169921	25.822841	0.445343	-2.078289	-0.263029	-0.635541	-0.090881	0.258545	0.001648	0.999940	-0.010391	-0.001315	-0.003178	
 6882	    0	-10.575177	22.803789	-3.010643	-3.174359	-0.859110	-0.696978	-0.104816	0.227883	-0.034176	0.999858	-0.015871	-0.004295	-0.003485	
 6883	    0	-8.967494	15.834691	-3.006123	-2.385020	-1.032860	-0.659962	-0.088989	0.158264	-0.032410	0.999909	-0.011925	-0.005164	-0.003300	
 6884	    0	-5.769026	3.389429	0.635144	-0.701909	-0.836378	-0.641255	-0.057607	0.034101	0.005991	0.999979	-0.003510	-0.004182	-0.003206	
 6885	    0	-2.465321	-8.726321	4.306624	1.169793	-1.084152	-0.879681	-0.025269	-0.087402	0.042419	0.999958	0.005849	-0.005421	-0.004398	
 6886	    0	-1.177437	-13.185350	2.471825	1.788582	-1.927823	-1.137009	-0.012754	-0.131996	0.023418	0.999897	0.008943	-0.009639	-0.005685	
 6887	    0	0.699947	-12.299676	3.335991	1.567905	-2.455050	-1.197864	0.005859	-0.123291	0.032471	0.999875	0.007839	-0.012275	-0.005989	
 6888	    0	6.091519	-7.979952	7.334411	1.801790	-3.229145	-0.900514	0.059366	-0.080731	0.073586	0.999819	0.009008	-0.016145	-0.004502	
 6889	    0	17.725349	-10.388044	3.809257	3.009412	-4.602440	-0.015261	0.176331	-0.104492	0.040588	0.999621	0.015045	-0.023009	-0.000076	
 6890	    0	21.472768	-18.148623	-18.476180	0.456082	-4.227198	0.469816	0.218999	-0.180560	-0.180575	0.999771	0.002280	-0.021134	0.002349	
 6891	    0	7.329282	-12.979127	-12.923357	-4.376581	-0.367576	0.681361	0.073975	-0.132324	-0.126221	0.999753	-0.021881	-0.001838	0.003407	
 6892	    0	1.242433	-6.186230	-6.006672	-5.605881	0.760753	0.603567	0.012390	-0.063477	-0.058350	0.999595	-0.028026	0.003803	0.003017	
 6893	    0	0.425215	-9.832884	-11.244276	-3.296684	2.129502	0.338767	0.003235	-0.100159	-0.110840	0.999805	-0.016482	0.010647	0.001694	
 6894	    0	-6.375664	5.529659	18.140756	-1.735751	1.866218	-1.501710	-0.061638	0.057340	0.181498	0.999890	-0.008678	0.009331	-0.007508	
 6895	    0	26.672390	-1.841172	19.944864	5.782665	1.485679	-1.582588	0.268005	-0.026245	0.196777	0.999523	0.028909	0.007427	-0.007912	
 6896	    0	61.362352	-56.847055	-36.775267	2.377909	-3.904113	-0.383601	0.619647	-0.565325	-0.362430	0.999737	0.011889	-0.019519	-0.001918	
 6897	    0	16.062325	-0.403064	-11.203997	0.106812	-0.584222	0.004578	0.160950	-0.003967	-0.111572	0.999995	0.000534	-0.002921	0.000023	
 6898	    0	6.432926	44.907907	4.455737	1.097728	-3.042547	0.443860	0.062620	0.448962	0.047983	0.999866	0.005488	-0.015212	0.002219	
 6899	    0	-3.083809	51.982602	-8.480570	0.022126	-1.511980	-1.308463	-0.026794	0.520020	-0.084961	0.999949	0.000111	-0.007560	-0.006542	
 6900	    0	-5.705224	44.087704	-7.420208	-1.580273	-0.762956	-1.468309	-0.053524	0.440673	-0.077893	0.999934	-0.007901	-0.003815	-0.007341	
 6901	    0	11.332038	21.647908	-15.999409	-3.069340	0.202957	-2.858944	0.116211	0.212341	-0.163391	0.999779	-0.015346	0.001015	-0.014294	
 6902	    0	23.259919	11.570352	-11.220264	-3.178118	0.313024	-3.355708	0.234299	0.109976	-0.114347	0.999731	-0.015889	0.001565	-0.016777	
 6903	    0	17.341693	-7.371487	-9.889965	-2.127789	-0.569954	-3.332741	0.172424	-0.077637	-0.097595	0.999800	-0.010638	-0.002850	-0.016663	
 6904	    0	10.390895	-3.465749	-13.390425	-1.563360	-1.216392	-3.320519	0.104114	-0.037427	-0.132986	0.999813	-0.007816	-0.006082	-0.016602	
 6905	    0	14.837051	10.242640	-14.941007	-1.091827	-1.049672	-3.320497	0.150818	0.099121	-0.149170	0.999833	-0.005459	-0.005248	-0.016602	
 6906	    0	21.497474	3.701034	-12.850592	-1.900409	-0.530085	-3.316322	0.215876	0.032216	-0.128256	0.999813	-0.009501	-0.002650	-0.016581	
 6907	    0	24.087889	-10.498338	-13.215405	-1.846431	-0.447683	-3.415897	0.239319	-0.110291	-0.130615	0.999808	-0.009232	-0.002238	-0.017078	
 6908	    0	25.263895	-14.645737	-8.074258	-0.736088	-0.507002	-3.575909	0.250166	-0.151239	-0.079556	0.999829	-0.003680	-0.002535	-0.017879	
 6909	    0	22.479410	-8.891163	-4.816502	-0.054935	-0.585019	-3.767623	0.223206	-0.093140	-0.047485	0.999818	-0.000275	-0.002925	-0.018837	
 6910	    0	20.303291	-3.307906	-0.219598	0.087934	-0.453784	-3.648773	0.202389	-0.036775	-0.001752	0.999830	0.000440	-0.002269	-0.018243	
 6911	    0	21.918595	-4.583600	2.616409	-0.399037	-0.321023	-3.399826	0.218323	-0.049500	0.026611	0.999852	-0.001995	-0.001605	-0.016998	
 6912	    0	22.232744	-6.302205	4.659444	-0.661689	-0.214014	-3.226236	0.221224	-0.066442	0.047048	0.999864	-0.003308	-0.001070	-0.016130	
 6913	    0	18.566529	-6.970097	6.023721	-0.935978	-0.105290	-3.146504	0.184509	-0.072327	0.060669	0.999865	-0.004680	-0.000526	-0.015732	
 6914	    0	13.906172	-6.217538	5.907665	-1.622468	-0.021745	-2.977323	0.138114	-0.063754	0.059605	0.999856	-0.008112	-0.000109	-0.014886	
 6915	    0	10.546783	-7.140649	4.075521	-2.394997	-0.015832	-2.700189	0.104492	-0.072327	0.041626	0.999837	-0.011974	-0.000079	-0.013500	
 6916	    0	8.300638	-10.675199	1.214411	-3.013421	-0.113113	-2.482572	0.081667	-0.107572	0.013807	0.999809	-0.015066	-0.000566	-0.012412	
 6917	    0	7.610970	-16.706134	-0.205715	-3.400658	-0.163853	-2.256169	0.074219	-0.167908	0.000854	0.999791	-0.017002	-0.000819	-0.011280	
 6918	    0	8.307930	-22.416628	0.671219	-3.372595	-0.036051	-1.925399	0.080915	-0.224796	0.010514	0.999811	-0.016862	-0.000180	-0.009626	
 6919	    0	8.477034	-24.637547	1.514009	-2.467249	0.135045	-1.734990	0.082642	-0.246887	0.018127	0.999886	-0.012336	0.000675	-0.008675	
 6920	    0	5.232884	-26.307273	2.565663	-0.776109	0.362019	-1.387993	0.050550	-0.263326	0.026586	0.999967	-0.003881	0.001810	-0.006940	
 6921	    0	0.437395	-24.877754	3.640619	1.292434	0.411420	-0.973522	0.003235	-0.249023	0.034790	0.999965	0.006462	0.002057	-0.004868	
 6922	    0	-3.369819	-23.119998	3.709684	2.432315	0.350198	-0.484288	-0.034197	-0.231546	0.034342	0.999921	0.012161	0.001751	-0.002421	
 6923	    0	-3.330881	-17.692195	5.747599	1.999890	0.500497	0.028992	-0.033142	-0.177490	0.055786	0.999947	0.009999	0.002502	0.000145	
 6924	    0	0.384867	-10.425717	7.119774	0.741965	0.883682	0.770384	0.004564	-0.104504	0.070791	0.999975	0.003710	0.004418	0.003852	
 6925	    0	4.507481	-4.384822	7.376529	-0.060846	1.280998	1.616697	0.045898	-0.043457	0.073486	0.999947	-0.000304	0.006405	0.008083	
 6926	    0	5.881214	-4.252615	9.840713	-0.569361	1.613856	2.053131	0.060035	-0.041635	0.098045	0.999910	-0.002847	0.008069	0.010265	
 6927	    0	6.554118	-6.126518	10.166837	-1.054229	1.825779	2.018046	0.067078	-0.060059	0.101379	0.999893	-0.005271	0.009129	0.010090	
 6928	    0	8.297236	-5.879674	7.040803	-0.982513	1.951674	2.099880	0.084265	-0.057572	0.069875	0.999885	-0.004912	0.009758	0.010499	
 6929	    0	9.192607	-4.165630	4.199427	-0.912516	2.122019	2.295023	0.092834	-0.040405	0.041199	0.999867	-0.004562	0.010610	0.011475	
 6930	    0	10.696062	-2.826410	-1.142916	-1.337687	1.973628	2.395744	0.107171	-0.027061	-0.012302	0.999857	-0.006688	0.009868	0.011978	
 6931	    0	17.903946	-5.207379	-9.371956	-1.248039	1.547317	2.784102	0.179016	-0.050171	-0.094788	0.999853	-0.006240	0.007736	0.013920	
 6932	    0	30.090651	-9.719314	-14.078219	-0.344103	1.373171	3.216528	0.301445	-0.092592	-0.142689	0.999846	-0.001720	0.006866	0.016082	
 6933	    0	35.158342	-10.620476	-12.336059	0.892119	1.539702	3.289987	0.352295	-0.099854	-0.126526	0.999825	0.004460	0.007698	0.016449	
 6934	    0	28.175366	-11.749399	-6.671273	2.049234	1.794009	3.516678	0.283133	-0.111814	-0.070414	0.999752	0.010245	0.008969	0.017582	
 6935	    0	22.139082	-9.014872	-2.937297	2.720348	1.666430	3.788382	0.222778	-0.085510	-0.032410	0.999693	0.013600	0.008331	0.018940	
 6936	    0	23.733310	-1.316691	-2.687349	2.817070	1.402621	3.926310	0.237329	-0.008112	-0.028676	0.999683	0.014084	0.007012	0.019629	
 6937	    0	26.068675	4.634353	-2.449742	2.601320	1.094931	4.103512	0.259521	0.052002	-0.025269	0.999689	0.013005	0.005474	0.020515	
 6938	    0	28.824141	6.872333	-3.499297	1.998125	0.687279	4.103834	0.286625	0.074967	-0.035252	0.999733	0.009990	0.003436	0.020517	
 6939	    0	32.730826	9.324693	-7.026036	0.904339	0.378445	4.046160	0.325195	0.100159	-0.070435	0.999783	0.004521	0.001892	0.020229	
 6940	    0	31.941108	9.907752	-7.261400	0.079543	0.428424	4.292630	0.317030	0.105928	-0.073254	0.999766	0.000398	0.002142	0.021461	
 6941	    0	28.011761	4.141700	-4.994968	0.331334	0.474588	4.415495	0.278992	0.047668	-0.050537	0.999752	0.001657	0.002373	0.022076	
 6942	    0	22.354076	1.546874	-3.524895	1.090326	0.340679	4.181426	0.223089	0.020329	-0.035527	0.999764	0.005451	0.001703	0.020905	
 6943	    0	15.926192	4.380428	-4.125476	1.825281	0.228899	3.860005	0.158325	0.047241	-0.041016	0.999771	0.009126	0.001144	0.019299	
 6944	    0	11.866809	7.514820	-4.205679	2.520941	0.153553	3.406017	0.117328	0.077677	-0.041179	0.999775	0.012604	0.000768	0.017029	
 6945	    0	11.371648	8.930952	-4.050971	2.964418	0.035861	2.826125	0.112427	0.091492	-0.039185	0.999790	0.014821	0.000179	0.014130	
 6946	    0	12.084400	10.573261	-4.317500	2.871289	-0.152787	2.202536	0.119698	0.107659	-0.041547	0.999836	0.014356	-0.000764	0.011012	
 6947	    0	12.344285	13.228649	-4.807663	2.453130	-0.287639	1.610624	0.122437	0.133850	-0.046265	0.999891	0.012265	-0.001438	0.008053	
 6948	    0	11.091243	15.758864	-4.942448	2.061319	-0.280387	1.093890	0.110114	0.158689	-0.047638	0.999930	0.010306	-0.001402	0.005469	
 6949	    0	7.212296	18.835092	-4.955110	1.309981	-0.270656	0.823983	0.071411	0.188965	-0.048218	0.999969	0.006550	-0.001353	0.004120	
 6950	    0	1.166143	20.935701	-4.928628	-0.124359	-0.186921	0.795557	0.010875	0.209371	-0.049406	0.999991	-0.000622	-0.000935	0.003978	
 6951	    0	-4.581404	23.234847	-2.862295	-1.547068	0.099183	0.533301	-0.046448	0.231995	-0.030396	0.999966	-0.007735	0.000496	0.002666	
 6952	    0	-7.518181	25.558882	1.421640	-1.930458	0.012589	-0.092508	-0.075063	0.255745	0.011753	0.999953	-0.009652	0.000063	-0.000463	
 6953	    0	-10.512819	24.888332	0.331224	-2.923504	-0.655390	-0.365462	-0.104675	0.249084	-0.000671	0.999886	-0.014617	-0.003277	-0.001827	
 6954	    0	-11.947955	21.116741	-3.154464	-3.480158	-1.285818	-0.293749	-0.118948	0.210742	-0.035980	0.999826	-0.017400	-0.006429	-0.001469	
 6955	    0	-10.950006	12.652583	-2.776095	-2.126375	-1.580666	-0.122074	-0.109192	0.126282	-0.029968	0.999911	-0.010632	-0.007903	-0.000610	
 6956	    0	-6.860410	-2.643436	1.146639	-0.142099	-1.511016	-0.153162	-0.068708	-0.026374	0.010966	0.999970	-0.000710	-0.007555	-0.000766	
 6957	    0	-2.722217	-13.036158	4.084945	1.410709	-1.846168	-0.648514	-0.028015	-0.130554	0.039673	0.999927	0.007053	-0.009231	-0.003242	
 6958	    0	-0.665892	-14.334755	2.762581	0.885039	-2.462469	-1.052319	-0.007748	-0.143429	0.026900	0.999900	0.004425	-0.012312	-0.005261	
 6959	    0	4.517822	-8.949036	3.077721	0.146682	-3.244944	-1.211609	0.044128	-0.089783	0.031433	0.999849	0.000733	-0.016224	-0.006058	
 6960	    0	15.622994	0.013989	3.158765	0.784362	-4.164634	-0.664762	0.155526	-0.000510	0.034830	0.999769	0.003922	-0.020822	-0.003324	
 6961	    0	18.851848	-8.223941	-4.631708	2.030424	-4.928222	0.395250	0.189758	-0.081421	-0.042480	0.999642	0.010151	-0.024638	0.001976	
 6962	    0	8.373267	-23.233842	-17.406009	-1.799832	-2.021473	0.593014	0.086164	-0.233634	-0.171099	0.999904	-0.008999	-0.010107	0.002965	
 6963	    0	4.876900	-13.618817	-11.346784	-4.905456	1.105044	0.270109	0.048340	-0.138855	-0.110352	0.999682	-0.024525	0.005525	0.001350	
 6964	    0	6.404787	-7.686915	-6.625035	-2.839617	2.067673	0.302903	0.063483	-0.077709	-0.065809	0.999845	-0.014197	0.010338	0.001514	
 6965	    0	11.743536	-7.766770	27.377619	-0.573752	2.772816	-0.949895	0.120850	-0.077454	0.272339	0.999888	-0.002869	0.013864	-0.004749	
 6966	    0	51.708214	-14.654128	0.621412	4.422993	-0.731157	-1.698466	0.515793	-0.151042	0.004794	0.999712	0.022113	-0.003655	-0.008492	
 6967	    0	33.915929	-66.905866	-51.621815	-1.124597	-1.952977	0.425730	0.345581	-0.671204	-0.509094	0.999934	-0.005623	-0.009765	0.002129	
 6968	    0	11.718798	35.777122	31.648682	1.755394	-1.908941	1.260801	0.111894	0.355685	0.320700	0.999896	0.008777	-0.009544	0.006304	
 6969	    0	5.934261	48.495581	-13.643928	1.075016	-2.552686	-0.067141	0.061218	0.485657	-0.133057	0.999904	0.005375	-0.012763	-0.000336	
 6970	    0	-6.020873	56.302037	-3.830080	-0.897228	-0.844585	-1.262872	-0.056483	0.563205	-0.041071	0.999961	-0.004486	-0.004223	-0.006314	
 6971	    0	-3.843972	38.228903	-8.744187	-2.161482	-0.249299	-1.884526	-0.034729	0.381653	-0.091614	0.999896	-0.010807	-0.001246	-0.009422	
 6972	    0	16.308931	24.979313	-16.012401	-3.041900	0.414310	-3.228455	0.166729	0.244644	-0.164214	0.999751	-0.015208	0.002071	-0.016141	
 6973	    0	26.228445	8.640310	-10.167374	-2.718566	0.129901	-3.376272	0.263611	0.080566	-0.102966	0.999764	-0.013592	0.000649	-0.016880	
 6974	    0	17.364318	-7.917017	-12.693446	-2.435473	-0.685168	-3.224599	0.172751	-0.083493	-0.125342	0.999789	-0.012177	-0.003426	-0.016122	
 6975	    0	10.402414	2.369239	-16.501295	-2.146288	-0.971094	-3.167930	0.105164	0.020264	-0.164734	0.999804	-0.010731	-0.004855	-0.015839	
 6976	    0	14.355171	8.860843	-14.306266	-1.661970	-0.569568	-3.312305	0.145388	0.085020	-0.143367	0.999824	-0.008309	-0.002848	-0.016561	
 6977	    0	23.678018	-3.930511	-14.295650	-1.999038	-0.420981	-3.495264	0.236328	-0.044861	-0.142029	0.999795	-0.009995	-0.002105	-0.017475	
 6978	    0	24.561424	-13.358724	-11.457150	-1.234705	-0.521693	-3.665775	0.243399	-0.138763	-0.113089	0.999809	-0.006173	-0.002608	-0.018328	
 6979	    0	21.394047	-11.866057	-7.331977	-0.377678	-0.718543	-3.767628	0.211914	-0.122803	-0.072327	0.999814	-0.001888	-0.003592	-0.018837	
 6980	    0	21.438016	-6.046204	-2.941550	0.077824	-0.578532	-3.650682	0.213313	-0.064351	-0.028822	0.999828	0.000389	-0.002892	-0.018252	
 6981	    0	20.869787	-4.198438	2.641724	-0.168618	-0.385113	-3.430346	0.207886	-0.045532	0.026855	0.999850	-0.000843	-0.001925	-0.017151	
 6982	    0	21.557087	-5.429537	5.504455	-0.628309	-0.231181	-3.228906	0.214595	-0.057591	0.055470	0.999864	-0.003141	-0.001156	-0.016144	
 6983	    0	21.121437	-5.819852	7.558088	-0.886575	-0.018121	-3.128953	0.210266	-0.061157	0.075867	0.999867	-0.004433	-0.000091	-0.015644	
 6984	    0	17.008756	-5.820517	8.154376	-1.575736	0.163277	-2.994681	0.169264	-0.060100	0.081874	0.999856	-0.007878	0.000816	-0.014973	
 6985	    0	13.710700	-6.530753	6.218165	-2.570492	0.239768	-2.698674	0.136292	-0.066345	0.062866	0.999825	-0.012852	0.001199	-0.013493	
 6986	    0	11.697030	-9.563485	2.968961	-3.530772	0.198379	-2.416986	0.115838	-0.096497	0.031273	0.999770	-0.017653	0.000992	-0.012084	
 6987	    0	9.615639	-15.389316	0.021829	-4.326867	0.047307	-2.245553	0.094421	-0.154907	0.003540	0.999702	-0.021632	0.000237	-0.011227	
 6988	    0	7.594855	-22.251024	-1.236301	-4.683825	-0.057418	-2.176908	0.073522	-0.223527	-0.007114	0.999666	-0.023417	-0.000287	-0.010883	
 6989	    0	6.329379	-27.975400	-1.522866	-4.513236	0.026896	-1.871677	0.060669	-0.280579	-0.008911	0.999701	-0.022564	0.000134	-0.009357	
 6990	    0	5.192940	-27.989942	-2.792251	-2.207823	0.284394	-1.516007	0.049767	-0.280568	-0.024899	0.999908	-0.011039	0.001422	-0.007580	
 6991	    0	2.423529	-26.708617	-0.849559	0.760847	0.602726	-0.850683	0.023071	-0.267151	-0.009583	0.999979	0.003804	0.003014	-0.004253	
 6992	    0	-1.855273	-23.832838	2.286901	3.260954	0.507569	-0.431081	-0.019015	-0.238619	0.019028	0.999861	0.016304	0.002538	-0.002155	
 6993	    0	-3.181265	-20.788637	4.231936	3.824279	0.353263	-0.171672	-0.031921	-0.208618	0.038391	0.999815	0.019120	0.001766	-0.000858	
 6994	    0	-1.524090	-13.031575	6.549947	2.593308	0.575273	0.170522	-0.014944	-0.131164	0.063846	0.999911	0.012966	0.002876	0.000853	
 6995	    0	1.969666	-5.513169	6.779062	0.699621	0.923355	0.701910	0.020203	-0.055298	0.067505	0.999976	0.003498	0.004617	0.003510	
 6996	    0	4.745097	-0.690938	6.412239	-0.492103	1.231212	1.370451	0.047890	-0.006425	0.063845	0.999954	-0.002460	0.006156	0.006852	
 6997	    0	5.832564	-2.325149	8.271400	-1.072722	1.487201	1.804402	0.059143	-0.022278	0.082397	0.999917	-0.005363	0.007436	0.009022	
 6998	    0	6.866193	-5.712209	9.633247	-1.145973	1.730404	1.922099	0.070035	-0.055902	0.096053	0.999900	-0.005730	0.008652	0.009610	
 6999	    0	7.328331	-6.753634	8.487091	-0.743129	1.905317	2.032541	0.074768	-0.066467	0.084412	0.999896	-0.003716	0.009526	0.010162	
 7000	    0	7.409068	-5.456845	5.477230	-0.785669	2.030264	2.216810	0.075240	-0.053525	0.054224	0.999879	-0.003928	0.010151	0.011084	
 7001	    0	9.840293	-4.076743	-1.235126	-1.210077	1.931278	2.376664	0.098755	-0.039673	-0.013062	0.999864	-0.006050	0.009656	0.011883	
 7002	    0	17.136542	-6.137392	-10.263739	-1.225909	1.485702	2.711612	0.171415	-0.059683	-0.103541	0.999861	-0.006129	0.007428	0.013557	
 7003	    0	30.908624	-10.167590	-15.960947	-0.395030	1.189476	3.039688	0.309631	-0.097290	-0.161255	0.999865	-0.001975	0.005947	0.015198	
 7004	    0	38.531698	-11.304935	-15.243893	0.997019	1.162394	3.043322	0.386073	-0.106409	-0.155223	0.999854	0.004985	0.005812	0.015216	
 7005	    0	31.803139	-14.985481	-9.877918	2.491197	1.449892	3.308371	0.319702	-0.143311	-0.102905	0.999759	0.012455	0.007249	0.016541	
 7006	    0	23.974612	-12.221019	-4.707561	3.394329	1.529871	3.729489	0.241579	-0.116874	-0.050933	0.999652	0.016970	0.007648	0.018645	
 7007	    0	24.174364	-2.544311	-3.224788	3.738903	1.411817	4.014361	0.241943	-0.019958	-0.034363	0.999599	0.018692	0.007058	0.020069	
 7008	    0	26.783567	3.671005	-2.505774	3.813121	1.117859	4.128830	0.266852	0.042713	-0.025775	0.999589	0.019063	0.005589	0.020641	
 7009	    0	29.726509	8.046091	-3.510178	3.197271	0.747003	4.064641	0.295410	0.087036	-0.034851	0.999659	0.015985	0.003735	0.020321	
 7010	    0	32.124589	11.103326	-5.770758	2.132606	0.451700	4.078275	0.318755	0.118162	-0.057195	0.999732	0.010662	0.002258	0.020390	
 7011	    0	30.498339	9.626593	-6.864071	1.084231	0.416792	4.412462	0.302612	0.103333	-0.068726	0.999740	0.005421	0.002084	0.022060	
 7012	    0	26.652273	5.235562	-5.677420	1.117622	0.530675	4.608019	0.265066	0.058793	-0.057162	0.999715	0.005588	0.002653	0.023038	
 7013	    0	22.137269	3.665857	-3.471050	1.782392	0.616703	4.329321	0.220398	0.041748	-0.035034	0.999721	0.008911	0.003083	0.021645	
 7014	    0	16.717009	5.688475	-3.386247	2.318578	0.486224	3.825320	0.165955	0.060457	-0.033580	0.999746	0.011592	0.002431	0.019125	
 7015	    0	12.856235	8.364558	-4.778703	2.456074	0.406103	3.257217	0.127075	0.086304	-0.046997	0.999789	0.012280	0.002030	0.016285	
 7016	    0	11.874303	10.268018	-4.526977	2.762394	0.452642	2.663969	0.117255	0.104863	-0.044098	0.999813	0.013811	0.002263	0.013319	
 7017	    0	12.993411	12.310841	-4.206047	2.620055	0.432034	2.001282	0.128601	0.124939	-0.040710	0.999862	0.013100	0.002160	0.010006	
 7018	    0	13.993230	15.438845	-4.366605	2.289077	0.324831	1.332323	0.138828	0.155804	-0.042114	0.999910	0.011445	0.001624	0.006661	
 7019	    0	10.987487	19.354671	-4.781540	1.890791	0.186924	0.972766	0.108887	0.194519	-0.046082	0.999943	0.009454	0.000935	0.004864	
 7020	    0	4.136303	21.839205	-5.587774	0.638584	-0.079918	0.974851	0.040319	0.218767	-0.055163	0.999983	0.003193	-0.000400	0.004874	
 7021	    0	-2.740778	24.124352	-6.880844	-1.301588	0.016976	0.904856	-0.028503	0.240662	-0.070374	0.999969	-0.006508	0.000085	0.004524	
 7022	    0	-6.224707	25.696917	-3.276979	-2.281812	0.250440	0.256163	-0.062619	0.256494	-0.035620	0.999933	-0.011409	0.001252	0.001281	
 7023	    0	-8.568481	24.410142	-0.281225	-2.682577	-0.037957	-0.392163	-0.085205	0.244202	-0.006104	0.999907	-0.013412	-0.000190	-0.001961	
 7024	    0	-11.543346	22.372127	-2.349062	-3.462023	-0.723496	-0.553351	-0.114719	0.223583	-0.027778	0.999840	-0.017309	-0.003617	-0.002767	
 7025	    0	-11.128381	16.614530	-2.325876	-2.211821	-1.080923	-0.592820	-0.110657	0.166199	-0.025696	0.999919	-0.011059	-0.005404	-0.002964	
 7026	    0	-8.641058	5.371540	0.207029	-0.145150	-1.042754	-0.614361	-0.086254	0.053982	0.001581	0.999981	-0.000726	-0.005214	-0.003072	
 7027	    0	-4.992936	-5.365921	3.844105	1.739537	-1.011487	-0.865954	-0.050354	-0.053772	0.037720	0.999940	0.008698	-0.005057	-0.004330	
 7028	    0	-2.385625	-9.535446	3.097861	2.138978	-1.695122	-1.100389	-0.024637	-0.095543	0.029751	0.999891	0.010695	-0.008475	-0.005502	
 7029	    0	0.435317	-8.108149	2.931089	1.340530	-2.211646	-1.213115	0.003540	-0.081299	0.028809	0.999898	0.006702	-0.011058	-0.006065	
 7030	    0	7.266667	-4.913480	5.911349	1.344362	-2.806985	-1.216373	0.071528	-0.049973	0.059789	0.999860	0.006721	-0.014034	-0.006082	
 7031	    0	17.151931	-5.247383	5.413604	2.428651	-3.903353	-0.296047	0.170349	-0.053406	0.056824	0.999734	0.012142	-0.019515	-0.001480	
 7032	    0	19.241719	-17.692818	-13.309795	0.684984	-4.287682	0.639967	0.195784	-0.175858	-0.129528	0.999759	0.003425	-0.021437	0.003200	
 7033	    0	8.938391	-19.077774	-17.540875	-4.850494	-0.548418	0.555476	0.090393	-0.194702	-0.170471	0.999698	-0.024250	-0.002742	0.002777	
 7034	    0	3.318647	-11.000545	-6.960830	-6.512484	0.837477	0.532247	0.033201	-0.112108	-0.066119	0.999457	-0.032557	0.004187	0.002661	
 7035	    0	2.848319	-13.676753	-4.837245	-4.572563	1.693132	0.512747	0.028442	-0.137756	-0.045471	0.999699	-0.022861	0.008465	0.002563	
 7036	    0	3.346082	-2.872654	25.594298	-1.501130	2.060954	-0.980598	0.035962	-0.026978	0.255788	0.999907	-0.007505	0.010304	-0.004903	
 7037	    0	60.099167	-14.678975	7.699532	6.103968	0.276994	-1.714613	0.599792	-0.154175	0.071533	0.999496	0.030515	0.001385	-0.008572	
 7038	    0	36.098673	-72.480327	-54.222865	-0.543804	-2.746103	0.586720	0.370495	-0.725187	-0.535213	0.999897	-0.002719	-0.013730	0.002934	
 7039	    0	5.693891	31.595977	21.517513	1.074233	-1.066413	0.966657	0.054260	0.315063	0.217163	0.999959	0.005371	-0.005332	0.004833	
 7040	    0	3.245886	44.913563	-10.364506	1.310585	-2.563947	0.077060	0.033586	0.449813	-0.100273	0.999896	0.006553	-0.012819	0.000385	
 7041	    0	-6.380705	56.763690	-10.086280	-0.360875	-1.333446	-1.167313	-0.059814	0.567810	-0.102295	0.999959	-0.001804	-0.006667	-0.005836	
 7042	    0	-7.457190	39.292137	-11.819364	-1.976069	-0.663776	-1.560065	-0.071109	0.392290	-0.122312	0.999915	-0.009880	-0.003319	-0.007800	
 7043	    0	12.077053	20.926579	-17.781351	-2.707882	0.292419	-3.349564	0.123962	0.204773	-0.180786	0.999766	-0.013538	0.001462	-0.016747	
 7044	    0	26.263787	5.184931	-10.896610	-2.252563	0.119028	-3.681087	0.263453	0.045773	-0.109661	0.999766	-0.011262	0.000595	-0.018404	
 7045	    0	21.849020	-13.853126	-10.569069	-1.450241	-0.889639	-3.309822	0.216614	-0.142883	-0.103699	0.999826	-0.007251	-0.004448	-0.016548	
 7046	    0	9.472044	1.335397	-12.198027	-0.872088	-1.459583	-3.203186	0.095799	0.011295	-0.121336	0.999835	-0.004360	-0.007298	-0.016015	
 7047	    0	13.457804	15.266484	-13.110546	-0.885819	-0.980238	-3.282337	0.137695	0.149841	-0.131104	0.999843	-0.004429	-0.004901	-0.016411	
 7048	    0	23.158303	3.598857	-12.710234	-1.989488	-0.530467	-3.266347	0.232452	0.030934	-0.126811	0.999813	-0.009947	-0.002652	-0.016331	
 7049	    0	24.959687	-10.460146	-13.314313	-1.838609	-0.349448	-3.403687	0.247986	-0.110046	-0.131714	0.999811	-0.009192	-0.001747	-0.017017	
 7050	    0	23.240795	-11.609737	-8.242258	-0.878576	-0.423075	-3.619597	0.230425	-0.120639	-0.081410	0.999824	-0.004393	-0.002115	-0.018097	
 7051	    0	21.728745	-6.642274	-4.482713	-0.222600	-0.461605	-3.660029	0.216125	-0.070435	-0.044250	0.999828	-0.001113	-0.002308	-0.018299	
 7052	    0	20.517721	-4.257818	0.887063	-0.240720	-0.391217	-3.455909	0.204383	-0.046103	0.009325	0.999847	-0.001204	-0.001956	-0.017279	
 7053	    0	22.049572	-5.664764	3.550781	-0.668366	-0.278295	-3.267822	0.219482	-0.060120	0.036011	0.999860	-0.003342	-0.001391	-0.016338	
 7054	    0	21.822949	-5.351806	5.600660	-0.749621	-0.085071	-3.142875	0.217331	-0.056727	0.056308	0.999869	-0.003748	-0.000425	-0.015714	
 7055	    0	17.761824	-5.738623	7.087439	-1.090860	0.101475	-3.042735	0.176758	-0.059692	0.071106	0.999868	-0.005454	0.000507	-0.015213	
 7056	    0	14.309716	-4.760790	6.350593	-1.803483	0.206003	-2.839032	0.142473	-0.049059	0.063797	0.999858	-0.009017	0.001030	-0.014194	
 7057	    0	11.565374	-5.423386	3.671625	-2.642211	0.258842	-2.591854	0.114990	-0.055237	0.037292	0.999827	-0.013210	0.001294	-0.012959	
 7058	    0	9.509276	-7.922438	0.419663	-3.360988	0.139246	-2.409344	0.094133	-0.080277	0.005474	0.999785	-0.016804	0.000696	-0.012046	
 7059	    0	8.753793	-13.176985	-1.197530	-3.850683	-0.054936	-2.234834	0.086060	-0.132935	-0.009399	0.999752	-0.019252	-0.000275	-0.011173	
 7060	    0	8.826621	-20.285207	-0.640790	-3.961892	-0.138294	-2.052096	0.086181	-0.203816	-0.002316	0.999750	-0.019808	-0.000691	-0.010260	
 7061	    0	8.688597	-23.684318	0.574053	-3.285228	-0.154123	-1.976897	0.084534	-0.237549	0.009705	0.999815	-0.016425	-0.000771	-0.009884	
 7062	    0	6.293330	-27.739797	-0.131333	-2.061901	0.139622	-1.529354	0.060810	-0.277863	0.001507	0.999917	-0.010309	0.000698	-0.007647	
 7063	    0	1.568465	-26.183711	1.682007	0.472454	0.368502	-1.187143	0.014160	-0.261963	0.016174	0.999977	0.002362	0.001842	-0.005936	
 7064	    0	-3.628040	-27.294979	2.251879	2.589877	0.247009	-0.716994	-0.037234	-0.273079	0.019029	0.999908	0.012949	0.001235	-0.003585	
 7065	    0	-4.642220	-24.947050	3.327437	2.943719	0.277720	-0.201423	-0.046631	-0.249878	0.029663	0.999889	0.014718	0.001389	-0.001007	
 7066	    0	-1.195428	-16.644396	5.787213	1.933133	0.666630	0.426872	-0.011409	-0.167018	0.056298	0.999945	0.009665	0.003333	0.002134	
 7067	    0	3.780925	-6.887161	7.158821	0.606736	1.107040	1.252763	0.038635	-0.068848	0.071167	0.999960	0.003034	0.005535	0.006264	
 7068	    0	5.726031	-3.913426	9.365703	-0.294311	1.451909	1.899193	0.058306	-0.038446	0.093293	0.999927	-0.001472	0.007259	0.009496	
 7069	    0	5.036240	-6.446390	11.328695	-0.805500	1.732693	2.066108	0.052002	-0.063477	0.113098	0.999901	-0.004027	0.008663	0.010330	
 7070	    0	6.646612	-6.518227	10.249298	-0.821334	1.829596	2.177318	0.068103	-0.064027	0.102139	0.999890	-0.004107	0.009148	0.010886	
 7071	    0	9.234280	-4.137850	7.360032	-0.697929	1.989070	2.459061	0.093567	-0.039978	0.072815	0.999868	-0.003489	0.009945	0.012295	
 7072	    0	11.049095	-1.815834	2.585621	-1.175750	2.061377	2.585735	0.110971	-0.016578	0.024815	0.999846	-0.005878	0.010306	0.012928	
 7073	    0	15.309620	-2.242619	-5.684608	-1.761728	1.732926	2.772681	0.152893	-0.020813	-0.057983	0.999827	-0.008808	0.008664	0.013863	
 7074	    0	27.291789	-6.856129	-13.589185	-1.371847	1.414574	3.218270	0.273016	-0.065107	-0.137368	0.999822	-0.006859	0.007072	0.016090	
 7075	    0	37.267105	-9.520008	-15.052734	-0.208103	1.352002	3.349487	0.373169	-0.089111	-0.152954	0.999836	-0.001040	0.006760	0.016747	
 7076	    0	33.276397	-13.571013	-10.499805	1.332947	1.582254	3.488017	0.334206	-0.129174	-0.108514	0.999794	0.006664	0.007911	0.017439	
 7077	    0	24.041094	-14.758630	-5.349886	2.388410	1.628262	3.689150	0.242615	-0.142456	-0.057190	0.999725	0.011941	0.008141	0.018444	
 7078	    0	23.958357	-6.410474	-3.803765	2.863620	1.482551	3.925173	0.240478	-0.058821	-0.040686	0.999677	0.014317	0.007412	0.019624	
 7079	    0	26.724150	1.937714	-2.443843	3.182032	1.220850	4.160047	0.266602	0.025330	-0.025696	0.999638	0.015908	0.006104	0.020798	
 7080	    0	28.860645	4.861239	-3.117188	2.954621	0.804991	4.163443	0.287378	0.055068	-0.031549	0.999665	0.014771	0.004025	0.020815	
 7081	    0	31.644653	9.538679	-6.260443	1.732208	0.367768	4.120218	0.314270	0.102417	-0.062317	0.999748	0.008660	0.001839	0.020599	
 7082	    0	33.523175	12.388056	-7.852675	0.642633	0.279828	4.123035	0.332470	0.131006	-0.078580	0.999781	0.003213	0.001399	0.020614	
 7083	    0	29.965723	8.138132	-6.615921	0.069624	0.431094	4.307130	0.297668	0.087830	-0.066772	0.999765	0.000348	0.002155	0.021534	
 7084	    0	23.752399	3.819240	-3.959795	0.737823	0.499194	4.341099	0.236519	0.043481	-0.040035	0.999754	0.003689	0.002496	0.021704	
 7085	    0	16.090319	4.777181	-3.385236	1.497012	0.344305	4.204147	0.159790	0.051392	-0.033752	0.999749	0.007484	0.001721	0.021019	
 7086	    0	11.198392	7.548252	-3.891094	2.157572	0.083739	3.774177	0.110512	0.077991	-0.038125	0.999763	0.010787	0.000419	0.018869	
 7087	    0	10.642069	8.906553	-3.867021	2.876688	-0.143443	3.106922	0.105042	0.091248	-0.037292	0.999775	0.014382	-0.000717	0.015533	
 7088	    0	11.917196	10.402438	-4.386918	3.230887	-0.408010	2.389689	0.117999	0.106127	-0.041924	0.999796	0.016153	-0.002040	0.011948	
 7089	    0	12.630220	12.842118	-5.878378	3.237339	-0.650634	1.728921	0.125366	0.130432	-0.056274	0.999825	0.016186	-0.003253	0.008644	
 7090	    0	10.403668	16.630035	-7.665318	2.631286	-0.678851	1.250123	0.103245	0.167933	-0.074100	0.999887	0.013156	-0.003394	0.006250	
 7091	    0	4.617104	20.610391	-7.979960	1.235977	-0.407224	1.128401	0.045166	0.206848	-0.078430	0.999963	0.006180	-0.002036	0.005642	
 7092	    0	-0.697095	24.045218	-7.219661	-0.621036	-0.024986	0.977140	-0.008136	0.240189	-0.072944	0.999983	-0.003105	-0.000125	0.004886	
 7093	    0	-3.448612	27.929003	-2.377199	-1.492324	0.212290	0.286105	-0.034912	0.279053	-0.025818	0.999970	-0.007462	0.001061	0.001431	
 7094	    0	-7.739658	29.516274	1.792723	-1.658268	-0.172045	-0.193026	-0.077126	0.295372	0.015412	0.999965	-0.008291	-0.000860	-0.000965	
 7095	    0	-12.309661	26.255317	-0.509327	-2.451398	-1.074823	-0.285348	-0.122681	0.262634	-0.008972	0.999909	-0.012257	-0.005374	-0.001427	
 7096	    0	-12.630223	18.961671	-2.880741	-1.921892	-1.461637	-0.304611	-0.125790	0.189514	-0.031549	0.999926	-0.009609	-0.007308	-0.001523	
 7097	    0	-9.493837	7.221113	-0.620390	-0.593382	-1.395430	-0.286105	-0.094788	0.072327	-0.007080	0.999969	-0.002967	-0.006977	-0.001431	
 7098	    0	-4.598820	-5.914105	5.408105	1.090064	-1.261728	-0.624093	-0.046512	-0.059289	0.053466	0.999960	0.005450	-0.006309	-0.003120	
 7099	    0	-1.524638	-12.111509	4.762213	1.602220	-1.770644	-1.147494	-0.016357	-0.121399	0.046509	0.999911	0.008011	-0.008853	-0.005737	
 7100	    0	0.921213	-12.004944	4.133244	1.311920	-2.108266	-1.487402	0.007887	-0.120379	0.040631	0.999895	0.006559	-0.010541	-0.007437	
 7101	    0	6.672500	-7.412012	5.326473	1.613889	-2.630747	-1.584705	0.065430	-0.075073	0.053528	0.999849	0.008069	-0.013153	-0.007923	
 7102	    0	15.709396	-2.395087	7.375738	2.673233	-4.129452	-0.644178	0.155451	-0.025465	0.076645	0.999692	0.013365	-0.020645	-0.003221	
 7103	    0	17.775168	-13.350958	-7.748205	1.768922	-5.353504	0.717260	0.180237	-0.132202	-0.073853	0.999596	0.008843	-0.026764	0.003586	
 7104	    0	9.219677	-20.049935	-18.066518	-3.675549	-2.022706	0.766622	0.094769	-0.203403	-0.175995	0.999772	-0.018376	-0.010113	0.003833	
 7105	    0	5.166626	-10.799212	-10.405279	-6.115732	0.306750	0.561612	0.051819	-0.110962	-0.100769	0.999527	-0.030574	0.001534	0.002808	
 7106	    0	4.152611	-7.427940	-1.706632	-4.009796	2.282728	0.409544	0.041492	-0.074523	-0.016047	0.999731	-0.020047	0.011413	0.002048	
 7107	    0	3.378427	4.893069	23.820283	-0.998705	1.614599	-0.742353	0.035889	0.049988	0.237671	0.999948	-0.004993	0.008073	-0.003712	
 7108	    0	52.051032	-8.404954	6.451932	5.870195	-0.298927	-1.523443	0.519746	-0.089869	0.062716	0.999538	0.029346	-0.001494	-0.007616	
 7109	    0	38.869053	-74.694571	-65.627342	-1.271693	-3.212136	0.325029	0.400330	-0.750427	-0.645142	0.999849	-0.006358	-0.016060	0.001625	
 7110	    0	13.270715	25.889769	35.078064	1.150905	-0.268557	0.947198	0.131013	0.257496	0.352442	0.999970	0.005754	-0.001343	0.004736	
 7111	    0	10.841601	39.063930	-12.078844	1.388612	-2.956331	0.151069	0.109863	0.391541	-0.116455	0.999866	0.006943	-0.014781	0.000755	
 7112	    0	-2.987820	53.874731	-1.661699	-0.040627	-1.189437	-1.238075	-0.026443	0.538915	-0.016891	0.999963	-0.000203	-0.005947	-0.006190	
 7113	    0	-1.665809	37.128770	-7.805870	-1.960042	-0.448429	-1.447333	-0.013794	0.370605	-0.081726	0.999923	-0.009800	-0.002242	-0.007236	
 7114	    0	18.845111	26.617958	-12.946684	-3.315594	0.222413	-2.524941	0.191626	0.261577	-0.134041	0.999782	-0.016577	0.001112	-0.012624	
 7115	    0	19.716165	9.992245	-10.707542	-3.094713	0.129900	-2.878785	0.198486	0.095398	-0.108704	0.999776	-0.015472	0.000649	-0.014393	
 7116	    0	13.613239	-3.478454	-11.590297	-2.554678	-0.516162	-2.972033	0.135879	-0.038279	-0.115078	0.999804	-0.012773	-0.002581	-0.014859	
 7117	    0	13.387521	3.722299	-16.677032	-2.472843	-0.758219	-2.909272	0.135010	0.033203	-0.166687	0.999810	-0.012363	-0.003791	-0.014545	
 7118	    0	16.260784	8.765473	-15.084792	-2.407608	-0.419262	-3.031731	0.164210	0.083352	-0.151525	0.999810	-0.012037	-0.002096	-0.015158	
 7119	    0	20.607175	-2.629207	-15.559680	-2.744318	-0.388367	-3.341174	0.205872	-0.031860	-0.154785	0.999763	-0.013721	-0.001942	-0.016705	
 7120	    0	24.956100	-11.192305	-14.253897	-1.972524	-0.459702	-3.505374	0.247857	-0.117672	-0.140826	0.999795	-0.009862	-0.002298	-0.017526	
 7121	    0	23.152840	-12.416290	-9.028544	-1.154400	-0.540767	-3.673785	0.229431	-0.128906	-0.088928	0.999810	-0.005772	-0.002704	-0.018368	
 7122	    0	20.315955	-8.196545	-5.171181	-0.651017	-0.421740	-3.706391	0.201700	-0.085879	-0.051010	0.999821	-0.003255	-0.002109	-0.018531	
 7123	    0	18.638081	-6.188534	1.055588	-0.483538	-0.231183	-3.518099	0.185242	-0.065125	0.010925	0.999842	-0.002418	-0.001156	-0.017590	
 7124	    0	20.050693	-7.594495	4.807311	-0.614768	-0.147254	-3.307499	0.199181	-0.079098	0.048460	0.999858	-0.003074	-0.000736	-0.016537	
 7125	    0	19.603499	-7.037223	7.993085	-0.711091	-0.012780	-3.168627	0.194885	-0.073181	0.080200	0.999867	-0.003555	-0.000064	-0.015842	
 7126	    0	15.834003	-6.981033	8.862071	-1.312506	0.118833	-3.029389	0.157317	-0.071615	0.088993	0.999863	-0.006562	0.000594	-0.015146	
 7127	    0	12.819620	-6.351824	8.161275	-2.238580	0.276389	-2.710101	0.127441	-0.064331	0.082153	0.999845	-0.011192	0.001382	-0.013550	
 7128	    0	11.683207	-8.389213	5.550941	-3.185481	0.266093	-2.341805	0.115921	-0.084356	0.056696	0.999804	-0.015926	0.001330	-0.011708	
 7129	    0	10.456112	-12.554287	1.660445	-4.162980	0.121509	-2.160843	0.103210	-0.126282	0.019165	0.999724	-0.020813	0.000607	-0.010803	
 7130	    0	9.064011	-18.760053	-0.373587	-5.059677	0.035863	-2.017461	0.088741	-0.188517	0.001010	0.999629	-0.025295	0.000179	-0.010086	
 7131	    0	7.835339	-25.067266	-0.912982	-5.350437	0.084125	-1.735153	0.076172	-0.251465	-0.002441	0.999604	-0.026749	0.000421	-0.008675	
 7132	    0	6.271133	-25.697428	-3.259871	-3.667312	0.332473	-1.549442	0.060666	-0.257991	-0.027976	0.999800	-0.018335	0.001662	-0.007747	
 7133	    0	2.648264	-27.808494	-2.231585	-1.019298	0.770768	-0.988780	0.025024	-0.278320	-0.020996	0.999967	-0.005096	0.003854	-0.004944	
 7134	    0	-2.664342	-26.550312	0.340022	1.898229	0.735487	-0.548373	-0.027365	-0.265446	0.000980	0.999944	0.009491	0.003677	-0.002742	
 7135	    0	-5.455496	-24.687437	2.103764	3.203914	0.482962	-0.143439	-0.054688	-0.247131	0.017212	0.999868	0.016019	0.002415	-0.000717	
 7136	    0	-3.117852	-17.715970	3.257665	2.832703	0.577184	0.232514	-0.030883	-0.177634	0.030152	0.999894	0.014163	0.002886	0.001163	
 7137	    0	1.993562	-9.797867	4.514594	1.629094	0.943009	0.737775	0.020508	-0.098267	0.044250	0.999949	0.008145	0.004715	0.003689	
 7138	    0	6.057675	-3.651282	5.281506	0.640116	1.237888	1.269359	0.061132	-0.036294	0.052321	0.999955	0.003201	0.006189	0.006347	
 7139	    0	6.570657	-2.402735	7.824454	-0.063897	1.490049	1.522093	0.066467	-0.023499	0.077759	0.999943	-0.000319	0.007450	0.007610	
 7140	    0	5.930954	-3.076383	9.641290	-0.605598	1.723142	1.620524	0.060383	-0.029986	0.095987	0.999925	-0.003028	0.008615	0.008102	
 7141	    0	6.849562	-3.471424	8.977701	-0.585192	1.858004	1.845606	0.069641	-0.033813	0.089233	0.999909	-0.002926	0.009290	0.009228	
 7142	    0	7.913060	-2.639603	6.925735	-0.718906	1.978564	2.056387	0.080075	-0.025329	0.068561	0.999891	-0.003594	0.009892	0.010282	
 7143	    0	9.813888	-1.825084	0.677257	-1.244979	1.955496	2.159209	0.098389	-0.017151	0.005920	0.999874	-0.006225	0.009777	0.010796	
 7144	    0	16.435878	-4.570834	-8.836297	-1.371634	1.530904	2.483094	0.164233	-0.044279	-0.089314	0.999869	-0.006858	0.007654	0.012415	
 7145	    0	31.184090	-9.951125	-16.180378	-0.592830	1.240022	2.945076	0.312256	-0.095398	-0.163452	0.999867	-0.002964	0.006200	0.014725	
 7146	    0	38.228848	-10.959151	-15.799043	0.809516	1.313843	2.961487	0.382798	-0.103278	-0.160931	0.999860	0.004047	0.006569	0.014807	
 7147	    0	31.031683	-14.568105	-9.675634	2.214398	1.609154	3.090124	0.311707	-0.139771	-0.100830	0.999786	0.011071	0.008045	0.015450	
 7148	    0	22.698767	-13.267221	-4.424138	2.915276	1.630555	3.387771	0.228803	-0.128125	-0.047992	0.999717	0.014575	0.008152	0.016937	
 7149	    0	20.474906	-4.287993	-2.379765	3.016982	1.440010	3.767793	0.205322	-0.038635	-0.025879	0.999682	0.015083	0.007199	0.018837	
 7150	    0	21.793634	1.874219	-1.000372	3.244195	1.026079	3.945225	0.217454	0.023206	-0.010768	0.999660	0.016219	0.005130	0.019724	
 7151	    0	25.252772	5.140775	-3.151729	2.682929	0.566152	3.772314	0.251404	0.056580	-0.031494	0.999727	0.013413	0.002831	0.018860	
 7152	    0	29.807260	10.096748	-5.889945	1.529032	0.355744	3.674942	0.296041	0.106869	-0.058625	0.999800	0.007645	0.001779	0.018373	
 7153	    0	32.264343	10.671888	-5.713601	0.708049	0.429751	3.655457	0.320496	0.112793	-0.057434	0.999824	0.003540	0.002149	0.018276	
 7154	    0	27.617057	5.920982	-3.381605	0.559080	0.562895	3.878847	0.274856	0.064645	-0.034415	0.999804	0.002795	0.002814	0.019393	
 7155	    0	20.757822	2.968762	-1.463403	1.298806	0.511969	3.890505	0.206909	0.033813	-0.014954	0.999786	0.006494	0.002560	0.019451	
 7156	    0	14.149577	4.919661	-1.947292	1.898518	0.334573	3.637571	0.140535	0.051942	-0.019224	0.999787	0.009492	0.001673	0.018187	
 7157	    0	11.531120	7.213231	-2.925577	2.513291	0.193990	3.119869	0.114136	0.074280	-0.028442	0.999799	0.012566	0.000970	0.015598	
 7158	    0	12.127008	8.673015	-3.131170	2.968213	0.110061	2.526443	0.120141	0.088705	-0.030071	0.999809	0.014840	0.000550	0.012631	
 7159	    0	13.168565	9.477289	-3.267185	3.072719	-0.012971	1.980701	0.130737	0.096558	-0.031189	0.999832	0.015363	-0.000065	0.009903	
 7160	    0	13.223310	11.338267	-4.124648	2.947180	-0.189218	1.525186	0.131398	0.114977	-0.039435	0.999862	0.014735	-0.000946	0.007626	
 7161	    0	11.518483	14.281578	-5.418032	2.591221	-0.338757	1.159707	0.114441	0.144165	-0.052124	0.999897	0.012956	-0.001694	0.005798	
 7162	    0	8.106425	17.604666	-6.388817	1.551459	-0.340657	0.925840	0.080354	0.176908	-0.062381	0.999957	0.007757	-0.001703	0.004629	
 7163	    0	3.924636	21.010980	-6.591466	-0.025749	-0.122834	0.852206	0.038391	0.210266	-0.065918	0.999990	-0.000129	-0.000614	0.004261	
 7164	    0	-1.471814	24.205692	-4.181540	-1.264394	0.407032	0.735481	-0.015695	0.241730	-0.043313	0.999970	-0.006322	0.002035	0.003677	
 7165	    0	-5.551013	24.090440	0.991841	-1.585978	0.393681	0.243380	-0.055786	0.240906	0.008118	0.999966	-0.007930	0.001968	0.001217	
 7166	    0	-10.268454	23.155074	0.378947	-2.337129	-0.382051	-0.142673	-0.102523	0.231646	0.000887	0.999929	-0.011685	-0.001910	-0.000713	
 7167	    0	-12.663621	21.003816	-2.479958	-2.374146	-1.145205	-0.190740	-0.126282	0.209839	-0.028015	0.999912	-0.011870	-0.005726	-0.000954	
 7168	    0	-10.337672	12.840890	-1.380918	-0.745209	-1.380553	-0.174715	-0.103164	0.128445	-0.015000	0.999969	-0.003726	-0.006903	-0.000874	
 7169	    0	-5.183158	-0.720735	2.485128	1.075758	-1.298348	-0.294498	-0.052002	-0.007263	0.024475	0.999963	0.005379	-0.006492	-0.001472	
 7170	    0	-1.575163	-10.053384	2.171020	2.366337	-1.458408	-0.651572	-0.016232	-0.100728	0.020402	0.999898	0.011831	-0.007292	-0.003258	
 7171	    0	0.164420	-10.016634	1.624274	1.377141	-1.851511	-0.918603	0.001038	-0.100281	0.015564	0.999923	0.006886	-0.009257	-0.004593	
 7172	    0	4.777000	-5.020838	3.095219	1.024275	-2.178825	-0.952175	0.047191	-0.050593	0.031210	0.999916	0.005121	-0.010894	-0.004761	
 7173	    0	12.739915	-1.684304	4.426931	1.505337	-2.578643	-0.524922	0.126770	-0.017517	0.045776	0.999885	0.007526	-0.012893	-0.002625	
 7174	    0	15.782138	-8.542709	-0.777651	1.411900	-3.360939	0.572428	0.158173	-0.084929	-0.005721	0.999829	0.007059	-0.016804	0.002862	
 7175	    0	8.780771	-19.439727	-16.469297	-3.269995	-2.295082	0.867523	0.090515	-0.196655	-0.160461	0.999790	-0.016349	-0.011475	0.004337	
 7176	    0	6.632540	-15.867244	-14.181752	-6.064215	0.135824	0.777366	0.066858	-0.162616	-0.136971	0.999532	-0.030316	0.000679	0.003886	
 7177	    0	19.028225	-23.123485	24.069530	-2.284221	3.564720	0.228136	0.194824	-0.228271	0.239868	0.999775	-0.011420	0.017822	0.001141	
 7178	    0	39.112824	-35.181198	-3.451346	1.670142	1.850966	-1.861647	0.387473	-0.355105	-0.041067	0.999879	0.008350	0.009254	-0.009308	
 7179	    0	33.254573	-54.998003	-35.938362	0.397498	-1.744679	0.698100	0.337585	-0.548096	-0.357544	0.999953	0.001987	-0.008723	0.003490	
 7180	    0	11.875112	36.434248	19.236529	1.547298	-2.369968	0.889239	0.114821	0.363349	0.196555	0.999889	0.007736	-0.011849	0.004446	
 7181	    0	-5.430287	60.244813	-17.983902	2.075317	-3.104392	-0.361655	-0.050476	0.604370	-0.174377	0.999824	0.010376	-0.015521	-0.001808	
 7182	    0	-12.000806	53.296769	-11.995083	-1.346617	-0.793856	-1.658094	-0.115102	0.533110	-0.124003	0.999934	-0.006733	-0.003969	-0.008290	
 7183	    0	-5.035435	38.805985	-12.254111	-1.989621	-0.543231	-1.903596	-0.046326	0.387268	-0.126526	0.999901	-0.009948	-0.002716	-0.009518	
 7184	    0	13.987131	21.106276	-19.299494	-2.501125	0.287843	-3.712393	0.143446	0.205985	-0.195797	0.999748	-0.012505	0.001439	-0.018560	
 7185	    0	31.043393	2.181597	-9.718143	-1.802004	-0.187697	-3.775300	0.310852	0.015076	-0.097046	0.999781	-0.009009	-0.000938	-0.018875	
 7186	    0	23.663266	-14.273634	-11.216613	-1.335030	-1.064553	-3.306580	0.234811	-0.147367	-0.109940	0.999826	-0.006675	-0.005322	-0.016532	
 7187	    0	8.181527	6.807340	-10.266669	-0.711101	-1.614283	-3.283118	0.083740	0.066345	-0.102234	0.999825	-0.003555	-0.008071	-0.016415	
 7188	    0	13.916776	18.278607	-11.348997	-0.954492	-1.066079	-3.430755	0.142875	0.179814	-0.113598	0.999826	-0.004772	-0.005330	-0.017153	
 7189	    0	24.065802	8.774689	-13.911092	-2.465239	-0.612495	-3.356418	0.242493	0.081970	-0.139404	0.999778	-0.012325	-0.003062	-0.016781	
 7190	    0	24.912111	-4.421029	-13.662426	-2.694727	-0.305009	-3.439797	0.248498	-0.050320	-0.135594	0.999760	-0.013473	-0.001525	-0.017198	
 7191	    0	25.590001	-11.373515	-8.850397	-2.024796	-0.411254	-3.599044	0.253967	-0.119202	-0.086792	0.999784	-0.010123	-0.002056	-0.017994	
 7192	    0	24.184319	-11.765468	-4.646383	-1.143148	-0.444822	-3.737118	0.239687	-0.122408	-0.045238	0.999806	-0.005715	-0.002224	-0.018684	
 7193	    0	21.709122	-9.106477	0.977244	-0.611723	-0.463132	-3.703529	0.215332	-0.095032	0.010559	0.999821	-0.003058	-0.002316	-0.018517	
 7194	    0	21.850544	-8.343532	3.498256	-0.681724	-0.369283	-3.540424	0.216919	-0.087164	0.035677	0.999835	-0.003408	-0.001846	-0.017701	
 7195	    0	20.970419	-7.731254	5.022662	-0.761453	-0.124175	-3.418144	0.208313	-0.080688	0.050659	0.999846	-0.003807	-0.000621	-0.017090	
 7196	    0	17.935761	-8.114338	6.126451	-0.955056	0.112921	-3.299876	0.178024	-0.083795	0.061560	0.999852	-0.004775	0.000565	-0.016499	
 7197	    0	13.755520	-8.372276	4.383635	-1.431153	0.193796	-3.077083	0.136292	-0.085510	0.044312	0.999855	-0.007155	0.000969	-0.015385	
 7198	    0	9.769093	-9.089769	1.874007	-2.019217	0.263227	-2.738513	0.096461	-0.092030	0.019538	0.999854	-0.010096	0.001316	-0.013692	
 7199	    0	6.983427	-10.982352	-0.508574	-2.524697	0.267996	-2.440006	0.068481	-0.110718	-0.003784	0.999845	-0.012623	0.001340	-0.012199	
 7200	    0	5.890265	-13.096716	-0.959171	-2.762366	0.202380	-2.199288	0.057448	-0.131721	-0.007834	0.999844	-0.013811	0.001012	-0.010996	
 7201	    0	6.508724	-16.100333	0.183671	-2.749579	0.086216	-2.073009	0.063416	-0.161621	0.004028	0.999851	-0.013747	0.000431	-0.010365	
 7202	    0	6.891459	-19.393112	1.127999	-2.437688	-0.091175	-1.888159	0.067075	-0.194413	0.013679	0.999881	-0.012188	-0.000456	-0.009440	
 7203	    0	6.107341	-21.537982	1.165691	-2.021652	-0.062563	-1.503793	0.059448	-0.215698	0.013855	0.999920	-0.010108	-0.000313	-0.007519	
 7204	    0	4.842224	-19.446551	0.897916	-0.467113	0.160218	-1.212319	0.047250	-0.194733	0.009396	0.999978	-0.002336	0.000801	-0.006062	
 7205	    0	3.063152	-18.921018	1.545499	1.446742	0.312809	-0.917828	0.029785	-0.189453	0.014038	0.999962	0.007234	0.001564	-0.004589	
 7206	    0	-0.055247	-19.450110	3.117384	2.547909	0.315103	-0.550858	-0.001042	-0.194875	0.028694	0.999913	0.012739	0.001575	-0.002754	
 7207	    0	-2.350944	-18.994552	4.388648	2.347047	0.283820	-0.115970	-0.023560	-0.190430	0.041687	0.999929	0.011735	0.001419	-0.000580	
 7208	    0	-1.299429	-11.329643	4.676716	1.433005	0.373844	0.382809	-0.012691	-0.113652	0.045978	0.999970	0.007165	0.001869	0.001914	
 7209	    0	2.624475	-3.910455	6.273890	0.144197	0.668530	1.117714	0.026672	-0.039001	0.062622	0.999978	0.000721	0.003343	0.005589	
 7210	    0	6.213076	-4.131511	8.762365	-0.778976	1.039143	1.706347	0.062933	-0.040440	0.087457	0.999942	-0.003895	0.005196	0.008532	
 7211	    0	6.614060	-8.342542	10.278871	-1.031521	1.287303	1.847887	0.067566	-0.082275	0.102783	0.999923	-0.005157	0.006436	0.009239	
 7212	    0	7.372031	-9.044774	6.198301	-0.721378	1.428450	1.916363	0.075023	-0.089510	0.061774	0.999922	-0.003607	0.007142	0.009582	
 7213	    0	10.223112	-7.580824	-1.459609	-0.613994	1.382488	2.233191	0.102966	-0.074707	-0.015076	0.999908	-0.003070	0.006912	0.011166	
 7214	    0	19.400594	-7.016159	-8.789337	-0.629070	1.259665	2.825282	0.194416	-0.067696	-0.088902	0.999875	-0.003145	0.006298	0.014126	
 7215	    0	32.454609	-6.910082	-11.356761	-0.094419	1.308512	3.346433	0.324890	-0.063721	-0.115662	0.999838	-0.000472	0.006542	0.016731	
 7216	    0	36.389412	-6.301547	-7.516228	0.571668	1.588919	3.457283	0.364295	-0.056499	-0.078223	0.999814	0.002858	0.007944	0.017285	
 7217	    0	27.300738	-11.035511	-1.294565	1.271146	1.636048	3.539524	0.274780	-0.105408	-0.015869	0.999789	0.006355	0.008180	0.017696	
 7218	    0	20.508558	-10.743254	0.608285	1.373393	1.482120	3.717509	0.207069	-0.103627	0.003833	0.999776	0.006866	0.007410	0.018586	
 7219	    0	19.397813	-0.793253	1.094357	1.127145	1.308548	4.081297	0.194153	-0.004028	0.009644	0.999754	0.005635	0.006542	0.020405	
 7220	    0	23.009756	4.795449	0.507175	0.991711	1.010214	4.193076	0.229048	0.052742	0.004167	0.999755	0.004958	0.005051	0.020964	
 7221	    0	28.901985	7.658047	-2.020907	0.102241	0.660181	4.118646	0.287292	0.082520	-0.021118	0.999782	0.000511	0.003301	0.020592	
 7222	    0	35.795188	8.946953	-4.415253	-0.762422	0.281354	4.088698	0.355963	0.096590	-0.045013	0.999783	-0.003812	0.001407	0.020442	
 7223	    0	38.540866	6.388199	-5.394536	-1.014796	0.107774	4.410167	0.383850	0.072083	-0.054504	0.999743	-0.005074	0.000539	0.022049	
 7224	    0	32.690730	1.928425	-3.735235	-0.426524	0.104342	4.762340	0.326306	0.026979	-0.037575	0.999714	-0.002132	0.000522	0.023809	
 7225	    0	24.483744	0.700471	-2.162591	0.740314	0.067145	4.785624	0.244568	0.012939	-0.021667	0.999706	0.003701	0.000336	0.023926	
 7226	    0	18.878791	2.734810	-2.004151	2.113183	0.016405	4.554846	0.188095	0.031847	-0.019736	0.999684	0.010565	0.000082	0.022772	
 7227	    0	16.119114	4.814676	-2.728650	3.186586	-0.064094	4.121102	0.160156	0.051880	-0.026428	0.999660	0.015931	-0.000320	0.020603	
 7228	    0	14.887676	7.398798	-3.442417	3.650876	-0.206398	3.612153	0.147535	0.077271	-0.032881	0.999669	0.018252	-0.001032	0.018059	
 7229	    0	14.261316	10.213286	-4.640267	3.624493	-0.374638	3.042888	0.141113	0.105103	-0.044250	0.999718	0.018121	-0.001873	0.015213	
 7230	    0	13.393378	14.518813	-6.417853	2.895717	-0.474767	2.350373	0.132357	0.147655	-0.061737	0.999823	0.014478	-0.002374	0.011751	
 7231	    0	11.417456	18.073235	-6.092364	2.376069	-0.407424	1.652586	0.112793	0.182373	-0.058533	0.999893	0.011880	-0.002037	0.008263	
 7232	    0	5.504538	19.892144	-6.245321	1.573403	-0.630201	1.378468	0.053864	0.199778	-0.060713	0.999940	0.007867	-0.003151	0.006892	
 7233	    0	-3.042656	20.357680	-6.614896	0.254252	-0.566870	1.473252	-0.031738	0.203430	-0.065979	0.999968	0.001271	-0.002834	0.007366	
 7234	    0	-9.564975	21.523688	-4.437633	-0.700574	-0.176431	1.143464	-0.096838	0.214528	-0.045214	0.999977	-0.003503	-0.000882	0.005717	
 7235	    0	-11.609306	24.286571	-1.446151	-1.198395	-0.234224	0.061798	-0.116150	0.242737	-0.016052	0.999981	-0.005992	-0.001171	0.000309	
 7236	    0	-12.335413	28.203180	-4.157933	-2.313482	-0.631348	-0.597015	-0.122374	0.281889	-0.045228	0.999923	-0.011567	-0.003157	-0.002985	
 7237	    0	-13.208409	27.090628	-8.152971	-3.533946	-0.930076	-0.568422	-0.130920	0.269775	-0.086914	0.999828	-0.017669	-0.004650	-0.002842	
 7238	    0	-11.080887	20.215775	-6.272951	-2.148877	-1.310002	-0.376521	-0.110005	0.201671	-0.065620	0.999919	-0.010744	-0.006550	-0.001883	
 7239	    0	-6.500081	5.372503	-1.897617	0.230409	-1.149566	-0.264742	-0.064819	0.053833	-0.019287	0.999982	0.001152	-0.005748	-0.001324	
 7240	    0	-0.730427	-7.899557	7.867774	2.121214	-0.989938	-0.601020	-0.007930	-0.079801	0.077796	0.999927	0.010606	-0.004950	-0.003005	
 7241	    0	3.835873	-14.591731	10.758959	1.473273	-1.620333	-1.104001	0.036682	-0.146912	0.106812	0.999925	0.007366	-0.008101	-0.005520	
 7242	    0	9.269869	-15.422935	11.331673	0.814466	-2.290804	-1.499227	0.090236	-0.155375	0.113729	0.999898	0.004072	-0.011454	-0.007496	
 7243	    0	12.659491	-11.026045	10.979909	2.091332	-2.745779	-1.133027	0.124451	-0.112122	0.110352	0.999835	0.010456	-0.013728	-0.005665	
 7244	    0	16.613293	-14.398176	4.988962	5.365513	-4.494631	0.112175	0.165095	-0.145225	0.049723	0.999387	0.026822	-0.022469	0.000561	
 7245	    0	16.299740	-19.114534	-22.605451	0.932332	-2.016301	0.333412	0.165588	-0.189819	-0.225281	0.999936	0.004662	-0.010081	0.001667	
 7246	    0	4.102762	-7.134147	-10.244414	-5.798207	0.586211	0.078594	0.040760	-0.074257	-0.100439	0.999575	-0.028987	0.002931	0.000393	
 7247	    0	1.967594	-2.060231	-1.775403	-6.816696	1.144065	0.148803	0.019592	-0.021179	-0.017151	0.999402	-0.034077	0.005719	0.000744	
 7248	    0	-1.771916	6.030880	24.864302	-4.043532	1.570831	-1.007163	-0.015451	0.065402	0.247482	0.999752	-0.020216	0.007854	-0.005035	
 7249	    0	41.414143	-11.862954	10.508417	6.242850	0.805037	-0.898894	0.414001	-0.123657	0.099609	0.999495	0.031209	0.004025	-0.004494	
 7250	    0	50.912456	-68.535715	-57.818078	0.311109	-3.943321	0.394275	0.521753	-0.683447	-0.569040	0.999802	0.001555	-0.019715	0.001971	
 7251	    0	11.816433	17.412621	11.618524	-0.369837	0.237275	0.996404	0.117432	0.174927	0.115723	0.999985	-0.001849	0.001186	0.004982	
 7252	    0	8.869615	47.535212	-11.001932	0.155837	-3.241874	0.389498	0.089534	0.475611	-0.108202	0.999866	0.000779	-0.016209	0.001947	
 7253	    0	-2.450273	58.729742	-3.017396	-0.608831	-0.186731	-1.267253	-0.020752	0.587341	-0.031982	0.999974	-0.003044	-0.000934	-0.006336	
 7254	    0	-5.558008	30.861139	-7.835683	-1.646466	-0.291069	-1.865054	-0.052587	0.308452	-0.080975	0.999921	-0.008232	-0.001455	-0.009325	
 7255	    0	16.803242	24.626088	-14.097439	-2.557549	0.380161	-3.132082	0.171570	0.241760	-0.144409	0.999793	-0.012787	0.001901	-0.015659	
 7256	    0	27.944683	12.257280	-5.699821	-1.596734	-0.177394	-3.364567	0.281502	0.117390	-0.057700	0.999825	-0.007983	-0.000887	-0.016822	
 7257	    0	17.340828	-4.354896	-11.181372	-2.128543	-0.839286	-3.109934	0.173157	-0.047424	-0.110596	0.999813	-0.010642	-0.004196	-0.015549	
 7258	    0	9.856058	10.338874	-15.109260	-1.885905	-1.083628	-3.042208	0.100924	0.100438	-0.151506	0.999825	-0.009429	-0.005418	-0.015210	
 7259	    0	15.387297	11.971536	-14.362810	-1.910322	-0.434901	-3.210638	0.156067	0.115845	-0.144409	0.999823	-0.009551	-0.002174	-0.016052	
 7260	    0	23.468369	0.644516	-13.517929	-2.460852	-0.167478	-3.411354	0.234842	0.000778	-0.135015	0.999778	-0.012303	-0.000837	-0.017056	
 7261	    0	25.568024	-11.710834	-12.072276	-1.833276	-0.228897	-3.566219	0.253662	-0.122742	-0.119324	0.999798	-0.009166	-0.001144	-0.017830	
 7262	    0	24.782894	-13.658869	-8.064635	-0.964989	-0.499566	-3.745126	0.245408	-0.141584	-0.079356	0.999809	-0.004825	-0.002498	-0.018724	
 7263	    0	21.413676	-6.343115	-5.718862	-0.636903	-0.430324	-3.763049	0.213013	-0.067627	-0.056519	0.999815	-0.003184	-0.002151	-0.018814	
 7264	    0	20.322723	-3.381473	-0.771008	-0.876668	-0.189792	-3.629705	0.202576	-0.037528	-0.007359	0.999825	-0.004383	-0.000949	-0.018147	
 7265	    0	20.997116	-5.830294	2.446587	-1.236794	-0.000572	-3.457073	0.208923	-0.061768	0.024841	0.999831	-0.006184	-0.000003	-0.017284	
 7266	    0	18.983692	-7.572756	4.983946	-1.267122	0.141724	-3.407857	0.188549	-0.078630	0.050198	0.999834	-0.006335	0.000709	-0.017038	
 7267	    0	14.115253	-7.413571	5.089328	-1.508226	0.274674	-3.363992	0.139954	-0.076111	0.051270	0.999828	-0.007541	0.001373	-0.016819	
 7268	    0	10.584425	-7.534719	4.343034	-2.085619	0.369475	-3.130336	0.104733	-0.076535	0.044030	0.999821	-0.010427	0.001847	-0.015651	
 7269	    0	9.186556	-10.332473	1.901835	-2.742751	0.263231	-2.765068	0.090454	-0.104309	0.020325	0.999809	-0.013713	0.001316	-0.013824	
 7270	    0	8.639793	-16.112569	-0.341360	-3.469538	-0.007439	-2.460474	0.084407	-0.162199	-0.000603	0.999773	-0.017346	-0.000037	-0.012301	
 7271	    0	9.151007	-23.647989	-1.155829	-3.940924	-0.240156	-2.287491	0.088806	-0.237671	-0.006775	0.999740	-0.019703	-0.001201	-0.011436	
 7272	    0	8.978758	-29.160279	-0.306071	-3.528085	-0.273343	-2.163851	0.086625	-0.292543	0.002214	0.999784	-0.017639	-0.001367	-0.010818	
 7273	    0	7.687143	-30.288205	-2.317718	-1.608123	0.038911	-1.745646	0.074219	-0.303711	-0.020752	0.999929	-0.008040	0.000195	-0.008728	
 7274	    0	3.847638	-28.609650	-1.233182	1.388187	0.561913	-1.012434	0.036989	-0.286191	-0.014423	0.999959	0.006941	0.002810	-0.005062	
 7275	    0	-2.042098	-26.397355	2.651079	4.261540	0.531047	-0.527232	-0.021057	-0.264404	0.020935	0.999765	0.021306	0.002655	-0.002636	
 7276	    0	-4.564286	-23.205756	6.078603	4.442774	0.376923	-0.112543	-0.045666	-0.233307	0.055698	0.999751	0.022212	0.001884	-0.000563	
 7277	    0	-2.387114	-14.616103	8.100265	2.514911	0.576799	0.443280	-0.023315	-0.147217	0.079224	0.999914	0.012574	0.002884	0.002216	
 7278	    0	2.670154	-5.499112	8.133669	0.415807	0.931941	1.258292	0.027426	-0.054989	0.081096	0.999967	0.002079	0.004660	0.006291	
 7279	    0	7.427112	-0.328152	9.075154	-0.747700	1.312481	1.998191	0.074890	-0.002197	0.090271	0.999921	-0.003738	0.006562	0.009991	
 7280	    0	9.626658	-2.579553	11.425450	-1.398715	1.678916	2.200024	0.097492	-0.023932	0.113611	0.999879	-0.006993	0.008394	0.011000	
 7281	    0	10.592058	-5.968290	10.868173	-1.361142	1.956451	2.140900	0.107605	-0.057800	0.108032	0.999871	-0.006805	0.009782	0.010704	
 7282	    0	9.261505	-5.719295	9.606807	-1.177461	2.177720	2.224071	0.094280	-0.055588	0.095378	0.999861	-0.005887	0.010888	0.011120	
 7283	    0	9.417603	-3.149908	5.564574	-1.583185	2.272348	2.308780	0.095154	-0.029968	0.054810	0.999837	-0.007915	0.011361	0.011543	
 7284	    0	12.098141	-3.159475	-3.090257	-2.321012	2.029360	2.459495	0.121041	-0.030472	-0.031773	0.999805	-0.011604	0.010146	0.012297	
 7285	    0	22.121628	-7.135490	-12.998609	-2.214007	1.602279	2.912333	0.221191	-0.069580	-0.130981	0.999800	-0.011069	0.008011	0.014561	
 7286	    0	33.813081	-11.679112	-16.652076	-0.874567	1.459010	3.189451	0.338719	-0.112126	-0.168493	0.999836	-0.004373	0.007295	0.015946	
 7287	    0	33.272701	-14.812742	-14.653365	1.026977	1.430023	3.308299	0.334045	-0.141846	-0.149658	0.999824	0.005135	0.007150	0.016541	
 7288	    0	28.330606	-17.150899	-9.802587	2.589650	1.509803	3.560960	0.285522	-0.165132	-0.102342	0.999729	0.012947	0.007548	0.017803	
 7289	    0	26.237964	-11.355983	-6.366639	3.587028	1.424777	3.896057	0.264038	-0.107239	-0.067505	0.999623	0.017933	0.007123	0.019478	
 7290	    0	26.143377	-3.099829	-4.564495	4.517145	1.181032	4.150112	0.261709	-0.024506	-0.047792	0.999512	0.022582	0.005904	0.020747	
 7291	    0	28.959913	2.284824	-6.051513	4.450344	0.912617	4.071676	0.288757	0.030090	-0.061218	0.999535	0.022248	0.004562	0.020355	
 7292	    0	31.572111	12.095402	-8.714596	3.167523	0.763792	4.179871	0.312752	0.128883	-0.086345	0.999648	0.015836	0.003819	0.020897	
 7293	    0	32.327963	15.087862	-8.881124	2.074068	0.778276	4.374370	0.319519	0.158813	-0.088440	0.999699	0.010369	0.003891	0.021870	
 7294	    0	29.222874	10.649081	-8.049189	0.961777	0.735162	4.628623	0.289357	0.113599	-0.081024	0.999713	0.004808	0.003675	0.023141	
 7295	    0	24.651953	6.294507	-7.391335	0.781516	0.711128	4.674977	0.244690	0.068970	-0.074524	0.999712	0.003907	0.003555	0.023373	
 7296	    0	18.190430	6.150887	-5.091247	1.314476	0.674501	4.484212	0.180287	0.065899	-0.051099	0.999721	0.006572	0.003372	0.022419	
 7297	    0	13.050642	8.241273	-3.544877	2.067166	0.329617	3.946251	0.128784	0.085327	-0.034790	0.999750	0.010335	0.001648	0.019730	
 7298	    0	10.827420	10.000162	-3.564702	2.641105	-0.035098	3.205530	0.106654	0.102179	-0.034288	0.999784	0.013205	-0.000175	0.016026	
 7299	    0	11.056198	11.470192	-4.753480	2.841353	-0.200474	2.441549	0.109192	0.116699	-0.045776	0.999824	0.014206	-0.001002	0.012207	
 7300	    0	12.077487	14.117712	-6.508743	2.668682	-0.173957	1.675103	0.119637	0.143033	-0.063083	0.999875	0.013343	-0.000870	0.008375	
 7301	    0	10.124469	18.079296	-7.249233	2.064563	0.001717	1.194792	0.100159	0.182129	-0.070618	0.999928	0.010323	0.000009	0.005974	
 7302	    0	3.583193	21.903724	-7.520095	0.844391	0.236323	1.138125	0.034495	0.219551	-0.074316	0.999973	0.004222	0.001182	0.005691	
 7303	    0	-1.356472	26.539222	-5.386707	-0.735287	0.454714	0.769810	-0.014709	0.265137	-0.054810	0.999983	-0.003676	0.002274	0.003849	
 7304	    0	-3.682674	28.618042	-0.189860	-1.466002	0.364116	0.004768	-0.036839	0.286156	-0.003929	0.999971	-0.007330	0.001821	0.000024	
 7305	    0	-7.631354	27.650008	0.847060	-2.402367	-0.375376	-0.419627	-0.075745	0.276733	0.005005	0.999924	-0.012012	-0.001877	-0.002098	
 7306	    0	-10.728686	23.464769	-1.421595	-2.843588	-1.088758	-0.512334	-0.106594	0.234682	-0.018134	0.999881	-0.014217	-0.005444	-0.002562	
 7307	    0	-9.488926	15.101655	-2.707685	-2.042250	-1.306185	-0.453960	-0.094360	0.150940	-0.029236	0.999924	-0.010211	-0.006531	-0.002270	
 7308	    0	-5.770808	2.897511	1.036349	-0.680929	-1.058014	-0.487141	-0.057691	0.029150	0.009959	0.999977	-0.003405	-0.005290	-0.002436	
 7309	    0	-2.949947	-7.773698	5.165722	1.243040	-1.395440	-0.756849	-0.030151	-0.077942	0.050964	0.999949	0.006215	-0.006977	-0.003784	
 7310	    0	-1.436092	-11.207406	2.780371	1.231042	-2.237773	-1.069866	-0.015265	-0.112162	0.026946	0.999904	0.006155	-0.011189	-0.005349	
 7311	    0	1.391372	-7.142126	3.029458	1.079794	-2.722278	-1.063581	0.013123	-0.071655	0.030090	0.999878	0.005399	-0.013611	-0.005318	
 7312	    0	8.406956	-3.170054	3.472345	2.124348	-3.159913	-0.813345	0.083380	-0.032416	0.035703	0.999810	0.010621	-0.015799	-0.004066	
 7313	    0	15.015316	-5.795602	-1.171196	2.849327	-4.338561	-0.146501	0.150330	-0.057922	-0.009277	0.999662	0.014245	-0.021690	-0.000732	
 7314	    0	10.621402	-19.121373	-19.416185	-1.118543	-3.782139	0.435286	0.110264	-0.192051	-0.191030	0.999803	-0.005592	-0.018909	0.002176	
 7315	    0	5.376338	-19.638906	-19.647193	-5.372317	-0.461634	0.112929	0.054321	-0.201538	-0.190979	0.999636	-0.026858	-0.002308	0.000565	
 7316	    0	6.115657	-12.714969	-9.925606	-2.954473	2.412181	-0.391030	0.059718	-0.128722	-0.098088	0.999816	-0.014771	0.012060	-0.001955	
 7317	    0	6.725493	-10.119071	25.332020	-0.831641	3.031485	-0.934643	0.070618	-0.100464	0.252686	0.999866	-0.004158	0.015157	-0.004673	
 7318	    0	35.065096	-8.876360	21.970925	3.881734	0.750405	-1.293657	0.350865	-0.095257	0.216586	0.999784	0.019407	0.003752	-0.006468	
 7319	    0	42.476899	-54.573636	-46.766433	1.378692	-2.944885	0.048830	0.431763	-0.542419	-0.465088	0.999867	0.006893	-0.014724	0.000244	
 7320	    0	15.332207	-0.842801	1.974223	0.342179	-0.383950	0.352288	0.153298	-0.008192	0.020022	0.999994	0.001711	-0.001920	0.001761	
 7321	    0	2.306984	49.620777	-6.523929	1.945827	-3.612779	0.694325	0.022461	0.496887	-0.059998	0.999783	0.009728	-0.018063	0.003471	
 7322	    0	-6.075318	52.541121	-10.782294	-0.058556	-1.343747	-1.338979	-0.056507	0.525767	-0.108366	0.999954	-0.000293	-0.006719	-0.006695	
 7323	    0	-4.986955	43.685483	-6.055580	-1.116775	-1.002523	-1.618990	-0.046021	0.436890	-0.063232	0.999939	-0.005584	-0.005013	-0.008095	
 7324	    0	13.418346	22.692942	-16.400920	-2.525505	0.019266	-3.202279	0.137755	0.222648	-0.166852	0.999792	-0.012627	0.000096	-0.016010	
 7325	    0	30.731344	11.583524	-7.391965	-2.214785	-0.053410	-3.570819	0.309326	0.109497	-0.075073	0.999779	-0.011073	-0.000267	-0.017853	
 7326	    0	19.974378	-11.746486	-7.987280	-1.722819	-0.819064	-3.253557	0.198112	-0.121374	-0.078025	0.999822	-0.008614	-0.004095	-0.016267	
 7327	    0	8.801343	1.361307	-9.908043	-1.418384	-1.344184	-3.109153	0.088867	0.011536	-0.098572	0.999831	-0.007092	-0.006721	-0.015545	
 7328	    0	13.773424	14.574553	-13.531558	-1.253194	-1.004653	-3.167700	0.140691	0.142684	-0.135514	0.999842	-0.006266	-0.005023	-0.015838	
 7329	    0	22.723313	6.181667	-12.702046	-2.579683	-0.450739	-3.207627	0.228455	0.056519	-0.127258	0.999785	-0.012897	-0.002254	-0.016037	
 7330	    0	23.283351	-9.514375	-13.953154	-2.619939	-0.259610	-3.320370	0.231371	-0.100807	-0.137935	0.999775	-0.013099	-0.001298	-0.016601	
 7331	    0	24.018104	-14.800527	-7.626607	-1.511476	-0.400377	-3.519657	0.237671	-0.152771	-0.074646	0.999814	-0.007557	-0.002002	-0.017597	
 7332	    0	23.102732	-13.125235	-5.053617	-0.796746	-0.515777	-3.611775	0.228733	-0.135595	-0.049410	0.999825	-0.003983	-0.002579	-0.018058	
 7333	    0	19.901294	-7.694682	0.209936	-0.354594	-0.388356	-3.473842	0.197632	-0.080383	0.002625	0.999846	-0.001773	-0.001942	-0.017368	
 7334	    0	20.323137	-8.184585	3.199525	-0.457022	-0.286878	-3.271634	0.201811	-0.085081	0.032477	0.999862	-0.002285	-0.001434	-0.016357	
 7335	    0	21.290654	-7.626821	5.082758	-0.519583	-0.109677	-3.084690	0.211670	-0.079407	0.051147	0.999877	-0.002598	-0.000548	-0.015423	
 7336	    0	18.187225	-7.148016	6.726008	-0.722150	0.139051	-2.953453	0.180840	-0.073913	0.067398	0.999884	-0.003611	0.000695	-0.014767	
 7337	    0	14.367567	-6.585539	6.579830	-1.418172	0.239573	-2.788658	0.142822	-0.067383	0.066101	0.999876	-0.007091	0.001198	-0.013943	
 7338	    0	11.598919	-7.477686	4.587644	-2.266804	0.218593	-2.568562	0.115071	-0.075733	0.046605	0.999852	-0.011333	0.001093	-0.012842	
 7339	    0	9.141732	-10.477291	1.669340	-3.075605	0.005532	-2.409516	0.090149	-0.105591	0.018311	0.999808	-0.015377	0.000028	-0.012047	
 7340	    0	7.386589	-15.500568	-0.459390	-3.751481	-0.256750	-2.229296	0.072135	-0.155865	-0.001582	0.999761	-0.018756	-0.001284	-0.011146	
 7341	    0	7.120318	-21.111721	-0.683801	-3.993372	-0.313595	-2.058585	0.069031	-0.211914	-0.002502	0.999746	-0.019965	-0.001568	-0.010292	
 7342	    0	6.330331	-23.809776	-1.074255	-2.981724	0.001144	-1.918893	0.061014	-0.238815	-0.007186	0.999843	-0.014908	0.000006	-0.009594	
 7343	    0	3.253801	-27.524392	0.031039	-1.200122	0.452621	-1.380941	0.030640	-0.275452	0.001892	0.999955	-0.006001	0.002263	-0.006905	
 7344	    0	-2.388739	-27.596079	1.554855	1.276411	0.448041	-0.838479	-0.025012	-0.275949	0.013843	0.999968	0.006382	0.002240	-0.004192	
 7345	    0	-5.633718	-26.876553	2.326593	2.757543	0.336467	-0.251778	-0.056641	-0.268982	0.019653	0.999903	0.013787	0.001682	-0.001259	
 7346	    0	-3.094674	-17.772133	5.416261	2.642141	0.554293	0.294313	-0.030539	-0.178462	0.051893	0.999907	0.013210	0.002771	0.001472	
 7347	    0	2.112365	-8.478823	8.230941	1.429008	0.898948	0.987259	0.021912	-0.085266	0.081604	0.999951	0.007145	0.004495	0.004936	
 7348	    0	5.529720	-2.388895	8.551792	0.291829	1.237318	1.558902	0.056009	-0.023579	0.085138	0.999949	0.001459	0.006186	0.007794	
 7349	    0	5.987039	-0.991726	10.004755	-0.672167	1.553575	1.815843	0.060730	-0.009033	0.099609	0.999923	-0.003361	0.007768	0.009079	
 7350	    0	7.406998	-2.679403	9.445993	-1.170389	1.707898	1.963873	0.075129	-0.025509	0.093973	0.999898	-0.005852	0.008539	0.009819	
 7351	    0	9.588703	-4.920666	7.165783	-1.092380	1.813575	2.124866	0.097046	-0.047791	0.071045	0.999887	-0.005462	0.009068	0.010624	
 7352	    0	9.979137	-5.147813	2.911602	-1.169444	1.888735	2.234933	0.100628	-0.050189	0.028464	0.999875	-0.005847	0.009443	0.011174	
 7353	    0	11.460087	-4.644561	-3.919606	-1.544258	1.659657	2.337750	0.114807	-0.045410	-0.039795	0.999867	-0.007721	0.008298	0.011688	
 7354	    0	21.349714	-7.208068	-12.100499	-1.140836	1.273212	2.784281	0.213705	-0.069800	-0.121963	0.999866	-0.005704	0.006366	0.013921	
 7355	    0	33.010625	-9.586155	-14.883452	-0.002098	1.126912	3.088518	0.330688	-0.090759	-0.150696	0.999865	-0.000010	0.005634	0.015442	
 7356	    0	32.827436	-12.205194	-11.511780	1.401221	1.313287	3.230094	0.329411	-0.115917	-0.118105	0.999823	0.007006	0.006566	0.016150	
 7357	    0	26.413740	-14.310548	-6.217144	2.414332	1.507694	3.442669	0.266052	-0.137756	-0.065857	0.999750	0.012071	0.007538	0.017212	
 7358	    0	23.201471	-7.080947	-2.639781	2.906152	1.483501	3.825591	0.233098	-0.065948	-0.029106	0.999683	0.014529	0.007417	0.019126	
 7359	    0	24.092363	0.229332	-0.305474	3.259672	1.188994	4.124187	0.240784	0.007324	-0.004395	0.999637	0.016296	0.005944	0.020618	
 7360	    0	26.892164	4.624862	-1.363729	2.933620	0.791251	4.001657	0.267867	0.051819	-0.013966	0.999684	0.014667	0.003956	0.020006	
 7361	    0	30.725906	10.438121	-4.252181	1.816126	0.537914	3.852377	0.305054	0.110657	-0.042358	0.999769	0.009080	0.002689	0.019260	
 7362	    0	32.108152	12.151389	-5.038625	0.701379	0.416784	3.933599	0.318501	0.127973	-0.050611	0.999798	0.003507	0.002084	0.019667	
 7363	    0	29.136472	7.589739	-4.750461	0.078588	0.428994	4.130088	0.289612	0.081909	-0.048096	0.999784	0.000393	0.002145	0.020649	
 7364	    0	24.027495	2.956644	-2.684259	0.665140	0.445589	4.083356	0.239543	0.034553	-0.027267	0.999784	0.003325	0.002228	0.020415	
 7365	    0	17.439599	3.263610	-2.166714	1.552117	0.312064	3.756974	0.173706	0.036072	-0.021667	0.999792	0.007760	0.001560	0.018784	
 7366	    0	12.027388	6.425575	-3.518358	2.072846	0.232139	3.275123	0.119156	0.066574	-0.034640	0.999811	0.010364	0.001161	0.016375	
 7367	    0	10.306673	8.898464	-3.601441	2.517082	0.184070	2.721561	0.101807	0.090820	-0.034973	0.999827	0.012585	0.000920	0.013607	
 7368	    0	11.047564	10.103378	-4.329956	2.706853	0.023652	2.151406	0.109371	0.102788	-0.041929	0.999850	0.013534	0.000118	0.010756	
 7369	    0	12.633699	11.822774	-4.545834	2.444544	-0.088313	1.558740	0.125427	0.119751	-0.043945	0.999894	0.012222	-0.000442	0.007793	
 7370	    0	12.891808	13.831790	-4.308628	2.307574	-0.218588	1.098854	0.128200	0.139507	-0.041341	0.999917	0.011538	-0.001093	0.005494	
 7371	    0	10.454313	16.215761	-5.344025	1.597046	-0.383764	0.861371	0.103943	0.163025	-0.051941	0.999956	0.007985	-0.001919	0.004307	
 7372	    0	5.562126	18.977711	-6.469761	-0.049400	-0.323487	0.840381	0.054928	0.189993	-0.064655	0.999990	-0.000247	-0.001617	0.004202	
 7373	    0	-0.780998	22.550385	-5.845961	-1.859887	0.146487	0.776686	-0.008728	0.224915	-0.060547	0.999949	-0.009299	0.000732	0.003883	
 7374	    0	-5.268740	24.974517	0.047778	-2.401222	0.459110	0.287063	-0.053049	0.249652	-0.002398	0.999924	-0.012006	0.002295	0.001435	
 7375	    0	-9.851738	25.269301	1.491945	-2.962412	-0.133519	-0.108341	-0.098389	0.252930	0.011108	0.999889	-0.014812	-0.000668	-0.000542	
 7376	    0	-13.045267	23.240753	-2.151009	-3.511051	-0.982339	-0.136002	-0.130174	0.232063	-0.026226	0.999833	-0.017554	-0.004911	-0.000680	
 7377	    0	-11.842948	15.840360	-1.920038	-1.770061	-1.595916	0.028229	-0.118286	0.158203	-0.021545	0.999928	-0.008850	-0.007979	0.000141	
 7378	    0	-7.416402	1.036303	-0.467607	0.216677	-1.683828	0.134279	-0.074128	0.010319	-0.005289	0.999963	0.001083	-0.008419	0.000671	
 7379	    0	-3.517413	-10.156819	2.167807	1.433595	-1.807253	-0.192265	-0.035461	-0.101685	0.020630	0.999932	0.007168	-0.009036	-0.000961	
 7380	    0	-1.713707	-13.790665	0.864483	0.933865	-2.355453	-0.741026	-0.017743	-0.137879	0.007794	0.999912	0.004669	-0.011777	-0.003705	
 7381	    0	2.001648	-10.354295	1.087466	-0.024224	-2.884023	-0.981941	0.019348	-0.103638	0.011169	0.999884	-0.000121	-0.014420	-0.004910	
 7382	    0	10.124163	-3.059786	0.838136	0.327697	-3.116743	-0.759921	0.100978	-0.030997	0.009906	0.999869	0.001638	-0.015583	-0.003799	
 7383	    0	17.105811	-7.948963	-2.067475	1.675519	-3.467584	-0.161753	0.171326	-0.079468	-0.018372	0.999814	0.008377	-0.017337	-0.000809	
 7384	    0	12.163041	-24.108901	-12.597680	-0.552950	-1.990926	0.192455	0.123104	-0.241316	-0.124089	0.999946	-0.002765	-0.009954	0.000962	
 7385	    0	6.531518	-18.756419	-9.088099	-3.386090	0.431272	0.130469	0.065247	-0.189026	-0.087830	0.999854	-0.016930	0.002156	0.000652	
 7386	    0	6.438807	-7.206055	-6.506861	-2.124662	1.703124	0.176054	0.063899	-0.072694	-0.064844	0.999907	-0.010623	0.008515	0.000880	
 7387	    0	1.238573	-0.705598	15.448195	-2.726696	2.090563	-0.811047	0.013977	-0.005005	0.154419	0.999844	-0.013633	0.010452	-0.004055	
 7388	    0	25.497230	2.974498	24.303494	3.321246	0.877235	-0.709761	0.256130	0.024809	0.242352	0.999846	0.016605	0.004386	-0.003549	
 7389	    0	57.159363	-47.491979	-32.603495	3.233821	-3.314510	-0.573020	0.575623	-0.471313	-0.324158	0.999727	0.016168	-0.016571	-0.002865	
 7390	    0	20.498842	-21.970252	-23.736807	-2.049483	0.369079	0.175861	0.204747	-0.221942	-0.235479	0.999945	-0.010247	0.001845	0.000879	
 7391	    0	13.763066	47.639063	17.255665	0.843087	-2.912846	1.361147	0.131836	0.476562	0.176514	0.999862	0.004215	-0.014564	0.006805	
 7392	    0	-0.596693	45.950477	-7.407383	-0.640113	-0.956545	-1.094639	-0.003094	0.459287	-0.075563	0.999968	-0.003201	-0.004783	-0.005473	
 7393	    0	-8.517679	46.988351	-5.694075	-1.631762	-0.332647	-0.933089	-0.082886	0.469788	-0.060913	0.999954	-0.008159	-0.001663	-0.004665	
 7394	    0	3.149865	26.299147	-13.503693	-3.197482	0.281732	-2.045183	0.033977	0.260448	-0.139261	0.999819	-0.015986	0.001409	-0.010225	
 7395	    0	20.070256	19.498344	-13.328362	-3.152717	0.470962	-2.990198	0.203247	0.189819	-0.136780	0.999761	-0.015762	0.002355	-0.014950	
 7396	    0	20.438068	-1.123792	-11.330649	-2.165551	-0.115211	-3.260249	0.204213	-0.015793	-0.113034	0.999808	-0.010827	-0.000576	-0.016300	
 7397	    0	14.368655	-6.847839	-13.833380	-2.239180	-0.718735	-3.138171	0.143066	-0.072266	-0.137024	0.999807	-0.011195	-0.003593	-0.015690	
 7398	    0	11.351865	9.024495	-17.040637	-1.593489	-0.864840	-3.192127	0.115663	0.087051	-0.170611	0.999831	-0.007967	-0.004324	-0.015960	
 7399	    0	16.133805	7.707820	-13.190053	-1.616575	-0.445583	-3.409782	0.162903	0.073242	-0.132141	0.999819	-0.008082	-0.002228	-0.017048	
 7400	    0	24.498318	-5.818467	-15.049861	-1.641955	-0.515591	-3.609326	0.244251	-0.063827	-0.149360	0.999800	-0.008209	-0.002578	-0.018045	
 7401	    0	25.069391	-10.946048	-11.936883	-0.807242	-0.600281	-3.804262	0.248901	-0.114685	-0.118164	0.999806	-0.004036	-0.003001	-0.019020	
 7402	    0	21.648029	-8.589053	-7.666408	-0.223557	-0.618786	-3.992353	0.214943	-0.090277	-0.075898	0.999795	-0.001118	-0.003094	-0.019960	
 7403	    0	20.341096	-4.058629	-3.075043	0.066380	-0.484307	-3.922527	0.202637	-0.044556	-0.030273	0.999804	0.000332	-0.002421	-0.019611	
 7404	    0	20.473923	-4.022713	2.458254	-0.055507	-0.385688	-3.667276	0.203908	-0.043964	0.024988	0.999829	-0.000278	-0.001928	-0.018335	
 7405	    0	22.033750	-5.476754	5.009892	-0.266089	-0.329607	-3.545568	0.219238	-0.058594	0.050537	0.999840	-0.001330	-0.001648	-0.017727	
 7406	    0	20.260570	-4.664552	7.592560	-0.423644	-0.191317	-3.518098	0.201673	-0.050037	0.076222	0.999842	-0.002118	-0.000957	-0.017590	
 7407	    0	16.544642	-5.034574	8.438368	-1.191772	-0.103574	-3.287674	0.164551	-0.052551	0.084778	0.999846	-0.005959	-0.000518	-0.016438	
 7408	    0	13.883031	-6.492118	7.362241	-2.339878	-0.053409	-2.873585	0.137867	-0.066039	0.074428	0.999827	-0.011699	-0.000267	-0.014367	
 7409	    0	11.779741	-9.735210	4.531128	-3.340969	-0.087745	-2.577401	0.116516	-0.098083	0.046997	0.999777	-0.016704	-0.000439	-0.012886	
 7410	    0	9.447323	-16.170490	2.321899	-4.457756	-0.117314	-2.363837	0.092543	-0.162234	0.026886	0.999681	-0.022286	-0.000587	-0.011818	
 7411	    0	8.282927	-23.194965	1.246726	-5.330624	-0.047881	-2.102949	0.080383	-0.232361	0.018677	0.999589	-0.026649	-0.000239	-0.010513	
 7412	    0	7.472517	-30.971550	-0.466543	-5.496767	0.185419	-1.463325	0.072457	-0.310225	0.003789	0.999595	-0.027480	0.000927	-0.007316	
 7413	    0	5.298951	-31.472229	-2.271179	-2.834434	0.486203	-1.177263	0.051086	-0.315308	-0.018372	0.999879	-0.014172	0.002431	-0.005886	
 7414	    0	0.102048	-34.694554	-1.154791	0.285722	0.752261	-0.544932	0.000031	-0.346930	-0.012045	0.999988	0.001429	0.003761	-0.002725	
 7415	    0	-4.545923	-30.918845	0.949166	2.648246	0.691435	-0.062563	-0.045532	-0.309265	0.005554	0.999906	0.013241	0.003457	-0.000313	
 7416	    0	-4.367882	-23.659043	2.466037	3.256186	0.625258	0.406475	-0.043128	-0.237040	0.020939	0.999860	0.016280	0.003126	0.002032	
 7417	    0	-0.029446	-14.008751	4.894538	2.250926	0.905635	0.979642	0.000610	-0.140625	0.047363	0.999914	0.011254	0.004528	0.004898	
 7418	    0	4.911828	-6.633417	4.883080	1.110674	1.232747	1.598012	0.049946	-0.066206	0.048157	0.999933	0.005553	0.006164	0.007990	
 7419	    0	7.077207	-2.176877	7.061882	0.544754	1.552053	2.019558	0.071533	-0.021240	0.070007	0.999915	0.002724	0.007760	0.010098	
 7420	    0	7.612027	-1.075892	10.822317	-0.123409	1.678516	2.048552	0.077129	-0.009906	0.107585	0.999911	-0.000617	0.008392	0.010242	
 7421	    0	9.054375	-0.942081	8.650505	-0.662825	1.710566	2.101203	0.091370	-0.008179	0.085754	0.999903	-0.003314	0.008553	0.010506	
 7422	    0	10.195997	-1.465025	4.026735	-1.015322	1.831700	2.277465	0.102480	-0.013284	0.039400	0.999880	-0.005076	0.009158	0.011387	
 7423	    0	12.331001	-2.335485	-3.368811	-1.616744	1.687129	2.394216	0.123291	-0.022156	-0.034546	0.999860	-0.008083	0.008435	0.011971	
 7424	    0	22.512435	-5.573220	-11.467663	-1.446990	1.471596	2.861553	0.225049	-0.053348	-0.115941	0.999844	-0.007235	0.007358	0.014307	
 7425	    0	34.603767	-8.961172	-13.852339	-0.406477	1.314611	3.202219	0.346497	-0.084351	-0.140625	0.999847	-0.002032	0.006573	0.016010	
 7426	    0	33.381800	-12.428479	-10.240924	1.095456	1.439563	3.343784	0.335075	-0.118117	-0.105476	0.999819	0.005477	0.007197	0.016718	
 7427	    0	24.182174	-15.379483	-5.445693	2.399838	1.514563	3.491505	0.244019	-0.148865	-0.058105	0.999746	0.011998	0.007572	0.017456	
 7428	    0	22.583810	-9.255250	-3.524584	3.145757	1.461191	3.818172	0.227270	-0.087636	-0.038307	0.999667	0.015727	0.007305	0.019089	
 7429	    0	25.329834	-1.145283	-1.511777	3.593918	1.253865	4.136439	0.253357	-0.005920	-0.016846	0.999604	0.017967	0.006269	0.020679	
 7430	    0	29.822346	3.926458	-2.239789	3.482281	0.955887	3.952498	0.297256	0.045544	-0.023064	0.999641	0.017409	0.004779	0.019760	
 7431	    0	31.825755	10.528299	-5.137506	2.378479	0.718751	3.817316	0.315979	0.111938	-0.051208	0.999741	0.011891	0.003593	0.019085	
 7432	    0	30.482305	12.581002	-6.549452	1.237773	0.645878	4.053999	0.301972	0.132357	-0.065667	0.999770	0.006188	0.003229	0.020268	
 7433	    0	27.547612	8.831731	-6.184208	0.557754	0.712834	4.328508	0.273254	0.094421	-0.062561	0.999755	0.002789	0.003564	0.021641	
 7434	    0	23.527736	3.839202	-3.308463	1.096059	0.727145	4.398160	0.234233	0.043735	-0.033708	0.999736	0.005480	0.003635	0.021989	
 7435	    0	18.279938	2.674640	-2.528949	1.821294	0.471728	4.149987	0.182129	0.030762	-0.025452	0.999740	0.009106	0.002358	0.020748	
 7436	    0	12.879588	5.958690	-4.976448	2.052462	0.269910	3.721518	0.127584	0.062476	-0.049306	0.999773	0.010262	0.001349	0.018606	
 7437	    0	10.666207	8.604678	-5.485968	2.482771	0.230614	3.138943	0.105225	0.088379	-0.053894	0.999799	0.012413	0.001153	0.015694	
 7438	    0	11.002659	10.588870	-5.445836	2.794045	0.128944	2.439448	0.108684	0.107967	-0.053030	0.999827	0.013969	0.000645	0.012197	
 7439	    0	11.992490	12.242818	-5.832662	2.482698	-0.050165	1.687685	0.118896	0.124146	-0.056763	0.999887	0.012413	-0.000251	0.008438	
 7440	    0	11.601170	13.950333	-6.345386	2.267899	-0.273331	1.148255	0.115291	0.140873	-0.061704	0.999918	0.011339	-0.001367	0.005741	
 7441	    0	9.660904	16.334777	-8.056415	1.564048	-0.500305	0.826275	0.096130	0.164368	-0.079041	0.999957	0.007820	-0.002501	0.004131	
 7442	    0	5.485604	19.101575	-9.102743	-0.144387	-0.450708	0.732424	0.054361	0.191150	-0.091043	0.999990	-0.000722	-0.002254	0.003662	
 7443	    0	0.149546	22.216210	-7.754002	-1.849203	0.032044	0.566873	0.000854	0.221436	-0.079590	0.999952	-0.009246	0.000160	0.002834	
 7444	    0	-4.162835	24.986758	-2.550311	-2.350863	0.342186	0.092699	-0.041791	0.249526	-0.028366	0.999928	-0.011754	0.001711	0.000463	
 7445	    0	-8.572752	26.445033	0.597772	-2.450433	-0.119022	-0.212103	-0.085449	0.264587	0.002686	0.999924	-0.012252	-0.000595	-0.001060	
 7446	    0	-12.343745	24.060595	-0.162554	-2.069518	-0.942632	-0.232511	-0.123140	0.240711	-0.004697	0.999934	-0.010347	-0.004713	-0.001163	
 7447	    0	-11.271572	15.003495	-0.911825	-0.369267	-1.524941	-0.122072	-0.112549	0.150085	-0.010254	0.999969	-0.001846	-0.007625	-0.000610	
 7448	    0	-7.820762	0.875904	1.133576	0.923740	-1.446932	-0.021172	-0.078286	0.008717	0.010810	0.999963	0.004619	-0.007235	-0.000106	
 7449	    0	-3.815446	-9.165671	4.949310	1.915788	-1.416622	-0.428019	-0.038696	-0.092041	0.048340	0.999927	0.009579	-0.007083	-0.002140	
 7450	    0	-1.385789	-12.187416	4.753089	1.071189	-1.704442	-0.925274	-0.014823	-0.122059	0.046754	0.999938	0.005356	-0.008522	-0.004626	
 7451	    0	2.927450	-9.451277	5.519226	1.058419	-2.119507	-1.168094	0.028137	-0.094971	0.054993	0.999912	0.005292	-0.010597	-0.005840	
 7452	    0	9.967725	-5.309518	5.282154	2.182692	-2.558650	-1.039940	0.098716	-0.054192	0.053501	0.999845	0.010913	-0.012793	-0.005199	
 7453	    0	16.807957	-8.282813	0.617759	2.662877	-3.552347	-0.096138	0.167908	-0.083008	0.008057	0.999753	0.013313	-0.017760	-0.000481	
 7454	    0	11.291212	-18.425532	-15.864855	-1.916784	-2.726683	0.354211	0.115373	-0.185552	-0.155313	0.999859	-0.009583	-0.013633	0.001771	
 7455	    0	4.393782	-14.858681	-11.442237	-5.769389	-0.401934	0.036626	0.044189	-0.151794	-0.109985	0.999581	-0.028843	-0.002009	0.000183	
 7456	    0	5.421120	-9.993178	-5.295468	-4.438029	1.229013	0.027468	0.053907	-0.101071	-0.051052	0.999735	-0.022188	0.006145	0.000137	
 7457	    0	4.416576	-3.428812	23.249658	-2.596401	1.905337	-0.716433	0.046265	-0.031433	0.232483	0.999864	-0.012981	0.009526	-0.003582	
 7458	    0	42.163213	-5.867403	11.277978	5.840049	0.653557	-1.460298	0.421535	-0.064983	0.109566	0.999541	0.029196	0.003267	-0.007300	
 7459	    0	45.638836	-72.395251	-49.786629	0.466177	-3.240158	0.141913	0.464905	-0.722473	-0.492065	0.999866	0.002331	-0.016200	0.000710	
 7460	    0	14.618326	11.599607	14.462020	-0.088120	-0.207329	0.703050	0.145624	0.116572	0.144720	0.999992	-0.000441	-0.001037	0.003515	
 7461	    0	7.588850	50.573589	-5.088112	1.088189	-2.990088	0.438709	0.075500	0.506165	-0.046997	0.999870	0.005441	-0.014950	0.002193	
 7462	    0	-6.772962	57.194058	-7.573962	-0.684556	-0.888263	-1.260009	-0.063783	0.572086	-0.077987	0.999964	-0.003423	-0.004441	-0.006300	
 7463	    0	-10.259208	41.963768	-7.926963	-2.063616	-0.524917	-1.406136	-0.099426	0.419495	-0.083862	0.999918	-0.010318	-0.002625	-0.007030	
 7464	    0	8.107541	25.707219	-17.595670	-3.007731	0.167287	-2.958327	0.084690	0.253152	-0.179853	0.999777	-0.015038	0.000836	-0.014791	
 7465	    0	24.952701	12.432566	-10.763258	-2.577238	0.299098	-3.695230	0.251587	0.118286	-0.109558	0.999744	-0.012885	0.001495	-0.018475	
 7466	    0	24.320684	-9.087739	-10.985784	-1.978442	-0.565378	-3.573671	0.241826	-0.096283	-0.108238	0.999787	-0.009892	-0.002827	-0.017867	
 7467	    0	13.040957	-1.358412	-13.517193	-1.805232	-1.149634	-3.317476	0.130920	-0.016968	-0.134277	0.999804	-0.009026	-0.005748	-0.016586	
 7468	    0	11.110711	12.598133	-14.112641	-1.306801	-0.862935	-3.414355	0.113835	0.123130	-0.141450	0.999824	-0.006534	-0.004314	-0.017071	
 7469	    0	20.967708	5.188251	-13.233773	-2.035665	-0.424033	-3.536472	0.210815	0.046814	-0.132385	0.999789	-0.010178	-0.002120	-0.017681	
 7470	    0	27.244624	-10.651635	-13.577226	-1.783680	-0.362611	-3.559350	0.270723	-0.112547	-0.134295	0.999800	-0.008918	-0.001813	-0.017796	
 7471	    0	25.388775	-14.951439	-8.523489	-0.844627	-0.479728	-3.753134	0.251221	-0.154602	-0.083984	0.999812	-0.004223	-0.002398	-0.018764	
 7472	    0	21.505591	-8.074826	-4.967153	-0.089270	-0.467139	-3.855566	0.213561	-0.084897	-0.049134	0.999811	-0.000446	-0.002336	-0.019277	
 7473	    0	20.076092	-4.100965	0.675144	0.045207	-0.399040	-3.662317	0.199951	-0.044678	0.007141	0.999830	0.000226	-0.001995	-0.018311	
 7474	    0	21.348906	-4.758749	4.266277	-0.391598	-0.285163	-3.410890	0.212576	-0.051134	0.043064	0.999851	-0.001958	-0.001426	-0.017054	
 7475	    0	21.050026	-6.184342	6.465850	-0.642234	-0.131995	-3.268584	0.209412	-0.065063	0.065002	0.999861	-0.003211	-0.000660	-0.016342	
 7476	    0	17.409016	-6.273022	7.592202	-0.971648	0.062373	-3.186373	0.173089	-0.065124	0.076180	0.999861	-0.004858	0.000312	-0.015931	
 7477	    0	13.138098	-5.570458	6.685637	-1.721276	0.219928	-2.965692	0.130615	-0.057068	0.067200	0.999852	-0.008606	0.001100	-0.014828	
 7478	    0	10.142093	-7.404575	4.039290	-2.532720	0.258269	-2.641445	0.100489	-0.074859	0.041207	0.999831	-0.012663	0.001291	-0.013206	
 7479	    0	7.910260	-12.001566	0.727311	-3.307378	0.128183	-2.340096	0.077698	-0.120789	0.009216	0.999794	-0.016536	0.000641	-0.011700	
 7480	    0	6.775668	-18.480181	-1.385602	-3.833502	0.001526	-2.069637	0.065838	-0.185710	-0.010303	0.999763	-0.019166	0.000008	-0.010347	
 7481	    0	6.908973	-22.564097	-1.415854	-3.535511	-0.081640	-1.944865	0.066895	-0.226501	-0.010132	0.999796	-0.017676	-0.000408	-0.009724	
 7482	    0	6.762533	-27.399749	-1.406174	-2.537056	0.004387	-1.481109	0.065593	-0.274637	-0.010582	0.999891	-0.012685	0.000022	-0.007405	
 7483	    0	4.426224	-27.308518	-0.259428	-0.607304	0.306894	-1.033790	0.042847	-0.273315	-0.001831	0.999980	-0.003036	0.001534	-0.005169	
 7484	    0	-0.520759	-24.365520	2.218511	2.117584	0.392350	-0.705353	-0.006027	-0.243852	0.019615	0.999935	0.010588	0.001962	-0.003527	
 7485	    0	-3.487266	-22.556861	3.938234	3.241301	0.263989	-0.186165	-0.035034	-0.226135	0.035767	0.999866	0.016206	0.001320	-0.000931	
 7486	    0	-1.700364	-16.347931	6.119585	2.841285	0.413909	0.234993	-0.016687	-0.164347	0.058900	0.999896	0.014206	0.002069	0.001175	
 7487	    0	2.805042	-8.704346	7.459184	1.455900	0.727854	0.839245	0.028687	-0.087463	0.073853	0.999958	0.007279	0.003639	0.004196	
 7488	    0	6.973509	-3.124059	7.042067	0.325398	1.064888	1.489661	0.070339	-0.030832	0.069997	0.999956	0.001627	0.005324	0.007448	
 7489	    0	7.546290	-2.171541	10.589065	-0.656144	1.450573	1.782269	0.076416	-0.020691	0.105408	0.999928	-0.003281	0.007253	0.008911	
 7490	    0	7.392922	-3.239369	11.917418	-1.333282	1.641520	1.915615	0.075206	-0.030885	0.118770	0.999898	-0.006666	0.008207	0.009578	
 7491	    0	8.206401	-4.450694	7.361258	-1.394520	1.775433	2.185148	0.083191	-0.043091	0.073181	0.999876	-0.006972	0.008877	0.010925	
 7492	    0	10.346935	-5.153413	-0.124608	-1.524996	1.731190	2.422255	0.104070	-0.050288	-0.001759	0.999860	-0.007625	0.008656	0.012111	
 7493	    0	19.672183	-6.976786	-8.693876	-1.311564	1.607028	2.944342	0.197021	-0.067444	-0.088074	0.999837	-0.006557	0.008035	0.014721	
 7494	    0	32.113951	-8.372175	-11.923635	-0.530464	1.607797	3.317834	0.321502	-0.078711	-0.121607	0.999826	-0.002652	0.008039	0.016588	
 7495	    0	34.256507	-8.278674	-8.958524	0.434139	1.759635	3.350270	0.343079	-0.076843	-0.092773	0.999818	0.002171	0.008798	0.016750	
 7496	    0	24.647238	-13.260275	-4.400702	1.477916	1.747443	3.364604	0.248250	-0.128096	-0.047129	0.999792	0.007389	0.008737	0.016822	
 7497	    0	20.426995	-10.940099	-3.163673	1.868011	1.505396	3.585331	0.205933	-0.105408	-0.034180	0.999767	0.009339	0.007526	0.017925	
 7498	    0	21.789130	-1.673717	-2.351175	1.970470	1.254005	4.033645	0.218013	-0.012099	-0.025013	0.999728	0.009851	0.006269	0.020166	
 7499	    0	26.464225	3.547368	-2.070905	2.032657	0.935640	4.126355	0.263733	0.041138	-0.021545	0.999724	0.010162	0.004678	0.020630	
 7500	    0	30.461127	7.509857	-3.987364	1.411736	0.647022	3.977124	0.302904	0.081417	-0.040296	0.999772	0.007058	0.003235	0.019884	
 7501	    0	34.482607	10.926817	-6.514498	0.502999	0.403620	3.806541	0.342529	0.115967	-0.065552	0.999813	0.002515	0.002018	0.019032	
 7502	    0	33.013321	9.162272	-6.961562	-0.224129	0.435096	4.010092	0.328056	0.098136	-0.070438	0.999796	-0.001121	0.002175	0.020049	
 7503	    0	27.682429	4.381449	-4.787132	0.014688	0.474584	4.248370	0.275696	0.049683	-0.048523	0.999771	0.000073	0.002373	0.021240	
 7504	    0	21.020644	2.886488	-2.570699	0.924754	0.355366	4.179131	0.209495	0.033367	-0.025932	0.999769	0.004623	0.001777	0.020894	
 7505	    0	15.454055	5.336760	-2.871361	1.923522	0.103959	3.900454	0.153442	0.056641	-0.028259	0.999763	0.009617	0.000520	0.019501	
 7506	    0	13.140426	7.102203	-4.263445	2.542306	-0.033953	3.407735	0.130170	0.073781	-0.041686	0.999774	0.012711	-0.000170	0.017037	
 7507	    0	13.043957	8.598742	-4.591436	2.935234	-0.111206	2.858934	0.129211	0.088501	-0.044556	0.999789	0.014675	-0.000556	0.014294	
 7508	    0	13.341629	11.146096	-5.397835	2.881214	-0.216687	2.296006	0.132176	0.113744	-0.052207	0.999829	0.014405	-0.001083	0.011479	
 7509	    0	13.131493	13.659724	-5.505652	2.575979	-0.276958	1.743387	0.130188	0.138428	-0.053101	0.999878	0.012879	-0.001385	0.008717	
 7510	    0	10.621320	16.875546	-6.380912	2.108248	-0.338563	1.336133	0.105186	0.170119	-0.061842	0.999920	0.010541	-0.001693	0.006680	
 7511	    0	5.829457	20.067455	-7.610942	0.759131	-0.311854	1.155100	0.057251	0.201294	-0.075256	0.999974	0.003796	-0.001559	0.005775	
 7512	    0	-1.350433	22.108039	-6.413865	-0.712782	0.061799	1.154336	-0.014799	0.220767	-0.064921	0.999976	-0.003564	0.000309	0.005772	
 7513	    0	-5.922245	22.886476	-0.287176	-0.790218	0.380708	0.511935	-0.059814	0.228699	-0.003662	0.999987	-0.003951	0.001904	0.002560	
 7514	    0	-9.766815	24.484757	2.389153	-0.929454	-0.151253	-0.131417	-0.097525	0.245019	0.022679	0.999989	-0.004647	-0.000756	-0.000657	
 7515	    0	-13.402857	24.642424	-1.736667	-1.736480	-1.041240	-0.212101	-0.133667	0.246399	-0.020203	0.999948	-0.008682	-0.005206	-0.001060	
 7516	    0	-12.556887	20.487050	-3.768816	-0.937283	-1.493283	-0.195124	-0.125078	0.204810	-0.039583	0.999960	-0.004686	-0.007466	-0.000976	
 7517	    0	-9.229742	8.579696	-1.872151	0.112344	-1.331339	-0.016785	-0.092163	0.085815	-0.019287	0.999977	0.000562	-0.006657	-0.000084	
 7518	    0	-4.461325	-5.919473	3.730479	1.241318	-1.153197	-0.307468	-0.044917	-0.059355	0.036678	0.999963	0.006207	-0.005766	-0.001537	
 7519	    0	-1.106643	-14.329101	3.697881	1.414707	-1.296259	-0.922411	-0.011963	-0.143494	0.035889	0.999943	0.007073	-0.006481	-0.004612	
 7520	    0	2.853627	-15.175271	6.221982	1.074050	-1.276805	-1.453048	0.027037	-0.152285	0.061579	0.999938	0.005370	-0.006384	-0.007265	
 7521	    0	7.708083	-9.816621	10.227755	1.632171	-1.850951	-1.281017	0.075500	-0.099487	0.102173	0.999903	0.008161	-0.009254	-0.006405	
 7522	    0	16.301523	-11.977148	8.967202	3.067482	-3.450512	-0.386845	0.161223	-0.121469	0.090610	0.999731	0.015336	-0.017251	-0.001934	
 7523	    0	19.159810	-17.414496	-10.167265	1.667925	-4.138338	0.349455	0.193970	-0.172974	-0.099121	0.999749	0.008339	-0.020690	0.001747	
 7524	    0	8.708073	-10.590646	-10.448849	-3.169599	-1.252046	0.564413	0.088027	-0.107291	-0.102246	0.999850	-0.015847	-0.006260	0.002822	
 7525	    0	2.273359	-1.195979	-5.906695	-5.650903	-0.387626	0.624169	0.022888	-0.013550	-0.058655	0.999594	-0.028251	-0.001938	0.003120	
 7526	    0	0.526844	-4.111802	-8.236665	-4.776100	0.944996	0.654286	0.005021	-0.043053	-0.081378	0.999698	-0.023878	0.004725	0.003271	
 7527	    0	2.198469	4.327749	17.192394	-1.734021	1.856286	-0.750754	0.023743	0.044678	0.171326	0.999912	-0.008670	0.009281	-0.003754	
 7528	    0	51.492221	-9.633585	9.011695	7.024977	0.628038	-1.766976	0.514298	-0.103927	0.084939	0.999339	0.035117	0.003139	-0.008833	
 7529	    0	44.949627	-80.617597	-53.187904	-0.258646	-2.870853	0.523395	0.459167	-0.805664	-0.524292	0.999892	-0.001293	-0.014354	0.002617	
 7530	    0	11.852080	26.318418	25.709524	0.042725	-0.548556	0.968366	0.116539	0.263697	0.257473	0.999984	0.000214	-0.002743	0.004842	
 7531	    0	4.386191	51.652765	-8.240964	1.136251	-2.783308	0.209816	0.044434	0.517029	-0.078857	0.999886	0.005681	-0.013916	0.001049	
 7532	    0	-9.422988	59.164047	-7.658170	-0.844392	-0.843057	-1.021205	-0.090878	0.591779	-0.079468	0.999969	-0.004222	-0.004215	-0.005106	
 7533	    0	-8.024051	38.356212	-9.396568	-2.508440	-0.270853	-1.354264	-0.077515	0.382874	-0.098877	0.999897	-0.012542	-0.001354	-0.006771	
 7534	    0	13.380682	23.433690	-17.550044	-3.324805	0.625666	-3.150267	0.136887	0.229232	-0.179765	0.999732	-0.016623	0.003128	-0.015750	
 7535	    0	26.701365	5.413060	-10.070356	-2.616338	0.426710	-3.610531	0.267700	0.047974	-0.101929	0.999749	-0.013081	0.002133	-0.018051	
 7536	    0	23.215537	-12.894404	-11.990811	-1.981477	-0.644915	-3.251659	0.230388	-0.133874	-0.117853	0.999813	-0.009907	-0.003224	-0.016257	
 7537	    0	9.819596	3.028678	-14.246676	-1.680086	-1.121392	-3.037430	0.099426	0.027588	-0.142151	0.999833	-0.008400	-0.005607	-0.015186	
 7538	    0	11.076711	13.481836	-14.117401	-1.507268	-0.605425	-3.196888	0.113320	0.131953	-0.141835	0.999839	-0.007536	-0.003027	-0.015984	
 7539	    0	21.570921	2.466848	-14.108259	-2.230217	-0.360703	-3.242704	0.216309	0.019592	-0.140930	0.999804	-0.011150	-0.001803	-0.016212	
 7540	    0	25.854153	-10.696681	-15.081243	-1.782714	-0.350019	-3.317268	0.256968	-0.112574	-0.149375	0.999821	-0.008913	-0.001750	-0.016585	
 7541	    0	23.590148	-11.940391	-9.729332	-0.760502	-0.542480	-3.520397	0.234009	-0.123901	-0.096191	0.999834	-0.003802	-0.002712	-0.017601	
 7542	    0	20.932277	-5.716689	-6.635646	-0.194179	-0.566515	-3.659840	0.208416	-0.061050	-0.065707	0.999827	-0.000971	-0.002832	-0.018298	
 7543	    0	20.399363	-1.963909	-0.504721	-0.106626	-0.449395	-3.546332	0.203613	-0.023254	-0.004578	0.999840	-0.000533	-0.002247	-0.017731	
 7544	    0	20.537583	-3.251882	2.737097	-0.414679	-0.396177	-3.462778	0.204718	-0.036010	0.027849	0.999846	-0.002073	-0.001981	-0.017313	
 7545	    0	20.633215	-2.795926	5.259926	-0.509479	-0.234234	-3.444846	0.205750	-0.031372	0.052917	0.999847	-0.002547	-0.001171	-0.017223	
 7546	    0	18.222022	-3.982929	6.507834	-0.738182	-0.099569	-3.421004	0.181474	-0.042697	0.065323	0.999846	-0.003691	-0.000498	-0.017104	
 7547	    0	15.403736	-4.213396	5.890047	-1.284855	-0.031091	-3.251051	0.153320	-0.044250	0.059204	0.999846	-0.006424	-0.000155	-0.016254	
 7548	    0	13.354305	-6.143420	4.101129	-2.091714	-0.003624	-2.971813	0.132614	-0.062976	0.041667	0.999834	-0.010458	-0.000018	-0.014858	
