// Start Time: Unknown
// Update Rate: 100.0Hz
// Filter Profile: human (34.3)
// Firmware Version: 2.1.4
PacketCounter	SampleTimeFine	Acc_X	Acc_Y	Acc_Z	Gyr_X	Gyr_Y	Gyr_Z	VelInc_X	VelInc_Y	VelInc_Z	OriInc_q0	OriInc_q1	OriInc_q2	OriInc_q3	
 7936	    0	12.593232	15.497048	9.887377	1.547299	-1.953820	-5.680232	0.129269	0.150553	0.101302	0.999518	0.007735	-0.009768	-0.028397	
 7937	    0	-5.219845	22.567343	-7.102918	0.004578	-1.596788	-4.415536	-0.046631	0.226746	-0.071411	0.999724	0.000023	-0.007983	-0.022076	
 7938	    0	0.478842	0.178092	-3.336598	-0.335714	-0.806858	-3.726424	0.004954	0.001634	-0.033349	0.999816	-0.001678	-0.004034	-0.018631	
 7939	    0	15.994253	4.055133	-11.522000	0.136764	-0.025178	-3.552433	0.160645	0.037781	-0.115173	0.999842	0.000684	-0.000126	-0.017761	
 7940	    0	25.870894	19.005706	-7.244568	-0.319301	-0.406851	-2.789209	0.261472	0.186308	-0.072215	0.999899	-0.001596	-0.002034	-0.013946	
 7941	    0	16.524295	8.254700	-4.802400	-0.801107	-0.599495	-2.302612	0.166321	0.080444	-0.047852	0.999921	-0.004005	-0.002997	-0.011513	
 7942	    0	16.642057	3.429598	-2.618486	-0.928898	0.066377	-2.008479	0.166744	0.032500	-0.026394	0.999938	-0.004644	0.000332	-0.010042	
 7943	    0	26.775317	7.021294	-5.106979	-0.854314	0.476844	-1.628137	0.268188	0.067810	-0.052002	0.999954	-0.004272	0.002384	-0.008141	
 7944	    0	29.248238	-0.462191	-4.950945	-0.736059	0.577937	-1.845965	0.292277	-0.007504	-0.050330	0.999946	-0.003680	0.002890	-0.009230	
 7945	    0	26.458221	-5.359118	-5.475739	-1.042770	0.766771	-1.860086	0.263855	-0.056335	-0.055481	0.999935	-0.005214	0.003834	-0.009300	
 7946	    0	24.278868	-4.735315	-4.764720	-1.721432	0.901248	-1.784567	0.242134	-0.049930	-0.048317	0.999912	-0.008607	0.004506	-0.008923	
 7947	    0	23.950303	0.640529	-3.686463	-2.754911	0.863687	-1.654892	0.239380	0.003906	-0.037964	0.999861	-0.013774	0.004318	-0.008274	
 7948	    0	22.774817	-2.623969	-0.982986	-3.888607	0.703291	-1.420125	0.227518	-0.028050	-0.010097	0.999779	-0.019442	0.003516	-0.007100	
 7949	    0	16.544459	-9.182203	2.924987	-5.266253	0.579141	-0.943107	0.165100	-0.091797	0.031189	0.999638	-0.026328	0.002895	-0.004715	
 7950	    0	11.926797	-11.247667	3.606562	-6.027001	0.487975	-0.480726	0.119092	-0.111614	0.039147	0.999539	-0.030130	0.002439	-0.002403	
 7951	    0	10.369992	-11.177500	0.923914	-5.704512	0.184847	-0.348711	0.103516	-0.111633	0.012329	0.999591	-0.028519	0.000924	-0.001743	
 7952	    0	14.538236	-11.111433	-1.026378	-4.010092	0.236527	-0.462754	0.145114	-0.111629	-0.008201	0.999795	-0.020049	0.001183	-0.002314	
 7953	    0	16.758923	-5.187532	-1.085678	-2.665036	0.478570	-0.783565	0.167358	-0.052673	-0.010559	0.999900	-0.013325	0.002393	-0.003918	
 7954	    0	16.898532	3.249470	-3.279433	-2.602859	0.622580	-1.118318	0.169058	0.031115	-0.033731	0.999894	-0.013014	0.003113	-0.005591	
 7955	    0	15.491591	3.757167	-5.062048	-2.517786	0.638030	-1.181833	0.154968	0.036011	-0.051575	0.999898	-0.012589	0.003190	-0.005909	
 7956	    0	14.297614	3.401000	-5.759302	-2.778186	0.981187	-1.680836	0.142964	0.031998	-0.058748	0.999856	-0.013890	0.004906	-0.008404	
 7957	    0	10.539959	9.577543	-5.671954	-2.604098	1.220218	-2.970335	0.106445	0.093445	-0.058594	0.999785	-0.013020	0.006101	-0.014851	
 7958	    0	9.034106	17.352092	-8.268200	-2.505355	1.241423	-3.930473	0.093189	0.170650	-0.085404	0.999709	-0.012526	0.006207	-0.019650	
 7959	    0	12.052791	6.608193	-8.896735	-2.469695	1.561133	-3.982949	0.121094	0.062561	-0.090698	0.999695	-0.012347	0.007805	-0.019913	
 7960	    0	14.505631	-4.121475	-7.443706	-1.883320	1.831625	-4.227121	0.143445	-0.044965	-0.075344	0.999690	-0.009416	0.009157	-0.021133	
 7961	    0	16.694253	-4.257215	-7.104875	-0.362438	2.083255	-4.813940	0.165100	-0.046692	-0.072693	0.999654	-0.001812	0.010415	-0.024067	
 7962	    0	20.887659	-7.639335	-6.264219	0.842211	2.176396	-5.274550	0.206070	-0.081582	-0.065231	0.999584	0.004210	0.010880	-0.026369	
 7963	    0	24.335184	-11.567671	-4.204397	1.652231	2.022890	-5.767260	0.239441	-0.122253	-0.045471	0.999498	0.008260	0.010113	-0.028831	
 7964	    0	26.325918	-11.377514	-3.306856	2.232040	1.594287	-6.329456	0.259211	-0.121628	-0.036474	0.999405	0.011158	0.007970	-0.031641	
 7965	    0	27.410414	-9.256173	-1.673050	2.408376	1.366921	-6.788630	0.270630	-0.101562	-0.019775	0.999328	0.012039	0.006833	-0.033936	
 7966	    0	27.610197	-5.690125	-0.686874	2.184796	1.182827	-6.986693	0.273843	-0.066403	-0.009184	0.999312	0.010921	0.005913	-0.034925	
 7967	    0	28.157061	-8.293449	-3.171716	1.364427	0.802211	-6.983914	0.278320	-0.092468	-0.033447	0.999358	0.006821	0.004010	-0.034912	
 7968	    0	25.629968	-11.822647	-4.479635	0.488377	0.550378	-6.824689	0.251945	-0.126763	-0.045796	0.999411	0.002441	0.002751	-0.034117	
 7969	    0	22.134250	-11.989703	-5.363756	0.108548	0.340334	-6.651773	0.217102	-0.127136	-0.054077	0.999445	0.000543	0.001701	-0.033253	
 7970	    0	19.962775	-9.836954	-6.036264	0.132392	0.074399	-6.311893	0.196370	-0.104562	-0.060504	0.999501	0.000662	0.000372	-0.031554	
 7971	    0	21.086181	-8.368410	-6.232983	0.084126	0.127429	-5.857161	0.208252	-0.089783	-0.062500	0.999571	0.000421	0.000637	-0.029282	
 7972	    0	21.465949	-6.782697	-7.113485	0.601647	-0.027278	-5.217007	0.212807	-0.073180	-0.071321	0.999655	0.003008	-0.000136	-0.026082	
 7973	    0	16.722680	-4.942448	-8.027821	0.680600	-0.305011	-4.449077	0.166199	-0.052856	-0.080200	0.999745	0.003403	-0.001525	-0.022243	
 7974	    0	11.749779	-7.635872	-3.254489	0.426696	-0.126845	-3.487194	0.116164	-0.078322	-0.032637	0.999846	0.002133	-0.000634	-0.017435	
 7975	    0	9.385768	-9.408910	0.182126	0.789096	-0.038911	-2.669611	0.092590	-0.095337	0.001465	0.999903	0.003945	-0.000195	-0.013348	
 7976	    0	6.587070	-8.814787	1.063367	1.317814	-0.095751	-1.772726	0.065081	-0.088795	0.010081	0.999938	0.006589	-0.000479	-0.008863	
 7977	    0	2.910734	-7.707007	-0.377567	1.686884	-0.218776	-0.786602	0.028809	-0.077148	-0.004395	0.999955	0.008434	-0.001094	-0.003933	
 7978	    0	-1.608342	-6.097950	-2.213243	1.573389	-0.170328	0.233843	-0.015993	-0.060822	-0.022625	0.999968	0.007867	-0.000852	0.001169	
 7979	    0	-4.218993	-5.577988	-2.324598	1.320668	-0.027275	1.351949	-0.041809	-0.055908	-0.023621	0.999955	0.006603	-0.000136	0.006760	
 7980	    0	-3.968214	-4.818010	-2.267960	1.199954	0.009537	2.591030	-0.039056	-0.048552	-0.022968	0.999898	0.006000	0.000048	0.012955	
 7981	    0	-2.992561	-3.293787	-2.235954	0.985018	0.008584	3.788999	-0.029297	-0.033386	-0.022522	0.999808	0.004925	0.000043	0.018944	
 7982	    0	-2.199567	-1.644185	-2.394248	0.684807	-0.029758	4.869379	-0.021585	-0.016889	-0.024003	0.999698	0.003424	-0.000149	0.024344	
 7983	    0	-1.067218	-0.363430	-2.861987	0.251996	-0.015261	5.812893	-0.010559	-0.003906	-0.028625	0.999577	0.001260	-0.000076	0.029060	
 7984	    0	-0.244697	-0.987760	-3.050216	-0.199545	-0.049409	6.575244	-0.002112	-0.009981	-0.030493	0.999458	-0.000998	-0.000247	0.032870	
 7985	    0	0.107672	-3.555998	-3.104465	-0.209663	-0.157963	7.198364	0.002380	-0.035522	-0.031006	0.999352	-0.001048	-0.000790	0.035984	
 7986	    0	1.996999	-6.010731	-2.682341	0.106457	-0.191546	7.744437	0.022302	-0.059259	-0.026834	0.999249	0.000532	-0.000957	0.038713	
 7987	    0	5.700216	-6.572180	-1.561033	0.430608	-0.212156	8.149693	0.059631	-0.063293	-0.015686	0.999166	0.002152	-0.001060	0.040737	
 7988	    0	8.600662	-4.434055	-0.904083	0.537269	-0.345523	8.416003	0.087785	-0.040647	-0.009003	0.999109	0.002686	-0.001727	0.042068	
 7989	    0	10.328433	-2.335082	-1.054157	0.156451	-0.466873	8.628479	0.104187	-0.018860	-0.010315	0.999066	0.000782	-0.002334	0.043129	
 7990	    0	11.476839	-3.448589	-0.577892	-0.182212	-0.617994	8.874387	0.116164	-0.029356	-0.005393	0.999010	-0.000911	-0.003089	0.044357	
 7991	    0	12.839502	-4.726905	-0.239842	-0.344777	-0.759388	9.080599	0.130371	-0.041382	-0.001831	0.998960	-0.001723	-0.003796	0.045387	
 7992	    0	14.191047	-5.169342	1.403217	-0.317495	-0.812246	9.175878	0.144022	-0.045094	0.014689	0.998938	-0.001587	-0.004060	0.045863	
 7993	    0	16.792930	-2.679312	1.004966	-0.145012	-0.947727	9.328827	0.168884	-0.018921	0.010864	0.998900	-0.000725	-0.004737	0.046627	
 7994	    0	19.689730	0.385223	3.168982	-0.149212	-1.001359	9.525507	0.196254	0.013236	0.032666	0.998853	-0.000746	-0.005005	0.047609	
 7995	    0	21.041333	2.626002	5.073018	0.000763	-1.098866	9.554158	0.208557	0.036255	0.051880	0.998843	0.000004	-0.005492	0.047752	
 7996	    0	21.822320	3.038005	5.076410	0.686144	-1.335462	9.447648	0.216125	0.040447	0.052340	0.998856	0.003429	-0.006675	0.047220	
 7997	    0	25.029373	4.873228	3.091325	1.656403	-1.418848	9.333559	0.247437	0.060059	0.033142	0.998852	0.008279	-0.007092	0.046650	
 7998	    0	29.183297	10.790415	0.394476	2.266576	-1.149602	9.064397	0.286514	0.120906	0.006924	0.998892	0.011329	-0.005746	0.045305	
 7999	    0	34.376959	21.767826	-1.804040	2.407136	-0.821013	8.705834	0.333923	0.232544	-0.013916	0.998971	0.012032	-0.004104	0.043514	
 8000	    0	34.824319	30.813726	-3.386197	2.349442	-0.773290	8.293642	0.335181	0.322578	-0.028815	0.999063	0.011744	-0.003865	0.041455	
 8001	    0	30.319633	32.619414	-3.292809	2.719814	-0.708762	7.325335	0.291077	0.337402	-0.027344	0.999230	0.013596	-0.003543	0.036617	
 8002	    0	28.246251	38.118589	-2.138759	3.275520	-0.708520	5.738551	0.271426	0.389351	-0.014080	0.999448	0.016375	-0.003542	0.028687	
 8003	    0	22.761706	43.987419	-4.044583	2.909389	-0.607172	3.995164	0.218872	0.444824	-0.033325	0.999690	0.014545	-0.003036	0.019974	
 8004	    0	17.822920	46.938815	-5.894733	2.028738	-0.510618	2.317904	0.172911	0.471975	-0.053722	0.999878	0.010143	-0.002553	0.011589	
 8005	    0	11.927569	52.248164	-4.316504	1.066598	-0.468258	0.835426	0.117188	0.523193	-0.040100	0.999974	0.005333	-0.002341	0.004177	
 8006	    0	10.081984	48.873671	-1.909153	-0.136566	-0.374223	-0.580598	0.102274	0.488428	-0.019235	0.999993	-0.000683	-0.001871	-0.002903	
 8007	    0	14.482788	37.504118	-2.951019	-0.837536	-0.508892	-2.117968	0.148865	0.373352	-0.030701	0.999931	-0.004188	-0.002544	-0.010590	
 8008	    0	11.039732	37.691164	-11.219323	-0.832226	-0.500518	-3.668433	0.117562	0.374329	-0.113466	0.999820	-0.004161	-0.002502	-0.018341	
 8009	    0	17.470280	72.749703	-55.508587	0.893792	-2.399215	-6.842800	0.206116	0.723267	-0.549500	0.999332	0.004468	-0.011993	-0.034206	
 8010	    0	83.782943	22.131286	9.239833	0.981154	1.132659	-9.724916	0.847756	0.179800	0.088565	0.998790	0.004904	0.005661	-0.048605	
 8011	    0	41.580206	-13.697577	21.380604	5.552707	-2.936156	-7.260631	0.407166	-0.157837	0.215637	0.998848	0.027753	-0.014675	-0.036289	
 8012	    0	2.984501	9.439987	18.754332	3.289014	-1.596524	-7.410632	0.031732	0.090143	0.189298	0.999146	0.016440	-0.007980	-0.037043	
 8013	    0	13.602440	23.689316	14.964246	2.438910	-1.721393	-6.764999	0.142578	0.230286	0.153687	0.999316	0.012192	-0.008605	-0.033817	
 8014	    0	1.039520	21.348691	2.016113	0.906887	-2.288010	-5.403549	0.015916	0.213012	0.021289	0.999558	0.004534	-0.011438	-0.027014	
 8015	    0	-9.238712	13.113183	-7.139491	-0.925334	-0.979698	-4.328526	-0.089172	0.132751	-0.072449	0.999743	-0.004626	-0.004898	-0.021641	
 8016	    0	2.908625	-3.831397	-9.128812	-0.195133	-0.444057	-3.740151	0.028564	-0.038940	-0.091187	0.999822	-0.000976	-0.002220	-0.018700	
 8017	    0	19.802461	14.362752	-8.797457	0.195513	-0.067905	-3.460104	0.200500	0.140259	-0.087769	0.999849	0.000978	-0.000340	-0.017300	
 8018	    0	20.300128	14.485501	-7.688450	-0.658436	-0.560777	-2.518538	0.205017	0.142029	-0.076782	0.999911	-0.003292	-0.002804	-0.012592	
 8019	    0	13.928308	4.547328	-4.210011	-0.803773	-0.330932	-2.062459	0.139811	0.043864	-0.042048	0.999936	-0.004019	-0.001655	-0.010312	
 8020	    0	20.275381	6.533710	-1.879865	-0.532922	0.115778	-1.900132	0.203351	0.063356	-0.019087	0.999950	-0.002665	0.000579	-0.009501	
 8021	    0	27.810274	9.976054	-4.371710	-0.706492	0.396925	-1.617454	0.278809	0.097351	-0.044617	0.999959	-0.003532	0.001985	-0.008087	
 8022	    0	28.321439	-0.403493	-3.917671	-0.719844	0.436408	-1.677919	0.283080	-0.006553	-0.039774	0.999955	-0.003599	0.002182	-0.008389	
 8023	    0	26.728534	-4.769701	-4.220492	-0.901620	0.601970	-1.755555	0.266724	-0.050232	-0.042786	0.999947	-0.004508	0.003010	-0.008778	
 8024	    0	26.539582	0.059058	-3.467141	-1.607745	0.764103	-1.720663	0.265251	-0.001976	-0.035676	0.999923	-0.008039	0.003820	-0.008603	
 8025	    0	26.228977	1.888071	-2.995856	-2.910563	0.654634	-1.629717	0.262329	0.016296	-0.031067	0.999855	-0.014552	0.003273	-0.008148	
 8026	    0	23.491339	-5.926404	-0.129097	-4.293621	0.519034	-1.406600	0.234487	-0.060932	-0.000604	0.999741	-0.021466	0.002595	-0.007032	
 8027	    0	18.553801	-11.405795	2.757046	-5.189352	0.409174	-0.838568	0.185120	-0.114075	0.030151	0.999652	-0.025944	0.002046	-0.004192	
 8028	    0	13.201507	-9.002637	2.948464	-6.322395	0.219191	-0.484929	0.131832	-0.089357	0.032172	0.999496	-0.031607	0.001096	-0.002424	
 8029	    0	12.110670	-10.257644	0.817824	-6.111335	-0.070774	-0.256388	0.120972	-0.102417	0.011353	0.999532	-0.030552	-0.000354	-0.001282	
 8030	    0	15.050835	-12.218724	0.747140	-4.673814	0.013353	-0.365291	0.150286	-0.122243	0.010318	0.999724	-0.023367	0.000067	-0.001826	
 8031	    0	16.478066	-7.780204	-1.049913	-3.424245	0.216876	-0.560789	0.164551	-0.078430	-0.009338	0.999848	-0.017120	0.001084	-0.002804	
 8032	    0	17.604277	0.824035	-3.529688	-3.198772	0.365274	-0.853578	0.176009	0.006920	-0.035736	0.999861	-0.015993	0.001826	-0.004268	
 8033	    0	15.000663	3.933656	-4.270508	-3.367026	0.466371	-0.937701	0.150085	0.037903	-0.043701	0.999845	-0.016834	0.002332	-0.004688	
 8034	    0	15.353165	4.491876	-3.376151	-3.612753	0.952210	-1.270186	0.153645	0.043315	-0.035285	0.999804	-0.018063	0.004761	-0.006351	
 8035	    0	13.828649	14.733237	-2.414022	-3.801903	1.233029	-2.679702	0.140076	0.144958	-0.027771	0.999710	-0.019008	0.006165	-0.013397	
 8036	    0	9.292336	20.357131	-8.556155	-3.642692	1.080637	-3.625333	0.096096	0.200239	-0.089743	0.999655	-0.018211	0.005403	-0.018125	
 8037	    0	10.126903	4.354199	-8.528758	-3.518875	1.532915	-3.435896	0.101318	0.040283	-0.086792	0.999668	-0.017592	0.007664	-0.017178	
 8038	    0	14.370815	-7.180298	-5.877963	-2.438408	1.969153	-3.771015	0.141729	-0.075209	-0.059278	0.999699	-0.012191	0.009845	-0.018853	
 8039	    0	15.740297	-7.861202	-4.506363	-0.523243	2.440147	-4.468261	0.155029	-0.082214	-0.046753	0.999672	-0.002616	0.012199	-0.022339	
 8040	    0	19.075806	-9.722593	-4.259989	1.221255	2.668563	-4.993374	0.187660	-0.101665	-0.045730	0.999580	0.006105	0.013341	-0.024963	
 8041	    0	22.323203	-12.924607	-4.507202	2.691577	2.560900	-5.541494	0.218933	-0.134705	-0.049683	0.999443	0.013455	0.012802	-0.027702	
 8042	    0	24.531786	-13.119125	-3.636713	3.683772	2.250251	-6.182609	0.240674	-0.137946	-0.041593	0.999289	0.018414	0.011249	-0.030906	
 8043	    0	25.213448	-8.832874	-4.595603	4.069872	1.756196	-6.795840	0.248535	-0.095825	-0.050049	0.999177	0.020344	0.008779	-0.033970	
 8044	    0	26.923722	-6.072261	-3.096501	3.943792	1.525546	-7.054982	0.266635	-0.069506	-0.034319	0.999154	0.019713	0.007626	-0.035265	
 8045	    0	27.201207	-4.136039	-3.339598	3.260893	0.999140	-7.151376	0.270142	-0.050476	-0.035522	0.999215	0.016300	0.004994	-0.035748	
 8046	    0	26.664690	-7.020839	-5.510675	2.347891	0.525590	-6.862817	0.263897	-0.078637	-0.056693	0.999338	0.011737	0.002627	-0.034307	
 8047	    0	23.106895	-9.431328	-6.381175	1.492776	0.235029	-6.487711	0.227783	-0.101257	-0.064819	0.999445	0.007463	0.001175	-0.032433	
 8048	    0	19.920692	-8.544265	-7.542026	0.569052	-0.000382	-6.116494	0.196475	-0.091265	-0.075674	0.999528	0.002845	-0.000002	-0.030578	
 8049	    0	21.261186	-8.105703	-7.383631	-0.150127	0.191522	-5.498436	0.210205	-0.086914	-0.073975	0.999620	-0.000751	0.000957	-0.027489	
 8050	    0	23.580740	-7.243108	-7.573096	0.134862	0.114261	-4.714068	0.233971	-0.077909	-0.075916	0.999722	0.000674	0.000571	-0.023568	
 8051	    0	19.163415	-11.463816	-6.967941	0.293181	-0.349452	-4.137719	0.189331	-0.118469	-0.069519	0.999783	0.001466	-0.001747	-0.020687	
 8052	    0	12.639939	-12.725989	-3.045474	0.407241	-0.354023	-3.524395	0.124186	-0.129399	-0.030496	0.999841	0.002036	-0.001770	-0.017621	
 8053	    0	7.743713	-9.792539	-0.393126	1.025427	-0.269899	-2.701663	0.076111	-0.098938	-0.004333	0.999894	0.005127	-0.001349	-0.013508	
 8054	    0	5.317568	-7.663760	0.141723	1.297785	-0.171665	-1.707301	0.052518	-0.077095	0.000963	0.999942	0.006489	-0.000858	-0.008536	
 8055	    0	2.629521	-6.384800	-1.136392	1.352704	-0.121881	-0.561528	0.026123	-0.063843	-0.011780	0.999972	0.006763	-0.000609	-0.002808	
 8056	    0	-0.572682	-5.933609	-2.498103	1.170548	-0.064087	0.555424	-0.005554	-0.059204	-0.025330	0.999978	0.005853	-0.000320	0.002777	
 8057	    0	-3.617254	-5.677999	-3.279806	0.791370	0.017548	1.651787	-0.035706	-0.056946	-0.033020	0.999958	0.003957	0.000088	0.008259	
 8058	    0	-4.028901	-5.248055	-3.433426	0.454728	0.153356	2.895459	-0.039551	-0.052979	-0.034424	0.999892	0.002274	0.000767	0.014477	
 8059	    0	-2.408866	-3.519764	-3.005808	0.171292	0.250834	4.121883	-0.023395	-0.035659	-0.030059	0.999785	0.000856	0.001254	0.020608	
 8060	    0	-1.213673	-0.780185	-3.059012	-0.251035	0.229861	5.154611	-0.011965	-0.008150	-0.030566	0.999666	-0.001255	0.001149	0.025770	
 8061	    0	-0.754143	-0.372692	-3.517692	-0.772787	0.142692	6.058681	-0.007446	-0.004089	-0.035156	0.999533	-0.003863	0.000713	0.030289	
 8062	    0	0.026950	-2.841426	-3.532077	-0.906934	0.005342	6.854851	0.001245	-0.028543	-0.035192	0.999402	-0.004534	0.000027	0.034267	
 8063	    0	1.020385	-4.690261	-3.127154	-0.585311	-0.122671	7.453366	0.011963	-0.046570	-0.031128	0.999301	-0.002926	-0.000613	0.037258	
 8064	    0	3.296326	-5.072328	-2.780446	-0.155298	-0.197462	7.874045	0.034953	-0.049395	-0.027732	0.999224	-0.000776	-0.000987	0.039360	
 8065	    0	6.034461	-4.723647	-2.221295	0.185447	-0.322624	8.236738	0.062256	-0.044678	-0.022156	0.999150	0.000927	-0.001613	0.041172	
 8066	    0	8.605757	-4.499420	-1.641186	0.284855	-0.457714	8.592207	0.087920	-0.041220	-0.016273	0.999073	0.001424	-0.002288	0.042948	
 8067	    0	10.806237	-4.623981	-0.521589	0.168665	-0.563807	8.875912	0.109985	-0.041382	-0.004944	0.999011	0.000843	-0.002818	0.044365	
 8068	    0	12.705184	-4.739268	-0.054557	0.057049	-0.670092	9.070089	0.129026	-0.041570	-0.000128	0.998965	0.000285	-0.003349	0.045335	
 8069	    0	14.798052	-4.168304	0.564248	-0.109902	-0.754622	9.157732	0.149658	-0.034851	0.006226	0.998944	-0.000549	-0.003772	0.045773	
 8070	    0	16.301142	-3.907808	0.162439	0.000763	-0.926166	9.331307	0.164587	-0.031422	0.002384	0.998900	0.000004	-0.004629	0.046639	
 8071	    0	18.480043	-2.118440	0.787201	0.042741	-1.059177	9.559501	0.185486	-0.012329	0.008850	0.998843	0.000214	-0.005294	0.047779	
 8072	    0	20.274397	0.440057	2.724885	0.164287	-1.228435	9.641628	0.202046	0.014132	0.028501	0.998818	0.000821	-0.006140	0.048189	
 8073	    0	21.874971	3.244177	4.599355	0.560976	-1.440029	9.471713	0.216553	0.042603	0.047668	0.998849	0.002804	-0.007197	0.047340	
 8074	    0	23.301618	6.639704	3.599289	1.365042	-1.637134	9.363720	0.229270	0.076936	0.038382	0.998847	0.006823	-0.008183	0.046801	
 8075	    0	25.673211	11.082772	1.118819	1.924307	-1.543262	9.324445	0.251099	0.122498	0.014282	0.998837	0.009618	-0.007713	0.046604	
 8076	    0	30.197809	17.215273	-1.411556	2.133603	-1.182430	9.200708	0.293703	0.185919	-0.010427	0.998867	0.010664	-0.005910	0.045986	
 8077	    0	35.114882	25.521485	-2.766965	2.136203	-0.919468	8.785219	0.339600	0.270569	-0.023254	0.998967	0.010677	-0.004596	0.043911	
 8078	    0	33.109424	31.435826	-2.808349	2.142968	-0.837574	8.103859	0.318098	0.327692	-0.023269	0.999112	0.010712	-0.004187	0.040507	
 8079	    0	30.110885	35.068337	-2.567315	2.375567	-0.792682	6.921423	0.288818	0.361084	-0.020264	0.999322	0.011875	-0.003963	0.034599	
 8080	    0	26.331893	40.282866	-3.215589	2.464472	-0.743977	5.409668	0.252396	0.410102	-0.026179	0.999551	0.012321	-0.003719	0.027044	
 8081	    0	21.282542	43.584012	-5.639141	1.927320	-0.567476	3.573096	0.205139	0.440063	-0.051575	0.999789	0.009636	-0.002837	0.017864	
 8082	    0	15.225163	48.852044	-5.113079	1.360355	-0.529112	1.963474	0.147573	0.490315	-0.047405	0.999925	0.006802	-0.002645	0.009817	
 8083	    0	11.457120	51.723528	-1.515752	0.361634	-0.430871	0.557710	0.113159	0.517578	-0.013977	0.999991	0.001808	-0.002154	0.002789	
 8084	    0	10.156471	43.508238	0.729233	-0.617794	-0.299837	-0.908475	0.103530	0.434635	0.006104	0.999984	-0.003089	-0.001499	-0.004542	
 8085	    0	16.723034	32.525600	-0.510462	-0.869586	-0.409711	-2.484204	0.171265	0.323120	-0.006165	0.999910	-0.004348	-0.002048	-0.012421	
 8086	    0	11.342360	31.861101	-6.900430	-0.676007	-0.478012	-3.822570	0.119648	0.316129	-0.069795	0.999808	-0.003380	-0.002390	-0.019112	
 8087	    0	21.092049	42.588180	-25.629856	-0.938565	-0.529374	-6.097623	0.224426	0.417969	-0.257690	0.999520	-0.004692	-0.002646	-0.030483	
 8088	    0	56.826418	18.591699	-27.861535	1.538138	-0.917503	-8.030677	0.576437	0.164999	-0.274660	0.999153	0.007689	-0.004586	-0.040142	
 8089	    0	60.010117	7.063324	19.762957	5.491276	-2.015720	-9.130755	0.600281	0.037659	0.205017	0.998530	0.027443	-0.010074	-0.045631	
 8090	    0	6.974411	-0.872863	11.138617	5.516954	-2.717835	-7.153875	0.067780	-0.014261	0.111974	0.998887	0.027575	-0.013584	-0.035756	
 8091	    0	11.662408	32.130389	21.456788	3.301537	-1.592674	-7.059051	0.126038	0.313354	0.220764	0.999208	0.016503	-0.007961	-0.035286	
 8092	    0	3.414305	19.199641	0.394137	1.512591	-2.371996	-5.694011	0.039527	0.190883	0.005836	0.999494	0.007562	-0.011858	-0.028465	
 8093	    0	-7.178002	21.694058	-6.039662	-0.181406	-1.472615	-4.575789	-0.066345	0.218445	-0.061096	0.999710	-0.000907	-0.007362	-0.022877	
 8094	    0	-0.195693	-2.365948	-9.729357	-1.471824	-0.479163	-4.012226	-0.002208	-0.024332	-0.097121	0.999768	-0.007359	-0.002396	-0.020060	
 8095	    0	17.624526	3.117622	-9.047282	0.286308	-0.112158	-3.587535	0.176819	0.028137	-0.090332	0.999838	0.001431	-0.000561	-0.017937	
 8096	    0	21.615077	20.208160	-5.389117	-0.313772	-0.439090	-3.130663	0.219396	0.198580	-0.053725	0.999873	-0.001569	-0.002195	-0.015653	
 8097	    0	14.736489	11.507755	-2.599664	-0.850511	-0.399792	-2.436898	0.148804	0.113159	-0.026184	0.999914	-0.004252	-0.001999	-0.012184	
 8098	    0	16.463114	4.915906	-1.913086	-0.655760	-0.033570	-2.113385	0.165141	0.047353	-0.019260	0.999938	-0.003279	-0.000168	-0.010567	
 8099	    0	23.273993	10.209538	-4.964870	-0.725567	0.187114	-1.766232	0.233582	0.099854	-0.050232	0.999953	-0.003628	0.000936	-0.008831	
 8100	    0	25.821626	3.630823	-5.740387	-0.891506	0.249294	-1.460475	0.258399	0.034164	-0.057881	0.999962	-0.004457	0.001246	-0.007302	
 8101	    0	29.673804	-3.922492	-3.838777	-0.753604	0.435644	-1.603721	0.296326	-0.041748	-0.038879	0.999958	-0.003768	0.002178	-0.008018	
 8102	    0	28.724687	-1.504987	-3.322190	-1.335550	0.532160	-1.536207	0.287029	-0.017480	-0.033875	0.999944	-0.006678	0.002661	-0.007681	
 8103	    0	28.686450	1.944654	-3.020779	-2.431581	0.577758	-1.721257	0.286926	0.016602	-0.031250	0.999885	-0.012157	0.002889	-0.008606	
 8104	    0	26.427133	-1.751079	-1.407281	-3.686968	0.469622	-1.639860	0.264081	-0.019939	-0.014340	0.999793	-0.018434	0.002348	-0.008199	
 8105	    0	22.184695	-9.759938	2.046229	-4.818466	0.387041	-1.296369	0.221252	-0.098511	0.022400	0.999686	-0.024090	0.001935	-0.006481	
 8106	    0	16.035316	-10.272105	3.771980	-6.184439	0.262303	-0.846047	0.159972	-0.102171	0.040675	0.999512	-0.030917	0.001311	-0.004230	
 8107	    0	12.585847	-10.085297	2.565806	-6.751014	-0.006677	-0.492190	0.125610	-0.100220	0.029053	0.999427	-0.033749	-0.000033	-0.002460	
 8108	    0	13.315450	-11.522974	1.004952	-5.961543	-0.166346	-0.440091	0.132891	-0.115152	0.013594	0.999553	-0.029803	-0.000832	-0.002200	
 8109	    0	15.765339	-11.939597	-0.531362	-4.227576	0.031283	-0.508156	0.157349	-0.119873	-0.002808	0.999773	-0.021136	0.000156	-0.002541	
 8110	    0	17.046124	-5.957387	-3.424084	-3.295293	0.307861	-0.742757	0.170185	-0.060762	-0.033508	0.999856	-0.016476	0.001539	-0.003714	
 8111	    0	17.374795	0.599357	-3.128955	-3.022706	0.428027	-1.010175	0.173706	0.004639	-0.031738	0.999870	-0.015113	0.002140	-0.005051	
 8112	    0	14.313538	2.830040	-3.693179	-2.888798	0.650814	-1.026005	0.143154	0.027024	-0.037794	0.999877	-0.014443	0.003254	-0.005130	
 8113	    0	12.843667	5.129031	-3.842476	-2.922995	1.183580	-2.078371	0.128723	0.049377	-0.039917	0.999822	-0.014614	0.005918	-0.010391	
 8114	    0	10.989828	18.943667	-6.164178	-2.427096	1.112069	-3.349560	0.112688	0.186793	-0.064541	0.999770	-0.012135	0.005560	-0.016747	
 8115	    0	9.733747	12.843254	-9.685958	-2.492744	1.393441	-3.615890	0.098938	0.125427	-0.099121	0.999734	-0.012463	0.006967	-0.018078	
 8116	    0	11.937328	-2.869449	-8.038873	-1.812120	1.637203	-3.529820	0.118172	-0.031520	-0.081082	0.999769	-0.009060	0.008185	-0.017648	
 8117	    0	13.916184	-6.391967	-6.516829	-0.538492	1.965507	-4.147708	0.137146	-0.066956	-0.066345	0.999733	-0.002692	0.009827	-0.020737	
 8118	    0	16.685815	-6.349577	-5.120392	0.978776	2.186271	-4.757871	0.164714	-0.067174	-0.053335	0.999645	0.004893	0.010930	-0.023787	
 8119	    0	20.121577	-9.832728	-3.275534	2.024564	2.113650	-5.133040	0.198242	-0.103088	-0.035889	0.999563	0.010121	0.010567	-0.025661	
 8120	    0	22.953868	-11.287410	-0.437688	2.387453	1.922171	-5.603408	0.226193	-0.119163	-0.007959	0.999490	0.011935	0.009609	-0.028012	
 8121	    0	23.856935	-8.586969	-0.717708	2.611288	1.496607	-6.140570	0.235718	-0.093018	-0.010132	0.999415	0.013054	0.007482	-0.030697	
 8122	    0	24.141855	-7.270432	-0.129939	2.656335	1.295354	-6.345900	0.238932	-0.080273	-0.003885	0.999387	0.013279	0.006475	-0.031723	
 8123	    0	23.845386	-6.823275	-1.611770	2.195596	1.018723	-6.401548	0.236023	-0.075623	-0.018127	0.999414	0.010976	0.005093	-0.032001	
 8124	    0	23.254145	-8.798615	-4.081118	1.499629	0.670360	-6.272461	0.229497	-0.094903	-0.042278	0.999475	0.007497	0.003351	-0.031357	
 8125	    0	20.638513	-8.916857	-5.997019	1.020210	0.278707	-6.036559	0.203491	-0.095032	-0.060730	0.999530	0.005100	0.001393	-0.030178	
 8126	    0	18.132940	-7.924381	-7.825753	0.768960	-0.087560	-5.740396	0.178996	-0.084103	-0.078496	0.999580	0.003844	-0.000438	-0.028698	
 8127	    0	16.830156	-8.621142	-8.175219	0.295292	-0.189041	-5.305343	0.166016	-0.090515	-0.081726	0.999646	0.001476	-0.000945	-0.026524	
 8128	    0	16.966166	-7.931811	-6.581943	-0.241494	0.009347	-4.823772	0.167679	-0.083458	-0.065728	0.999708	-0.001207	0.000047	-0.024117	
 8129	    0	18.665728	-6.791940	-5.063032	-0.208870	0.176252	-4.230816	0.185120	-0.071899	-0.050720	0.999775	-0.001044	0.000881	-0.021152	
 8130	    0	18.193685	-8.602464	-5.037331	0.089078	-0.061611	-3.615767	0.180358	-0.089272	-0.050357	0.999836	0.000445	-0.000308	-0.018078	
 8131	    0	13.353396	-11.494522	-4.639408	0.217637	-0.202187	-3.002281	0.131836	-0.116882	-0.046387	0.999886	0.001088	-0.001011	-0.015011	
 8132	    0	8.442953	-11.097226	-2.848821	0.541699	-0.147823	-2.190637	0.083229	-0.111811	-0.028728	0.999935	0.002708	-0.000739	-0.010953	
 8133	    0	5.515234	-8.807342	-1.715804	0.730903	-0.089837	-1.347364	0.054565	-0.088379	-0.017456	0.999970	0.003654	-0.000449	-0.006737	
 8134	    0	3.333011	-7.490689	-1.433144	0.780490	-0.035477	-0.452806	0.033163	-0.074925	-0.014618	0.999990	0.003902	-0.000177	-0.002264	
 8135	    0	0.566703	-6.955118	-1.640107	0.926404	0.023651	0.559237	0.005859	-0.069458	-0.016724	0.999985	0.004632	0.000118	0.002796	
 8136	    0	-1.460601	-5.557840	-1.958534	1.065843	0.084497	1.630809	-0.014161	-0.055590	-0.019876	0.999952	0.005329	0.000422	0.008154	
 8137	    0	-2.091006	-3.466100	-2.740405	1.123851	0.110821	2.754313	-0.020447	-0.034790	-0.027588	0.999888	0.005619	0.000554	0.013771	
 8138	    0	-1.963404	-1.882215	-3.513237	0.937907	0.139818	3.927689	-0.019286	-0.019038	-0.035208	0.999796	0.004689	0.000699	0.019637	
 8139	    0	-1.381459	-1.195802	-3.666598	0.501495	0.209067	5.000069	-0.013550	-0.012207	-0.036682	0.999683	0.002507	0.001045	0.024998	
 8140	    0	-0.159321	-1.237254	-3.735479	0.037389	0.244367	5.915552	-0.001272	-0.012406	-0.037355	0.999561	0.000187	0.001222	0.029573	
 8141	    0	0.758778	-2.767074	-3.295967	-0.054751	0.167115	6.718183	0.008484	-0.027405	-0.032959	0.999435	-0.000274	0.000835	0.033585	
 8142	    0	1.654553	-4.384813	-3.136990	0.219585	0.079173	7.356015	0.018129	-0.043166	-0.031425	0.999323	0.001098	0.000396	0.036772	
 8143	    0	3.433800	-5.024838	-3.036337	0.560332	0.090813	7.837404	0.036255	-0.048767	-0.030518	0.999228	0.002801	0.000454	0.039177	
 8144	    0	6.541846	-4.857555	-2.635023	0.737974	0.089099	8.262142	0.067335	-0.045722	-0.026552	0.999140	0.003689	0.000445	0.041299	
 8145	    0	9.480313	-3.767241	-2.314398	0.643360	-0.003625	8.662086	0.096313	-0.033447	-0.023254	0.999057	0.003216	-0.000018	0.043297	
 8146	    0	11.746805	-2.956665	-2.372292	0.404686	-0.149015	9.024256	0.118658	-0.024181	-0.023687	0.998980	0.002023	-0.000745	0.045106	
 8147	    0	13.371896	-3.392295	-2.038374	0.036825	-0.277047	9.310464	0.135132	-0.027649	-0.020203	0.998915	0.000184	-0.001385	0.046535	
 8148	    0	15.497564	-3.914416	-1.299290	-0.275144	-0.396688	9.514974	0.156629	-0.031734	-0.012636	0.998865	-0.001375	-0.001983	0.047557	
 8149	    0	17.947712	-3.493856	-0.637249	-0.349564	-0.579872	9.713004	0.180908	-0.026184	-0.005798	0.998815	-0.001747	-0.002898	0.048546	
 8150	    0	21.015074	-1.311349	0.465849	-0.434296	-0.749141	10.025057	0.210436	-0.002556	0.005460	0.998734	-0.002171	-0.003744	0.050104	
 8151	    0	23.174662	0.625743	2.560350	-0.408160	-1.002176	10.166781	0.230896	0.018066	0.026733	0.998693	-0.002040	-0.005009	0.050812	
 8152	    0	24.908655	1.120984	3.848154	0.110864	-1.246406	9.983268	0.247869	0.023584	0.040040	0.998734	0.000554	-0.006229	0.049895	
 8153	    0	27.642225	4.000418	1.585861	0.905976	-1.401134	9.720736	0.273926	0.053284	0.018005	0.998784	0.004528	-0.007003	0.048584	
 8154	    0	30.805466	9.985644	-1.042033	1.386800	-1.320780	9.467181	0.302926	0.114340	-0.007648	0.998834	0.006931	-0.006601	0.047318	
 8155	    0	35.592173	20.191343	-3.426410	1.370728	-1.099597	9.085272	0.346436	0.218018	-0.030884	0.998929	0.006851	-0.005496	0.045410	
 8156	    0	37.205445	30.863444	-3.113839	0.976492	-1.052620	8.630644	0.358430	0.324442	-0.027669	0.999043	0.004881	-0.005261	0.043139	
 8157	    0	32.887392	31.665342	-1.667589	1.301921	-0.972816	7.824500	0.316223	0.329285	-0.013000	0.999202	0.006508	-0.004863	0.039112	
 8158	    0	31.904899	35.618394	1.435806	2.283326	-0.814016	6.191250	0.307754	0.365623	0.019765	0.999447	0.011415	-0.004069	0.030951	
 8159	    0	26.346845	41.059146	-1.399790	2.861546	-0.624920	4.392753	0.254395	0.416382	-0.007263	0.999651	0.014306	-0.003124	0.021961	
 8160	    0	18.420725	46.909714	-5.702830	2.667777	-0.525506	2.635350	0.178137	0.472172	-0.050270	0.999821	0.013338	-0.002627	0.013176	
 8161	    0	11.286778	56.259293	-3.502118	1.538112	-0.421722	1.264212	0.109375	0.563538	-0.030457	0.999948	0.007690	-0.002109	0.006321	
 8162	    0	9.819011	50.087400	-2.228909	0.182724	-0.333405	-0.105476	0.098491	0.500842	-0.021667	0.999997	0.000914	-0.001667	-0.000527	
 8163	    0	16.230561	35.866296	-2.496603	-0.135043	-0.518617	-2.005041	0.165955	0.356995	-0.024780	0.999946	-0.000675	-0.002593	-0.010025	
 8164	    0	12.118877	35.245020	-3.256221	0.166521	-0.415825	-3.617868	0.127604	0.350207	-0.032009	0.999833	0.000833	-0.002079	-0.018088	
 8165	    0	24.878141	52.578200	-6.745966	-0.124377	0.161957	-5.833500	0.263916	0.518188	-0.067993	0.999574	-0.000622	0.000810	-0.029163	
 8166	    0	40.912972	6.456922	-1.407145	-1.101559	0.293037	-7.380484	0.411117	0.049339	-0.014973	0.999303	-0.005507	0.001465	-0.036894	
 8167	    0	45.595409	9.119395	-11.313550	3.254912	-1.811570	-7.618707	0.460022	0.075500	-0.107666	0.999101	0.016270	-0.009055	-0.038082	
 8168	    0	28.622397	7.374582	-0.631414	5.411366	-2.926656	-8.564912	0.289066	0.061466	-0.000322	0.998610	0.027044	-0.014627	-0.042805	
 8169	    0	10.196846	21.690772	7.258139	3.951133	-1.918615	-7.341716	0.109070	0.211487	0.077820	0.999084	0.019750	-0.009590	-0.036697	
 8170	    0	9.251527	20.375132	10.453106	2.862830	-2.366042	-6.465311	0.097734	0.199113	0.108540	0.999305	0.014311	-0.011827	-0.032319	
 8171	    0	-9.761806	26.721427	-6.117503	0.570181	-2.145667	-5.155859	-0.090027	0.269775	-0.061401	0.999605	0.002851	-0.010727	-0.025776	
 8172	    0	-9.544933	12.270427	-7.904533	-0.720271	-1.229763	-4.070597	-0.092440	0.124319	-0.080066	0.999767	-0.003601	-0.006148	-0.020351	
 8173	    0	5.579771	-1.739237	-7.289861	-1.344388	-0.075345	-3.738649	0.055481	-0.018921	-0.072754	0.999803	-0.006721	-0.000377	-0.018692	
 8174	    0	23.508235	7.518734	-4.783410	-0.075725	0.057795	-3.231952	0.236242	0.071358	-0.047930	0.999868	-0.000379	0.000289	-0.016159	
 8175	    0	25.146528	19.339024	-1.297281	-0.369276	-0.401129	-2.848916	0.254211	0.189758	-0.012817	0.999894	-0.001846	-0.002006	-0.014244	
 8176	    0	14.699653	8.893643	-1.701909	-0.716801	-0.272949	-2.430409	0.148086	0.087080	-0.017132	0.999918	-0.003584	-0.001365	-0.012152	
 8177	    0	18.617804	6.111240	-5.121591	-0.725380	0.152591	-2.107283	0.186768	0.058960	-0.051575	0.999937	-0.003627	0.000763	-0.010536	
 8178	    0	23.469368	6.787536	-6.210904	-0.536736	0.214389	-1.787593	0.235220	0.065607	-0.062539	0.999955	-0.002684	0.001072	-0.008938	
 8179	    0	26.044627	1.308579	-4.537067	-0.691041	0.421148	-1.490802	0.260437	0.010986	-0.045959	0.999964	-0.003455	0.002106	-0.007454	
 8180	    0	30.147170	-1.954228	-3.078491	-0.747310	0.522812	-1.610397	0.301219	-0.022085	-0.031493	0.999956	-0.003736	0.002614	-0.008052	
 8181	    0	29.198064	-2.201796	-1.894735	-1.362445	0.510416	-1.551848	0.291748	-0.024414	-0.019531	0.999943	-0.006812	0.002552	-0.007759	
 8182	    0	28.380982	1.506703	-1.804950	-2.384086	0.504894	-1.790687	0.283881	0.012303	-0.018924	0.999886	-0.011920	0.002524	-0.008953	
 8183	    0	26.054324	-3.388860	0.285138	-3.675904	0.391415	-1.671715	0.260254	-0.036011	0.002991	0.999794	-0.018378	0.001957	-0.008358	
 8184	    0	20.445028	-11.296745	3.195960	-4.722498	0.268963	-1.334325	0.203739	-0.113536	0.034362	0.999698	-0.023610	0.001345	-0.006671	
 8185	    0	14.828821	-8.546302	3.699333	-5.834860	0.151084	-1.007227	0.147888	-0.085083	0.039368	0.999561	-0.029170	0.000755	-0.005035	
 8186	    0	12.225728	-9.732835	1.059579	-6.265532	-0.123235	-0.660052	0.121928	-0.097334	0.013721	0.999503	-0.031322	-0.000616	-0.003300	
 8187	    0	12.830630	-11.917060	0.451662	-5.434333	-0.179122	-0.621110	0.127930	-0.119385	0.007874	0.999625	-0.027168	-0.000896	-0.003105	
 8188	    0	13.931650	-9.708602	-1.151609	-4.180074	-0.055508	-0.600287	0.139027	-0.097715	-0.009439	0.999777	-0.020899	-0.000278	-0.003001	
 8189	    0	16.350963	-5.060241	-2.483128	-3.738628	0.139054	-0.634804	0.163330	-0.051575	-0.023987	0.999820	-0.018692	0.000695	-0.003174	
 8190	    0	16.013576	0.413661	-2.693273	-3.661563	0.222410	-0.859311	0.160120	0.002953	-0.027172	0.999822	-0.018307	0.001112	-0.004296	
 8191	    0	13.134925	1.954464	-2.227806	-3.508188	0.608287	-0.713388	0.131348	0.018677	-0.023010	0.999835	-0.017540	0.003041	-0.003567	
 8192	    0	13.492813	7.786474	-0.359535	-3.881959	1.207831	-1.698822	0.135551	0.076615	-0.005908	0.999757	-0.019408	0.006039	-0.008493	
 8193	    0	13.212570	24.764731	-6.061812	-3.940258	1.145491	-3.148239	0.135620	0.244263	-0.066223	0.999665	-0.019699	0.005727	-0.015739	
 8194	    0	8.636080	15.341455	-13.105607	-3.956504	1.312603	-3.353519	0.088012	0.149308	-0.134611	0.999641	-0.019780	0.006562	-0.016766	
 8195	    0	12.708888	-2.217463	-10.899597	-3.338778	1.739682	-3.264956	0.125732	-0.026062	-0.109680	0.999689	-0.016692	0.008698	-0.016323	
 8196	    0	14.829095	-9.898094	-8.899199	-1.451243	2.205287	-3.866358	0.145345	-0.102460	-0.089870	0.999725	-0.007256	0.011025	-0.019330	
 8197	    0	16.855201	-8.607575	-6.243873	0.883779	2.460771	-4.641510	0.165710	-0.089661	-0.064880	0.999645	0.004418	0.012302	-0.023205	
 8198	    0	20.186449	-10.966788	-4.077784	2.127601	2.470215	-5.213605	0.198389	-0.114410	-0.044443	0.999527	0.010636	0.012349	-0.026064	
 8199	    0	23.388003	-11.742012	-0.827783	2.499875	2.395522	-5.879589	0.230164	-0.124084	-0.012573	0.999417	0.012497	0.011975	-0.029392	
 8200	    0	25.098610	-7.046655	-0.579550	2.851366	2.048764	-6.465844	0.248452	-0.078410	-0.009430	0.999323	0.014254	0.010242	-0.032322	
 8201	    0	26.559220	-5.759615	-1.136332	2.966240	1.822517	-6.638364	0.263367	-0.066162	-0.014709	0.999297	0.014828	0.009110	-0.033184	
 8202	    0	26.169258	-6.134884	-2.366083	2.735742	1.502559	-6.576082	0.259303	-0.069552	-0.026529	0.999337	0.013676	0.007511	-0.032873	
 8203	    0	25.387266	-9.077622	-4.621885	2.645653	1.066999	-6.407716	0.250549	-0.098206	-0.048828	0.999385	0.013226	0.005334	-0.032032	
 8204	    0	23.056489	-10.411529	-6.334957	2.123273	0.565634	-6.301332	0.226965	-0.110620	-0.065146	0.999443	0.010614	0.002828	-0.031501	
 8205	    0	19.987755	-8.572141	-7.585720	1.544441	0.237504	-6.054148	0.197083	-0.091125	-0.076782	0.999511	0.007721	0.001187	-0.030266	
 8206	    0	19.878698	-8.359508	-7.485404	1.151047	0.255619	-5.511823	0.196295	-0.088594	-0.075606	0.999602	0.005754	0.001278	-0.027555	
 8207	    0	21.370301	-8.027499	-6.594704	0.984295	0.332867	-4.895530	0.211548	-0.085144	-0.066711	0.999686	0.004921	0.001664	-0.024475	
 8208	    0	19.314424	-7.868140	-7.525002	1.100248	-0.094803	-4.273189	0.191446	-0.082369	-0.075605	0.999756	0.005501	-0.000474	-0.021364	
 8209	    0	13.794656	-10.996957	-5.356660	0.825549	-0.283639	-3.653169	0.135986	-0.112244	-0.053833	0.999824	0.004128	-0.001418	-0.018265	
 8210	    0	9.218506	-10.481423	-1.949735	0.898015	-0.219354	-2.918930	0.090665	-0.106056	-0.019872	0.999883	0.004490	-0.001097	-0.014594	
 8211	    0	5.966475	-7.738934	-0.320687	1.014161	-0.207524	-2.134755	0.058838	-0.078003	-0.003540	0.999929	0.005071	-0.001038	-0.010674	
 8212	    0	3.004291	-6.988527	-0.362363	0.943193	-0.190737	-1.191151	0.029630	-0.070045	-0.003925	0.999970	0.004716	-0.000954	-0.005956	
 8213	    0	0.094674	-7.343110	-1.455877	0.911907	-0.172425	-0.119782	0.000916	-0.073364	-0.014893	0.999989	0.004560	-0.000862	-0.000599	
 8214	    0	-2.562765	-7.119672	-2.251582	0.793653	-0.068474	0.941092	-0.025285	-0.071226	-0.022807	0.999981	0.003968	-0.000342	0.004705	
 8215	    0	-3.810133	-6.105053	-2.614537	0.719657	-0.007630	2.040140	-0.037476	-0.061340	-0.026367	0.999941	0.003598	-0.000038	0.010201	
 8216	    0	-3.219312	-5.207093	-2.659165	0.703843	-0.026895	3.203345	-0.031351	-0.052484	-0.026780	0.999865	0.003519	-0.000134	0.016016	
 8217	    0	-2.025167	-3.010322	-2.799259	0.524181	-0.041011	4.308657	-0.019592	-0.030457	-0.028076	0.999764	0.002621	-0.000205	0.021542	
 8218	    0	-0.918450	-0.682665	-3.260733	0.060661	-0.074014	5.247146	-0.008989	-0.007054	-0.032613	0.999656	0.000303	-0.000370	0.026233	
 8219	    0	-0.084061	-1.438559	-3.603580	-0.353297	-0.171498	6.142632	-0.000366	-0.014465	-0.036011	0.999526	-0.001766	-0.000857	0.030708	
 8220	    0	0.525632	-3.725659	-3.317677	-0.351022	-0.278719	6.903499	0.006585	-0.037103	-0.033103	0.999401	-0.001755	-0.001393	0.034511	
 8221	    0	1.786805	-5.174328	-2.963418	-0.000572	-0.333483	7.485424	0.019836	-0.051025	-0.029602	0.999298	-0.000003	-0.001667	0.037418	
 8222	    0	4.251981	-5.613963	-2.594116	0.406181	-0.352380	7.919865	0.044742	-0.054344	-0.025975	0.999212	0.002030	-0.001761	0.039589	
 8223	    0	7.260039	-5.025633	-2.039552	0.599272	-0.416686	8.316166	0.074646	-0.047119	-0.020386	0.999128	0.002995	-0.002083	0.041569	
 8224	    0	9.964773	-4.258152	-1.809505	0.509806	-0.533273	8.703328	0.101420	-0.038147	-0.017927	0.999046	0.002548	-0.002666	0.043503	
 8225	    0	11.855663	-4.239732	-1.781297	0.261968	-0.680773	8.994293	0.120361	-0.036987	-0.017456	0.998981	0.001309	-0.003403	0.044956	
 8226	    0	13.486043	-4.919572	-1.415983	0.052471	-0.829802	9.213490	0.136992	-0.042912	-0.013606	0.998930	0.000262	-0.004148	0.046051	
 8227	    0	15.532510	-5.019387	-0.510485	-0.150927	-0.940289	9.376181	0.157471	-0.042847	-0.004333	0.998890	-0.000754	-0.004700	0.046864	
 8228	    0	18.333737	-3.181283	-0.089371	-0.222101	-1.076733	9.569625	0.184580	-0.022999	0.000127	0.998840	-0.001110	-0.005382	0.047830	
 8229	    0	21.689343	0.771462	1.587071	-0.419025	-1.211852	9.816936	0.216064	0.018372	0.017151	0.998775	-0.002094	-0.006057	0.049065	
 8230	    0	23.673179	2.570417	5.148059	-0.475318	-1.353063	9.883983	0.234718	0.037465	0.052994	0.998753	-0.002376	-0.006763	0.049399	
 8231	    0	25.293585	3.275743	5.827442	0.125172	-1.593463	9.659620	0.250488	0.044861	0.060303	0.998801	0.000626	-0.007964	0.048279	
 8232	    0	27.551771	6.930338	3.598641	0.807684	-1.637502	9.321856	0.271587	0.081874	0.038535	0.998872	0.004037	-0.008184	0.046592	
 8233	    0	30.107063	13.977940	0.671428	1.447238	-1.414229	9.008173	0.294312	0.153076	0.009888	0.998934	0.007234	-0.007069	0.045025	
 8234	    0	35.129285	25.245445	-1.800216	1.715267	-1.106624	8.619456	0.340065	0.267406	-0.013848	0.999019	0.008574	-0.005531	0.043083	
 8235	    0	34.464403	33.452530	-1.180359	1.863643	-0.943078	8.108600	0.330750	0.348206	-0.007019	0.999124	0.009315	-0.004714	0.040531	
 8236	    0	31.553203	33.489746	1.463612	2.688468	-0.761020	6.971854	0.303542	0.345371	0.020403	0.999294	0.013439	-0.003804	0.034851	
 8237	    0	29.402681	40.056986	2.061000	3.358981	-0.588127	5.064416	0.283691	0.407410	0.028259	0.999534	0.016792	-0.002940	0.025318	
 8238	    0	22.750964	46.731164	-3.270320	3.002227	-0.417554	3.303232	0.219804	0.471400	-0.025183	0.999748	0.015010	-0.002088	0.016515	
 8239	    0	15.042821	49.758845	-5.944369	2.253226	-0.400557	1.674708	0.146362	0.499451	-0.053528	0.999899	0.011266	-0.002003	0.008373	
 8240	    0	12.574292	50.685963	-5.265270	1.214609	-0.526241	-0.081254	0.126081	0.507114	-0.049242	0.999977	0.006073	-0.002631	-0.000406	
 8241	    0	14.919552	43.731114	-3.502693	0.375372	-0.519379	-1.765468	0.153137	0.436035	-0.033813	0.999955	0.001877	-0.002597	-0.008827	
 8242	    0	15.787319	56.860104	-7.438007	0.542489	-0.286505	-4.126276	0.169665	0.565380	-0.072606	0.999782	0.002712	-0.001432	-0.020630	
 8243	    0	27.898744	68.355762	-28.200756	0.598485	-1.159195	-7.640462	0.306458	0.673035	-0.278259	0.999249	0.002992	-0.005795	-0.038193	
 8244	    0	58.261783	43.319595	-9.656334	1.789399	-0.396690	-9.428978	0.602374	0.405935	-0.091667	0.998846	0.008944	-0.001983	-0.047127	
 8245	    0	34.286209	-19.769296	22.599563	4.212779	-2.450395	-7.304440	0.332458	-0.214722	0.225708	0.999036	0.021057	-0.012248	-0.036510	
 8246	    0	2.145113	-3.931849	7.926563	3.832754	-2.256839	-6.922004	0.019149	-0.041520	0.078709	0.999153	0.019158	-0.011281	-0.034600	
 8247	    0	4.291750	41.566388	8.632031	3.087586	-1.679438	-6.679595	0.055969	0.412537	0.093140	0.999288	0.015434	-0.008395	-0.033390	
 8248	    0	-2.689849	21.989848	-3.174846	0.771622	-2.224254	-5.030516	-0.021007	0.220597	-0.031154	0.999614	0.003858	-0.011120	-0.025149	
 8249	    0	-16.441030	10.481623	-12.818295	-0.789690	-0.972616	-3.603582	-0.161865	0.107239	-0.129395	0.999818	-0.003948	-0.004863	-0.018017	
 8250	    0	6.516005	-0.839710	-8.688866	-0.778815	-0.020410	-3.601278	0.065000	-0.009907	-0.086845	0.999830	-0.003894	-0.000102	-0.018005	
 8251	    0	28.422957	12.439350	-3.923243	-0.002098	0.093845	-3.166331	0.286133	0.119873	-0.039368	0.999874	-0.000010	0.000469	-0.015831	
 8252	    0	26.727015	17.020932	-2.141309	-0.439275	-0.630206	-2.541426	0.269470	0.166748	-0.020935	0.999911	-0.002196	-0.003151	-0.012707	
 8253	    0	11.651551	7.952364	-1.970414	-0.745982	-0.274665	-2.262170	0.117432	0.078125	-0.019836	0.999928	-0.003730	-0.001373	-0.011311	
 8254	    0	19.795383	4.750418	-3.352291	-0.680745	0.116541	-2.006378	0.198397	0.045401	-0.033795	0.999943	-0.003404	0.000583	-0.010032	
 8255	    0	23.457372	8.909747	-6.383262	-0.666055	0.175669	-1.624319	0.235229	0.086975	-0.064331	0.999961	-0.003330	0.000878	-0.008121	
 8256	    0	24.543513	1.652827	-6.486712	-0.890360	0.353436	-1.345078	0.245422	0.014587	-0.065369	0.999966	-0.004452	0.001767	-0.006725	
 8257	    0	29.615143	-1.375823	-4.806426	-0.775156	0.562103	-1.469249	0.295902	-0.016121	-0.048837	0.999959	-0.003876	0.002810	-0.007346	
 8258	    0	28.768787	-0.016393	-3.900479	-1.452664	0.646222	-1.394298	0.287548	-0.002457	-0.039922	0.999944	-0.007263	0.003231	-0.006971	
 8259	    0	27.935134	1.845079	-3.440841	-2.606877	0.685147	-1.519836	0.279358	0.015869	-0.035583	0.999880	-0.013034	0.003426	-0.007599	
 8260	    0	26.115378	-3.505664	-1.034553	-3.984755	0.557942	-1.440730	0.260862	-0.037143	-0.010347	0.999771	-0.019922	0.002789	-0.007203	
 8261	    0	22.359385	-10.398135	2.126558	-4.898397	0.399822	-1.064413	0.223083	-0.104614	0.023376	0.999683	-0.024489	0.001999	-0.005322	
 8262	    0	16.308708	-9.971528	4.963895	-5.982541	0.229870	-0.668627	0.162815	-0.098720	0.052415	0.999546	-0.029908	0.001149	-0.003343	
 8263	    0	12.512897	-8.608520	3.337251	-6.776011	0.019077	-0.309813	0.125000	-0.085083	0.036255	0.999424	-0.033874	0.000095	-0.001549	
 8264	    0	11.339937	-13.887427	0.944056	-6.016305	-0.085271	-0.254860	0.113217	-0.138650	0.013662	0.999546	-0.030077	-0.000426	-0.001274	
 8265	    0	14.950682	-13.583318	-0.317761	-3.898109	0.196279	-0.492891	0.149170	-0.136230	-0.000671	0.999806	-0.019489	0.000981	-0.002464	
 8266	    0	15.595278	-3.926905	-2.652310	-2.796276	0.466173	-0.910220	0.155709	-0.040347	-0.026327	0.999888	-0.013981	0.002331	-0.004551	
 8267	    0	14.843222	3.581342	-3.437099	-2.694041	0.506802	-1.237534	0.148560	0.034424	-0.035217	0.999887	-0.013470	0.002534	-0.006187	
 8268	    0	14.366454	3.032299	-4.206584	-2.702630	0.790055	-1.266148	0.143682	0.028836	-0.043030	0.999881	-0.013513	0.003950	-0.006330	
 8269	    0	15.241972	4.568937	-4.267460	-2.803020	1.255112	-2.282854	0.152649	0.043335	-0.044250	0.999817	-0.014014	0.006275	-0.011414	
 8270	    0	12.206613	16.321272	-5.481006	-2.382850	1.182269	-3.467454	0.124529	0.160394	-0.057464	0.999761	-0.011913	0.005911	-0.017336	
 8271	    0	10.326848	14.228024	-9.850078	-2.609504	1.308758	-3.815827	0.105286	0.138977	-0.101013	0.999711	-0.013046	0.006543	-0.019077	
 8272	    0	12.956306	0.249695	-8.551754	-1.993152	1.622906	-3.622734	0.128870	-0.000701	-0.086569	0.999753	-0.009965	0.008114	-0.018112	
 8273	    0	15.161685	-5.689476	-7.544361	-0.850753	1.953490	-4.102691	0.149658	-0.060303	-0.076660	0.999732	-0.004253	0.009767	-0.020512	
 8274	    0	17.723165	-6.052466	-7.414816	0.669174	2.218500	-4.692422	0.174912	-0.064394	-0.076308	0.999658	0.003345	0.011091	-0.023459	
 8275	    0	21.417865	-9.750325	-5.659112	1.690915	2.178694	-5.160496	0.210938	-0.102478	-0.059753	0.999572	0.008453	0.010892	-0.025799	
 8276	    0	24.380211	-13.781248	-1.644766	2.322413	2.065067	-5.694434	0.239553	-0.144451	-0.020588	0.999474	0.011610	0.010324	-0.028467	
 8277	    0	25.208916	-11.016200	-1.240205	2.750216	1.604992	-6.379525	0.248291	-0.117920	-0.015991	0.999364	0.013748	0.008023	-0.031891	
 8278	    0	26.380895	-9.420815	-0.891900	2.642450	1.485198	-6.603931	0.260428	-0.102699	-0.012181	0.999340	0.013209	0.007424	-0.033012	
 8279	    0	25.970102	-8.740055	-0.053381	2.219094	1.105159	-6.652703	0.256592	-0.095947	-0.002991	0.999370	0.011093	0.005525	-0.033257	
 8280	    0	23.672400	-11.086879	-3.252046	1.684316	0.585285	-6.485254	0.232872	-0.118179	-0.034181	0.999434	0.008420	0.002926	-0.032420	
 8281	    0	20.216217	-13.335879	-4.197666	1.213277	0.404616	-6.205261	0.197815	-0.139282	-0.043213	0.999497	0.006065	0.002023	-0.031021	
 8282	    0	16.552829	-10.781338	-5.456535	0.601860	0.130673	-6.005436	0.162160	-0.112552	-0.055006	0.999544	0.003009	0.000653	-0.030023	
 8283	    0	15.509408	-7.607542	-8.071076	0.473085	-0.033383	-5.618267	0.152893	-0.080200	-0.080872	0.999602	0.002365	-0.000167	-0.028088	
 8284	    0	17.285545	-7.021130	-7.456857	0.041775	0.200293	-5.078481	0.170924	-0.074553	-0.074756	0.999677	0.000209	0.001001	-0.025390	
 8285	    0	19.228231	-4.919254	-7.612229	0.574728	0.215165	-4.246847	0.191101	-0.053040	-0.076477	0.999769	0.002873	0.001076	-0.021233	
 8286	    0	16.377658	-8.530437	-6.409475	0.813718	-0.011063	-3.467552	0.162271	-0.087865	-0.064440	0.999841	0.004068	-0.000055	-0.017337	
 8287	    0	11.720551	-11.360324	-2.541846	0.883516	0.026132	-2.794747	0.115601	-0.115112	-0.025940	0.999892	0.004417	0.000131	-0.013973	
 8288	    0	8.182280	-9.416365	-0.125999	1.386868	0.054552	-2.007916	0.080872	-0.094967	-0.001939	0.999925	0.006934	0.000273	-0.010039	
 8289	    0	4.830396	-7.166277	0.453539	1.712066	0.058175	-1.092548	0.047913	-0.071960	0.003906	0.999948	0.008560	0.000291	-0.005463	
 8290	    0	1.519015	-6.156804	-1.232051	1.718733	0.098230	-0.131799	0.015143	-0.061469	-0.012856	0.999962	0.008594	0.000491	-0.000659	
 8291	    0	-1.911121	-4.901654	-2.654904	1.572440	0.181773	0.877392	-0.018921	-0.048889	-0.026917	0.999959	0.007862	0.000909	0.004387	
 8292	    0	-3.610846	-4.358224	-3.253670	1.295884	0.303085	1.988649	-0.035724	-0.043727	-0.032765	0.999928	0.006479	0.001515	0.009943	
 8293	    0	-2.908526	-3.255471	-3.148979	1.086667	0.357835	3.153377	-0.028625	-0.032837	-0.031616	0.999859	0.005433	0.001789	0.015766	
 8294	    0	-1.587810	-1.928819	-3.037671	0.781121	0.400766	4.272418	-0.015524	-0.019504	-0.030421	0.999762	0.003905	0.002004	0.021360	
 8295	    0	-1.319230	0.884956	-3.342622	0.283274	0.414324	5.256501	-0.013489	0.008545	-0.033386	0.999651	0.001416	0.002071	0.026279	
 8296	    0	-0.863600	1.443215	-4.218192	-0.459745	0.448489	6.162485	-0.009168	0.014058	-0.042194	0.999519	-0.002298	0.002242	0.030807	
 8297	    0	-0.304730	-1.235961	-3.973407	-0.892822	0.371818	6.944171	-0.002686	-0.012634	-0.039673	0.999385	-0.004463	0.001859	0.034714	
 8298	    0	0.197169	-4.464851	-3.520804	-0.730500	0.233325	7.565032	0.003620	-0.044661	-0.035048	0.999277	-0.003652	0.001166	0.037816	
 8299	    0	3.009448	-6.514484	-3.166579	-0.205095	0.103024	8.007665	0.032654	-0.063904	-0.031616	0.999197	-0.001025	0.000515	0.040028	
 8300	    0	6.423478	-6.436028	-2.428748	0.172474	0.000572	8.346693	0.066844	-0.061585	-0.024342	0.999128	0.000862	0.000003	0.041721	
 8301	    0	9.547891	-5.010728	-1.922437	0.174005	-0.081469	8.655199	0.097534	-0.045898	-0.019226	0.999063	0.000870	-0.000407	0.043262	
 8302	    0	11.664947	-3.567219	-1.351761	-0.078227	-0.246511	8.924396	0.118102	-0.030428	-0.013360	0.999003	-0.000391	-0.001232	0.044607	
 8303	    0	13.295916	-3.621097	-1.292427	-0.351648	-0.439608	9.169178	0.134460	-0.030090	-0.012573	0.998945	-0.001758	-0.002197	0.045830	
 8304	    0	15.168677	-4.770350	-0.609553	-0.545509	-0.623930	9.308196	0.153705	-0.040595	-0.005501	0.998908	-0.002727	-0.003119	0.046524	
 8305	    0	17.228974	-5.794964	-0.855249	-0.306626	-0.898317	9.445685	0.174805	-0.049744	-0.007690	0.998873	-0.001533	-0.004490	0.047211	
 8306	    0	20.780687	-5.493052	-0.705834	0.243091	-1.144475	9.618898	0.210162	-0.044850	-0.005919	0.998826	0.001215	-0.005720	0.048076	
 8307	    0	25.214748	-1.454220	0.109440	0.885567	-1.331117	9.837598	0.252441	-0.002136	0.002747	0.998758	0.004426	-0.006653	0.049168	
 8308	    0	27.871361	3.774196	3.313017	1.193541	-1.398284	9.799056	0.276185	0.051112	0.035346	0.998757	0.005965	-0.006989	0.048975	
 8309	    0	29.826361	6.171252	2.292486	1.777603	-1.569809	9.549751	0.294678	0.075623	0.025879	0.998790	0.008884	-0.007846	0.047729	
 8310	    0	32.241120	10.572296	-0.298002	2.023719	-1.424961	9.327502	0.317021	0.120603	0.000463	0.998836	0.010115	-0.007122	0.046619	
 8311	    0	35.999002	20.722896	-1.746187	1.705956	-1.057803	8.928744	0.350342	0.223145	-0.013733	0.998953	0.008527	-0.005287	0.044628	
 8312	    0	36.467752	32.625503	-1.212073	1.114232	-0.831285	8.443547	0.350518	0.341311	-0.008770	0.999084	0.005569	-0.004155	0.042205	
 8313	    0	31.758714	35.716266	-1.169501	0.970127	-0.617371	7.618309	0.303711	0.368958	-0.008972	0.999258	0.004849	-0.003086	0.038082	
 8314	    0	28.678250	37.415137	-2.058788	1.473662	-0.422164	5.990220	0.275444	0.382650	-0.017200	0.999521	0.007367	-0.002110	0.029946	
 8315	    0	22.476842	43.110573	-5.882859	1.767303	-0.331906	4.050014	0.216064	0.436035	-0.054626	0.999754	0.008836	-0.001659	0.020248	
 8316	    0	17.704779	48.313637	-8.727899	1.444290	-0.350773	2.327802	0.171553	0.485766	-0.083473	0.999905	0.007221	-0.001754	0.011639	
 8317	    0	11.346308	55.307066	-2.798129	0.658611	-0.390627	0.768284	0.111389	0.553589	-0.025940	0.999985	0.003293	-0.001953	0.003841	
 8318	    0	12.141104	51.038122	0.975560	-0.365449	-0.358964	-0.742152	0.123287	0.509943	0.009044	0.999990	-0.001827	-0.001795	-0.003711	
 8319	    0	14.391625	39.556736	-1.110191	-0.880459	-0.442327	-2.496413	0.148865	0.393677	-0.012512	0.999909	-0.004402	-0.002212	-0.012482	
 8320	    0	13.916321	42.287972	-5.668372	-0.457610	-0.129329	-4.361884	0.148376	0.419580	-0.057552	0.999759	-0.002288	-0.000647	-0.021808	
 8321	    0	25.450608	42.960475	-21.036544	-0.717332	-0.572912	-7.461016	0.270874	0.418945	-0.211121	0.999293	-0.003586	-0.002864	-0.037296	
 8322	    0	55.294108	31.621994	-19.943390	2.104140	-0.700235	-8.763436	0.566827	0.293643	-0.194296	0.998979	0.010517	-0.003500	-0.043802	
 8323	    0	47.632587	4.015149	27.975323	4.443745	-2.009598	-8.315445	0.474426	0.014099	0.285034	0.998838	0.022210	-0.010044	-0.041561	
 8324	    0	6.450719	0.947778	6.618039	4.424522	-2.691155	-6.931750	0.063850	0.005777	0.067198	0.999063	0.022116	-0.013452	-0.034648	
 8325	    0	9.093908	29.534412	16.210084	2.635277	-2.042898	-6.977294	0.099426	0.289795	0.166931	0.999252	0.013173	-0.010212	-0.034878	
 8326	    0	-1.799944	20.186520	-3.815830	0.286910	-2.419661	-5.638246	-0.011839	0.202312	-0.038036	0.999528	0.001434	-0.012096	-0.028187	
 8327	    0	-16.096579	15.588548	-12.087363	-0.992481	-1.449712	-4.237737	-0.156738	0.158630	-0.122803	0.999737	-0.004962	-0.007248	-0.021187	
 8328	    0	-0.890124	-2.578849	-10.549556	-1.572340	-0.188841	-3.823362	-0.009303	-0.026442	-0.105298	0.999785	-0.007861	-0.000944	-0.019115	
 8329	    0	23.879726	6.314193	-6.813531	0.074771	0.155075	-3.310546	0.239746	0.059204	-0.068298	0.999862	0.000374	0.000775	-0.016552	
 8330	    0	27.683028	20.127996	-2.546643	-0.513094	-0.412001	-2.743049	0.279608	0.197392	-0.025402	0.999900	-0.002565	-0.002060	-0.013715	
 8331	    0	14.089413	10.102383	-1.095954	-0.772878	-0.248534	-2.366700	0.142090	0.099304	-0.011169	0.999921	-0.003864	-0.001243	-0.011833	
 8332	    0	18.993417	7.199697	-2.844055	-0.706497	0.205807	-2.117392	0.190652	0.069880	-0.028886	0.999937	-0.003532	0.001029	-0.010587	
 8333	    0	23.693098	7.617637	-6.337884	-0.627146	0.348097	-1.789884	0.237488	0.073853	-0.064026	0.999953	-0.003136	0.001740	-0.008949	
 8334	    0	24.384216	3.856768	-7.367643	-0.863850	0.543029	-1.469441	0.243914	0.036455	-0.074499	0.999960	-0.004319	0.002715	-0.007347	
 8335	    0	30.898646	-4.115911	-4.879502	-0.652322	0.744830	-1.542685	0.308472	-0.043701	-0.049805	0.999957	-0.003262	0.003724	-0.007713	
 8336	    0	29.973803	-1.044590	-3.923416	-1.211187	0.794806	-1.419664	0.299494	-0.012815	-0.040352	0.999949	-0.006056	0.003974	-0.007098	
 8337	    0	29.792139	1.672985	-2.983266	-2.519136	0.825533	-1.587740	0.297913	0.013977	-0.031250	0.999880	-0.012595	0.004128	-0.007938	
 8338	    0	27.502489	-2.646400	-0.683694	-4.079386	0.666100	-1.526765	0.274788	-0.028707	-0.007182	0.999757	-0.020395	0.003330	-0.007633	
 8339	    0	23.170604	-10.936911	2.429457	-5.068592	0.508938	-1.149880	0.231140	-0.110046	0.026489	0.999659	-0.025340	0.002544	-0.005749	
 8340	    0	16.773576	-11.372326	5.826717	-5.942281	0.409569	-0.696096	0.167466	-0.112515	0.061279	0.999550	-0.029707	0.002048	-0.003480	
 8341	    0	12.383657	-8.860337	3.592666	-6.780019	0.142125	-0.330416	0.123718	-0.087524	0.038818	0.999423	-0.033894	0.000710	-0.001652	
 8342	    0	12.001023	-13.318334	0.063670	-5.793621	-0.012400	-0.297207	0.119812	-0.133268	0.004504	0.999578	-0.028964	-0.000062	-0.001486	
 8343	    0	15.713041	-14.359064	-1.451862	-3.502648	0.268569	-0.520352	0.156738	-0.144226	-0.012207	0.999842	-0.017512	0.001343	-0.002602	
 8344	    0	16.056787	-4.233591	-4.101972	-2.348966	0.522628	-0.964764	0.160253	-0.043591	-0.040932	0.999915	-0.011744	0.002613	-0.004824	
 8345	    0	14.690680	3.669495	-4.102850	-2.089745	0.470174	-1.254305	0.147034	0.035339	-0.041748	0.999923	-0.010448	0.002351	-0.006271	
 8346	    0	12.058659	3.854841	-4.948281	-2.473534	0.715280	-1.229328	0.120639	0.037188	-0.050380	0.999898	-0.012367	0.003576	-0.006146	
 8347	    0	13.034062	4.610483	-4.628986	-2.943416	1.385586	-2.149337	0.130493	0.044006	-0.047852	0.999809	-0.014716	0.006927	-0.010746	
 8348	    0	12.809801	19.663278	-5.701638	-2.598987	1.318092	-3.502958	0.131116	0.193583	-0.060403	0.999740	-0.012994	0.006590	-0.017513	
 8349	    0	10.741592	14.756647	-11.216792	-2.686568	1.266792	-3.776914	0.109436	0.143982	-0.114807	0.999711	-0.013432	0.006333	-0.018883	
 8350	    0	12.916939	0.724525	-10.956346	-2.220913	1.386569	-3.656886	0.128494	0.003668	-0.110510	0.999746	-0.011104	0.006932	-0.018283	
 8351	    0	15.274460	-5.414758	-9.425906	-1.445708	1.802986	-3.998921	0.150757	-0.057861	-0.095215	0.999733	-0.007228	0.009014	-0.019993	
 8352	    0	18.546409	-6.782795	-8.470786	0.010873	2.178805	-4.559430	0.182917	-0.072013	-0.086714	0.999681	0.000054	0.010893	-0.022795	
 8353	    0	23.090924	-9.968604	-5.455188	1.036976	2.371730	-5.100182	0.227600	-0.105225	-0.057800	0.999591	0.005184	0.011857	-0.025497	
 8354	    0	26.171158	-12.189205	-3.171762	1.826597	2.156243	-5.730650	0.257712	-0.129002	-0.035667	0.999489	0.009131	0.010779	-0.028648	
 8355	    0	26.828616	-11.365491	-2.864076	2.508304	1.805681	-6.355845	0.264221	-0.121704	-0.032532	0.999375	0.012539	0.009027	-0.031773	
 8356	    0	27.405878	-10.295029	-3.255937	2.472673	1.647558	-6.734461	0.270108	-0.111659	-0.036140	0.999322	0.012361	0.008236	-0.033665	
 8357	    0	27.471800	-9.583889	-0.654420	2.139183	1.385041	-6.823713	0.271179	-0.105042	-0.009521	0.999336	0.010694	0.006924	-0.034111	
 8358	    0	24.044384	-10.678597	-2.463507	1.687771	0.788466	-6.700722	0.236590	-0.114538	-0.026518	0.999395	0.008437	0.003942	-0.033497	
 8359	    0	20.121960	-11.371002	-5.331080	1.173612	0.321446	-6.462499	0.197327	-0.119812	-0.054321	0.999459	0.005867	0.001607	-0.032307	
 8360	    0	15.995160	-10.503874	-7.880044	0.672637	0.076878	-6.111917	0.156618	-0.109593	-0.079225	0.999527	0.003363	0.000384	-0.030555	
 8361	    0	13.321558	-8.898703	-7.928679	0.114646	0.009919	-5.548045	0.130676	-0.092590	-0.079346	0.999615	0.000573	0.000050	-0.027737	
 8362	    0	13.742947	-6.726622	-6.539623	-0.360144	-0.000763	-4.897610	0.135726	-0.070722	-0.065270	0.999698	-0.001801	-0.000004	-0.024486	
 8363	    0	16.688008	-7.316597	-4.532248	-0.373675	0.054935	-4.037752	0.165344	-0.076599	-0.045227	0.999794	-0.001868	0.000275	-0.020187	
 8364	    0	15.762907	-9.904497	-4.935071	0.018693	-0.208101	-3.233670	0.156052	-0.101572	-0.049197	0.999868	0.000093	-0.001040	-0.016168	
 8365	    0	11.156180	-9.941122	-2.241243	0.093081	-0.217253	-2.581859	0.110291	-0.100830	-0.022339	0.999915	0.000465	-0.001086	-0.012909	
 8366	    0	7.375190	-8.019158	-0.605527	0.373846	-0.225070	-1.830128	0.073021	-0.080851	-0.006124	0.999955	0.001869	-0.001125	-0.009151	
 8367	    0	4.771123	-7.393973	-0.215572	0.582889	-0.220300	-0.946050	0.047363	-0.074158	-0.002319	0.999984	0.002914	-0.001101	-0.004730	
 8368	    0	2.064465	-7.378805	0.019787	0.687219	-0.132752	0.032425	0.020657	-0.073785	-0.000042	0.999993	0.003436	-0.000664	0.000162	
 8369	    0	-0.212298	-6.657707	0.071693	0.868995	-0.039482	1.060494	-0.001770	-0.066589	0.000427	0.999976	0.004345	-0.000197	0.005302	
 8370	    0	-1.501833	-6.002946	-0.165416	1.254305	-0.053407	2.145441	-0.014373	-0.060174	-0.002035	0.999923	0.006271	-0.000267	0.010727	
 8371	    0	-2.178428	-5.595404	-1.016922	1.577271	-0.077824	3.228934	-0.020874	-0.056213	-0.010620	0.999838	0.007886	-0.000389	0.016144	
 8372	    0	-1.867221	-4.498312	-1.775585	1.667358	-0.000382	4.243074	-0.017715	-0.045216	-0.018132	0.999740	0.008336	-0.000002	0.021214	
 8373	    0	-0.821154	-2.519403	-2.305317	1.631367	0.112357	5.206945	-0.007568	-0.025208	-0.023254	0.999627	0.008156	0.000562	0.026031	
 8374	    0	0.932530	-0.744731	-2.533100	1.566571	0.201831	6.065789	0.009516	-0.006962	-0.025396	0.999509	0.007832	0.001009	0.030324	
 8375	    0	1.692753	0.090525	-3.026609	1.517985	0.216719	6.802220	0.016846	0.001709	-0.030273	0.999392	0.007588	0.001083	0.034004	
 8376	    0	1.815661	-2.202523	-3.246340	1.694899	0.292849	7.425771	0.018903	-0.021056	-0.032672	0.999273	0.008472	0.001464	0.037120	
 8377	    0	3.869658	-4.895127	-3.197413	2.256085	0.406000	7.958970	0.040527	-0.046997	-0.032593	0.999142	0.011277	0.002029	0.039783	
 8378	    0	7.521782	-5.018303	-3.194597	2.682038	0.472987	8.436104	0.077155	-0.046519	-0.032767	0.999018	0.013406	0.002364	0.042167	
 8379	    0	11.179445	-4.037961	-3.215718	2.442462	0.516693	8.874602	0.113342	-0.034973	-0.032898	0.998938	0.012208	0.002583	0.044357	
 8380	    0	13.307837	-3.061082	-2.745884	1.821049	0.564212	9.243390	0.134216	-0.024170	-0.028076	0.998886	0.009102	0.002820	0.046200	
 8381	    0	14.837745	-2.413903	-2.923956	1.168896	0.489044	9.578043	0.149228	-0.016831	-0.029716	0.998832	0.005842	0.002444	0.047872	
 8382	    0	16.749184	-1.809684	-2.429934	0.310071	0.494014	9.879138	0.168051	-0.009765	-0.024734	0.998775	0.001550	0.002469	0.049376	
 8383	    0	18.890296	-0.104188	-2.261806	-0.484482	0.337363	10.087299	0.188599	0.008423	-0.022949	0.998724	-0.002421	0.001686	0.050415	
 8384	    0	21.362365	2.637280	-0.867145	-1.180604	0.132047	10.284056	0.211888	0.037249	-0.009010	0.998660	-0.005900	0.000660	0.051397	
 8385	    0	22.106579	3.738135	1.078604	-1.269142	-0.219824	10.252363	0.218750	0.048706	0.010742	0.998665	-0.006343	-0.001099	0.051239	
 8386	    0	23.661445	6.028252	0.973638	-0.750659	-0.616327	9.882409	0.233221	0.071903	0.010203	0.998767	-0.003752	-0.003080	0.049392	
 8387	    0	26.332538	10.152225	-0.402954	-0.154937	-0.817998	9.615243	0.258057	0.114014	-0.003052	0.998836	-0.000774	-0.004088	0.048058	
 8388	    0	29.552007	16.165715	-1.217159	0.124022	-0.801944	9.213489	0.287705	0.175041	-0.010901	0.998930	0.000620	-0.004008	0.046051	
 8389	    0	34.922326	26.553751	-4.256142	0.193277	-0.821190	8.789629	0.337280	0.280579	-0.040894	0.999025	0.000966	-0.004105	0.043934	
 8390	    0	35.474398	33.900205	-6.092998	0.072500	-1.019584	8.298239	0.340583	0.353354	-0.059043	0.999125	0.000362	-0.005096	0.041479	
 8391	    0	30.697422	33.445044	-3.935584	0.973733	-1.124638	7.244998	0.294800	0.345459	-0.036011	0.999316	0.004868	-0.005622	0.036217	
 8392	    0	29.525985	40.151610	1.656646	2.221815	-1.109477	5.393630	0.284181	0.409051	0.022680	0.999558	0.011107	-0.005547	0.026964	
 8393	    0	24.698614	46.935543	1.206608	2.365493	-0.850746	3.605942	0.238403	0.473511	0.018677	0.999758	0.011827	-0.004253	0.018028	
 8394	    0	18.084399	46.726385	-2.602213	2.063823	-0.658440	1.902646	0.176460	0.469188	-0.020601	0.999896	0.010319	-0.003292	0.009513	
 8395	    0	10.196226	51.227459	-3.123720	1.627371	-0.536926	0.376134	0.101074	0.512695	-0.026794	0.999961	0.008137	-0.002685	0.001881	
 8396	    0	11.334556	46.883494	-3.476106	0.569157	-0.483516	-1.040657	0.115865	0.468332	-0.033150	0.999979	0.002846	-0.002418	-0.005203	
 8397	    0	16.001811	35.831497	-5.044922	-0.249299	-0.810269	-2.734468	0.165100	0.356018	-0.050232	0.999897	-0.001246	-0.004051	-0.013672	
 8398	    0	11.751801	42.458743	-6.158697	-0.171103	-0.441969	-4.389166	0.126932	0.421818	-0.061675	0.999756	-0.000855	-0.002210	-0.021944	
 8399	    0	32.084624	37.605143	-15.305166	-1.314634	0.103782	-7.023589	0.333679	0.363464	-0.155640	0.999361	-0.006572	0.000519	-0.035110	
 8400	    0	59.244778	21.719447	-6.951185	1.034278	-0.510175	-8.320775	0.600978	0.192656	-0.066947	0.999118	0.005170	-0.002550	-0.041592	
 8401	    0	43.648268	-9.054495	22.832778	3.955141	-2.490352	-7.936612	0.429443	-0.112244	0.231628	0.998940	0.019769	-0.012447	-0.039669	
 8402	    0	4.502980	-12.045765	5.824560	4.388705	-2.682983	-7.160408	0.039888	-0.123195	0.056120	0.999028	0.021936	-0.013411	-0.035790	
 8403	    0	4.599330	37.343480	12.037559	3.532592	-2.154927	-6.865241	0.057373	0.369385	0.127502	0.999196	0.017658	-0.010772	-0.034317	
 8404	    0	0.735498	27.440411	-3.160355	1.008017	-2.475593	-5.847412	0.015753	0.274179	-0.030061	0.999483	0.005039	-0.012376	-0.029232	
 8405	    0	-18.034564	15.005537	-9.296961	-0.253125	-1.759476	-3.943942	-0.176514	0.153442	-0.094727	0.999765	-0.001266	-0.008797	-0.019718	
 8406	    0	-1.197976	-1.176237	-12.545867	-1.555934	-0.383595	-3.788261	-0.011971	-0.012511	-0.125386	0.999788	-0.007779	-0.001918	-0.018940	
 8407	    0	19.283994	5.701252	-6.719966	-0.585774	0.212870	-3.273162	0.193665	0.053650	-0.067566	0.999861	-0.002929	0.001064	-0.016365	
 8408	    0	26.493642	18.245186	-5.154131	-0.984037	-0.409713	-2.752022	0.267517	0.178528	-0.051880	0.999890	-0.004920	-0.002048	-0.013760	
 8409	    0	17.154782	10.515893	-0.975873	-1.135860	-0.605029	-2.337716	0.172791	0.103088	-0.009827	0.999910	-0.005679	-0.003025	-0.011688	
 8410	    0	16.741525	3.534424	-1.976915	-0.843067	-0.018311	-2.162982	0.167786	0.033447	-0.019897	0.999932	-0.004215	-0.000092	-0.010815	
 8411	    0	24.086385	7.092631	-8.275396	-0.712978	0.292783	-1.816207	0.241371	0.068439	-0.083354	0.999949	-0.003565	0.001464	-0.009081	
 8412	    0	23.915402	4.380609	-8.064062	-0.792705	0.348477	-1.557752	0.239343	0.041621	-0.081225	0.999960	-0.003963	0.001742	-0.007789	
 8413	    0	29.856149	-3.604781	-4.661265	-0.752842	0.680552	-1.615930	0.298096	-0.038635	-0.047485	0.999954	-0.003764	0.003403	-0.008080	
 8414	    0	29.021893	1.412243	-3.875756	-1.268218	0.723852	-1.448466	0.290167	0.011770	-0.039887	0.999947	-0.006341	0.003619	-0.007242	
 8415	    0	29.368582	1.345688	-1.938225	-2.339068	0.798064	-1.645721	0.293701	0.010803	-0.020691	0.999889	-0.011695	0.003990	-0.008228	
 8416	    0	26.746234	-1.500466	-0.698403	-3.599601	0.688981	-1.677054	0.267298	-0.017380	-0.007607	0.999797	-0.017997	0.003445	-0.008385	
 8417	    0	24.193587	-9.418985	1.105306	-4.590285	0.497675	-1.331457	0.241333	-0.095520	0.012634	0.999711	-0.022949	0.002488	-0.006657	
 8418	    0	18.387157	-13.194539	5.049310	-5.116275	0.352327	-0.835513	0.183414	-0.131369	0.053535	0.999662	-0.025578	0.001761	-0.004177	
 8419	    0	13.582450	-9.697802	4.812922	-6.083672	0.225102	-0.541771	0.135620	-0.095825	0.050903	0.999533	-0.030414	0.001125	-0.002708	
 8420	    0	12.356413	-11.587506	1.731326	-5.602427	0.002289	-0.332495	0.123372	-0.115535	0.020552	0.999606	-0.028008	0.000011	-0.001662	
 8421	    0	15.179799	-16.556741	-0.096003	-3.721836	0.226034	-0.373862	0.151489	-0.165833	0.001953	0.999824	-0.018608	0.001130	-0.001869	
 8422	    0	16.090651	-8.550006	-1.338090	-1.962129	0.503741	-0.853746	0.160506	-0.086314	-0.012941	0.999939	-0.009810	0.002519	-0.004269	
 8423	    0	17.812305	4.722246	-2.727921	-1.764527	0.641646	-1.345855	0.178345	0.045776	-0.028259	0.999933	-0.008822	0.003208	-0.006729	
 8424	    0	14.831954	6.468471	-4.064890	-1.915603	0.862908	-1.483577	0.148613	0.063186	-0.041900	0.999917	-0.009578	0.004314	-0.007418	
 8425	    0	13.349699	5.653818	-4.819479	-2.336236	1.261392	-2.182877	0.133789	0.054504	-0.049683	0.999852	-0.011681	0.006307	-0.010914	
 8426	    0	12.611656	12.579093	-6.130256	-1.919310	1.176917	-3.451210	0.127887	0.122993	-0.063241	0.999787	-0.009596	0.005884	-0.017255	
 8427	    0	11.405631	14.255103	-8.728390	-2.455399	1.344632	-4.187454	0.116394	0.139038	-0.089783	0.999682	-0.012276	0.006722	-0.020935	
 8428	    0	13.637175	3.563653	-8.672107	-2.002335	1.647344	-4.026035	0.136318	0.032014	-0.088177	0.999713	-0.010011	0.008236	-0.020128	
 8429	    0	16.491821	-6.641607	-8.732483	-0.871164	1.881577	-4.149237	0.162659	-0.070190	-0.088562	0.999731	-0.004355	0.009407	-0.020744	
 8430	    0	18.750120	-10.412502	-7.000786	0.805375	2.116256	-4.745076	0.184208	-0.108233	-0.072399	0.999654	0.004026	0.010580	-0.023723	
 8431	    0	22.039021	-12.741177	-3.803041	2.046542	2.126092	-5.566564	0.216309	-0.133057	-0.041687	0.999503	0.010231	0.010629	-0.027828	
 8432	    0	24.363870	-14.220165	1.081272	3.363960	1.792535	-6.140710	0.239187	-0.149722	0.006179	0.999347	0.016816	0.008961	-0.030697	
 8433	    0	26.079166	-10.062564	1.304163	4.070027	1.281315	-6.746176	0.257263	-0.109558	0.009216	0.999203	0.020345	0.006405	-0.033722	
 8434	    0	27.294916	-7.029744	0.187260	3.459490	1.019360	-7.003688	0.270266	-0.079796	-0.000835	0.999224	0.017293	0.005095	-0.035009	
 8435	    0	26.560473	-7.341188	-2.867262	2.405522	0.629568	-6.947377	0.262756	-0.082214	-0.030457	0.999319	0.012025	0.003147	-0.034729	
 8436	    0	23.879877	-11.083116	-7.585789	1.467610	0.212139	-6.686755	0.234848	-0.118166	-0.076958	0.999413	0.007337	0.001060	-0.033427	
 8437	    0	19.270731	-11.717812	-9.377808	0.626673	-0.171691	-6.416670	0.188904	-0.122986	-0.093994	0.999479	0.003133	-0.000858	-0.032078	
 8438	    0	15.889440	-6.352440	-8.865616	-0.214990	-0.347761	-5.957344	0.157061	-0.068316	-0.088310	0.999554	-0.001075	-0.001739	-0.029782	
 8439	    0	16.885333	-0.639655	-8.152298	-1.307651	-0.262484	-5.315301	0.168701	-0.011414	-0.081238	0.999624	-0.006537	-0.001312	-0.026573	
 8440	    0	21.037580	-2.096816	-8.252343	-1.868607	-0.197428	-4.251100	0.209937	-0.026202	-0.082088	0.999729	-0.009342	-0.000987	-0.021254	
 8441	    0	20.572401	-11.469065	-8.180671	-1.654722	-0.382255	-3.338818	0.203918	-0.118774	-0.080444	0.999825	-0.008273	-0.001911	-0.016693	
 8442	    0	15.410237	-16.293351	-2.190077	-1.321281	-0.329796	-3.015083	0.151656	-0.165371	-0.020562	0.999863	-0.006606	-0.001649	-0.015075	
 8443	    0	9.986836	-11.700245	1.399961	-0.063135	-0.249488	-2.481906	0.098389	-0.118225	0.014160	0.999922	-0.000316	-0.001247	-0.012409	
 8444	    0	7.013375	-8.681727	0.733167	0.767528	-0.112726	-1.656174	0.069407	-0.087421	0.007036	0.999958	0.003838	-0.000564	-0.008281	
 8445	    0	4.226686	-8.235174	-0.700501	0.937849	-0.029755	-0.669102	0.041992	-0.082458	-0.007385	0.999983	0.004689	-0.000149	-0.003345	
 8446	    0	0.539729	-6.959947	-2.059757	0.861553	-0.007057	0.361444	0.005524	-0.069500	-0.020897	0.999989	0.004308	-0.000035	0.001807	
 8447	    0	-2.755140	-5.830102	-2.737302	0.721940	-0.030518	1.533527	-0.027100	-0.058411	-0.027588	0.999964	0.003610	-0.000153	0.007668	
 8448	    0	-4.586097	-4.104884	-3.245915	0.517100	-0.074771	2.799701	-0.045269	-0.041601	-0.032583	0.999898	0.002585	-0.000374	0.013998	
 8449	    0	-4.621723	-2.667118	-4.008025	0.070195	-0.044826	4.060643	-0.045654	-0.027588	-0.040100	0.999793	0.000351	-0.000224	0.020302	
 8450	    0	-3.464803	-2.295259	-4.274878	-0.440075	0.021555	5.201740	-0.034039	-0.023937	-0.042693	0.999659	-0.002200	0.000108	0.026006	
 8451	    0	-1.839405	-3.339908	-3.568272	-0.617890	-0.060282	6.201413	-0.017334	-0.034058	-0.035583	0.999514	-0.003089	-0.000301	0.031002	
 8452	    0	-1.221742	-4.686964	-2.589514	-0.435346	-0.182952	7.003505	-0.010542	-0.047315	-0.025803	0.999384	-0.002176	-0.000915	0.035010	
 8453	    0	-0.534555	-6.108087	-2.451630	0.048268	-0.268619	7.590020	-0.002991	-0.061218	-0.024536	0.999279	0.000241	-0.001343	0.037941	
 8454	    0	2.375928	-7.704971	-2.185065	0.677102	-0.236385	8.037841	0.026853	-0.075937	-0.022079	0.999186	0.003385	-0.001182	0.040178	
 8455	    0	6.260290	-6.856918	-2.079937	1.212865	-0.265583	8.393326	0.065430	-0.065735	-0.021118	0.999100	0.006063	-0.001328	0.041954	
 8456	    0	9.640618	-5.205126	-2.339416	1.395111	-0.389036	8.752068	0.098600	-0.047604	-0.023546	0.999016	0.006973	-0.001945	0.043746	
 8457	    0	11.852034	-4.147803	-2.687147	1.232769	-0.517454	9.060020	0.120300	-0.035889	-0.026794	0.998951	0.006162	-0.002586	0.045284	
 8458	    0	13.646617	-3.299394	-2.732043	0.919868	-0.601988	9.283776	0.137878	-0.026489	-0.027039	0.998907	0.004598	-0.003009	0.046402	
 8459	    0	15.744696	-3.690367	-1.869950	0.643592	-0.653705	9.487883	0.159019	-0.029324	-0.018284	0.998863	0.003217	-0.003267	0.047421	
 8460	    0	18.858529	-2.309624	-2.528617	0.429708	-0.830984	9.774128	0.189514	-0.013794	-0.024536	0.998795	0.002148	-0.004153	0.048851	
 8461	    0	21.139567	0.809573	0.011294	-0.121168	-0.885384	10.031552	0.210632	0.018677	0.001038	0.998732	-0.000606	-0.004425	0.050137	
 8462	    0	21.854111	2.690369	2.922070	-0.478374	-1.043951	9.998726	0.216675	0.037842	0.030273	0.998734	-0.002391	-0.005218	0.049973	
 8463	    0	22.045976	4.644517	3.306548	-0.084339	-1.343502	9.710385	0.217631	0.057075	0.034512	0.998797	-0.000422	-0.006715	0.048532	
 8464	    0	24.068444	8.437175	0.846395	0.420158	-1.414455	9.434660	0.236282	0.095570	0.010339	0.998859	0.002100	-0.007070	0.047155	
 8465	    0	27.196751	12.982817	-1.055720	0.582523	-1.247854	9.181459	0.265686	0.142151	-0.008484	0.998922	0.002912	-0.006237	0.045891	
 8466	    0	32.190493	20.500574	-3.161693	0.386366	-1.050725	8.851698	0.312574	0.219039	-0.029544	0.999004	0.001931	-0.005252	0.044244	
 8467	    0	35.163027	28.632131	-4.476817	0.055902	-1.105828	8.374224	0.339478	0.300720	-0.042786	0.999107	0.000279	-0.005527	0.041859	
 8468	    0	31.085820	29.446427	-3.385327	0.312120	-1.091085	7.660491	0.299457	0.306132	-0.031727	0.999250	0.001560	-0.005454	0.038293	
 8469	    0	31.555308	32.055067	0.620305	1.526140	-1.047504	6.134320	0.305481	0.329956	0.010315	0.999486	0.007629	-0.005237	0.030666	
 8470	    0	27.583571	40.207046	1.024782	2.370904	-0.982583	4.443847	0.266745	0.407895	0.016386	0.999670	0.011853	-0.004912	0.022217	
 8471	    0	20.475820	43.671893	-2.200010	2.443081	-0.890214	2.811604	0.198669	0.439758	-0.015747	0.999816	0.012215	-0.004451	0.014057	
 8472	    0	12.516777	48.093593	-2.900455	2.199431	-0.782800	1.391072	0.121916	0.482068	-0.023226	0.999907	0.010997	-0.003914	0.006955	
 8473	    0	10.026734	47.664689	-1.898674	1.392569	-0.692756	-0.032807	0.100403	0.476746	-0.015320	0.999969	0.006963	-0.003464	-0.000164	
 8474	    0	11.872251	38.313535	-0.532702	0.721751	-0.672159	-1.516172	0.121636	0.382236	-0.003541	0.999959	0.003609	-0.003361	-0.007581	
 8475	    0	18.016704	28.986073	-1.394439	0.697360	-1.000071	-3.183901	0.184814	0.286987	-0.012024	0.999854	0.003487	-0.005000	-0.015919	
 8476	    0	10.544132	32.617954	-4.949803	1.036930	-0.792957	-4.501183	0.112940	0.323943	-0.047377	0.999725	0.005184	-0.003964	-0.022504	
 8477	    0	24.855934	32.588928	-19.827244	0.297797	-0.698993	-6.911335	0.260315	0.317322	-0.196899	0.999395	0.001489	-0.003494	-0.034550	
 8478	    0	58.576665	25.957531	-12.149718	2.895740	-0.944640	-8.367823	0.596539	0.236460	-0.115160	0.999008	0.014474	-0.004722	-0.041825	
 8479	    0	53.975689	17.790490	29.918687	4.245985	-1.850702	-8.812538	0.543884	0.147522	0.307556	0.998761	0.021221	-0.009250	-0.044044	
 8480	    0	7.153501	-1.690046	4.980027	5.030215	-3.005651	-6.774115	0.070126	-0.020555	0.050375	0.998997	0.025143	-0.015023	-0.033859	
 8481	    0	6.006756	21.634633	12.442004	3.442606	-2.343467	-7.168343	0.066223	0.211853	0.128845	0.999141	0.017208	-0.011714	-0.035831	
 8482	    0	0.037914	22.126607	-3.024708	1.368379	-2.465677	-5.816900	0.007176	0.221323	-0.028672	0.999477	0.006841	-0.012326	-0.029079	
 8483	    0	-11.194372	21.872148	-8.219616	-0.473063	-1.550236	-4.243834	-0.106628	0.220825	-0.083557	0.999742	-0.002365	-0.007751	-0.021217	
 8484	    0	1.631479	-1.473951	-8.737485	-1.855987	-0.521698	-3.732193	0.016253	-0.015853	-0.087189	0.999779	-0.009279	-0.002608	-0.018660	
 8485	    0	19.368097	6.643910	-7.828335	-0.535415	-0.025941	-3.146496	0.194702	0.063171	-0.078430	0.999872	-0.002677	-0.000130	-0.015732	
 8486	    0	26.282444	19.419328	-2.620721	-0.842504	-0.591489	-2.637570	0.265431	0.190594	-0.026233	0.999899	-0.004212	-0.002957	-0.013187	
 8487	    0	16.700836	10.080442	-0.029447	-0.901628	-0.667590	-2.296510	0.168152	0.098877	-0.000183	0.999918	-0.004508	-0.003338	-0.011482	
 8488	    0	17.847158	4.906645	-4.671437	-1.090835	-0.109484	-1.929895	0.178958	0.047086	-0.046877	0.999938	-0.005454	-0.000547	-0.009649	
 8489	    0	23.978254	7.844197	-7.617908	-0.986304	0.084688	-1.576256	0.240356	0.076172	-0.076660	0.999956	-0.004931	0.000423	-0.007881	
 8490	    0	29.236718	0.486288	-6.788927	-1.182193	0.267796	-1.484131	0.292299	0.002291	-0.068299	0.999953	-0.005911	0.001339	-0.007421	
 8491	    0	30.689452	-2.164202	-4.567536	-1.492338	0.338942	-1.504545	0.306641	-0.024292	-0.046021	0.999942	-0.007462	0.001695	-0.007523	
 8492	    0	28.729179	-3.236177	-3.609179	-2.363857	0.531787	-1.494267	0.286941	-0.034936	-0.036452	0.999898	-0.011819	0.002659	-0.007471	
 8493	    0	27.979162	-0.589008	-2.238767	-3.437063	0.582922	-1.617531	0.279663	-0.008545	-0.023071	0.999815	-0.017184	0.002914	-0.008087	
 8494	    0	25.951936	-3.344593	-1.412679	-4.665841	0.449035	-1.420545	0.259240	-0.035614	-0.013895	0.999700	-0.023327	0.002245	-0.007102	
 8495	    0	21.504026	-12.776208	3.146835	-5.653392	0.326774	-0.871396	0.214539	-0.127747	0.034729	0.999589	-0.028263	0.001634	-0.004356	
 8496	    0	13.600305	-12.498463	5.683268	-6.953696	0.314586	-0.475598	0.135802	-0.123237	0.060925	0.999392	-0.034761	0.001573	-0.002378	
 8497	    0	11.641250	-12.209311	4.170721	-7.147214	0.130681	-0.179329	0.116333	-0.120605	0.045959	0.999360	-0.035728	0.000653	-0.000896	
 8498	    0	12.872982	-13.513226	-1.509351	-5.408376	0.029758	-0.266108	0.128548	-0.135646	-0.011449	0.999633	-0.027039	0.000149	-0.001330	
 8499	    0	17.883269	-11.879430	-0.480981	-2.807716	0.451867	-0.598929	0.178467	-0.119385	-0.003540	0.999894	-0.014038	0.002259	-0.002995	
 8500	    0	16.193438	5.929350	-1.391602	-2.114733	0.484861	-1.250300	0.162265	0.058125	-0.014928	0.999921	-0.010573	0.002424	-0.006251	
 8501	    0	14.532267	8.691703	-6.568387	-2.413253	0.576228	-1.163519	0.145630	0.085266	-0.067139	0.999906	-0.012066	0.002881	-0.005817	
 8502	    0	14.024470	2.043315	-7.155483	-3.164652	1.039370	-1.346661	0.139997	0.018347	-0.072584	0.999838	-0.015822	0.005197	-0.006733	
 8503	    0	14.602960	8.437546	-6.637131	-2.627721	1.150010	-2.487332	0.146667	0.081665	-0.068298	0.999820	-0.013138	0.005750	-0.012436	
 8504	    0	11.793330	15.256191	-8.463221	-2.496544	0.979886	-3.555401	0.120185	0.149362	-0.087095	0.999752	-0.012482	0.004899	-0.017776	
 8505	    0	10.002523	7.409150	-8.534705	-2.335569	1.319432	-3.810464	0.100830	0.071167	-0.086853	0.999728	-0.011677	0.006597	-0.019051	
 8506	    0	12.348432	-3.718925	-6.193390	-1.975427	1.593160	-3.884092	0.122227	-0.040187	-0.062524	0.999730	-0.009876	0.007965	-0.019419	
 8507	    0	14.379134	-4.992610	-5.073533	-0.761298	1.882358	-4.430828	0.142151	-0.053284	-0.051880	0.999702	-0.003806	0.009411	-0.022152	
 8508	    0	17.577307	-5.963230	-4.477784	0.393723	2.086313	-4.878620	0.173770	-0.063797	-0.046721	0.999645	0.001968	0.010430	-0.024390	
 8509	    0	21.236889	-10.712544	-2.839827	1.155439	2.104475	-5.209302	0.209167	-0.112427	-0.031250	0.999588	0.005776	0.010521	-0.026043	
 8510	    0	23.907001	-12.413398	-1.374224	1.817238	1.961457	-5.667469	0.235271	-0.130692	-0.017230	0.999509	0.009085	0.009806	-0.028333	
 8511	    0	25.569247	-10.796583	-2.040404	2.232978	1.639870	-6.180228	0.252014	-0.115540	-0.023743	0.999426	0.011163	0.008198	-0.030895	
 8512	    0	26.750967	-9.687284	-0.801153	2.286041	1.431184	-6.448342	0.264132	-0.105311	-0.011082	0.999389	0.011428	0.007154	-0.032235	
 8513	    0	25.663237	-7.006202	-0.108849	1.911558	1.115838	-6.678624	0.254089	-0.078552	-0.003235	0.999381	0.009556	0.005578	-0.033386	
 8514	    0	24.811123	-8.054962	-2.795651	1.315557	0.711576	-6.576831	0.245186	-0.088455	-0.029397	0.999431	0.006577	0.003557	-0.032878	
 8515	    0	20.573125	-9.144409	-3.778136	0.648798	0.473865	-6.281567	0.202637	-0.097717	-0.038574	0.999498	0.003243	0.002369	-0.031403	
 8516	    0	16.942589	-8.534191	-5.062303	0.080311	0.304458	-5.985202	0.166695	-0.090338	-0.050914	0.999551	0.000401	0.001522	-0.029922	
 8517	    0	14.772870	-7.478037	-6.452914	-0.237115	0.105300	-5.637345	0.145508	-0.078979	-0.064514	0.999601	-0.001185	0.000526	-0.028183	
 8518	    0	14.088930	-6.932335	-6.414420	-0.606415	0.111211	-5.172170	0.138995	-0.073129	-0.064004	0.999660	-0.003032	0.000556	-0.025858	
 8519	    0	16.771557	-6.007891	-5.413712	-0.517316	0.488513	-4.420077	0.166199	-0.063904	-0.054382	0.999749	-0.002586	0.002442	-0.022099	
 8520	    0	17.773363	-7.794287	-5.405844	0.409530	0.338764	-3.592689	0.176205	-0.081006	-0.054522	0.999835	0.002048	0.001694	-0.017962	
 8521	    0	13.619558	-11.989040	-4.433412	0.672176	0.177200	-3.000759	0.134338	-0.121765	-0.044861	0.999881	0.003361	0.000886	-0.015003	
 8522	    0	8.351692	-11.243771	-1.664633	1.137572	0.268180	-2.184161	0.082260	-0.113243	-0.017400	0.999923	0.005688	0.001341	-0.010921	
 8523	    0	5.042730	-7.871269	-0.555489	1.533534	0.262646	-1.248953	0.049927	-0.078979	-0.006226	0.999949	0.007668	0.001313	-0.006245	
 8524	    0	1.833165	-5.104923	-1.384545	1.454558	0.345424	-0.215342	0.018252	-0.050966	-0.014248	0.999971	0.007273	0.001727	-0.001077	
 8525	    0	-2.614449	-4.170042	-2.196123	1.246848	0.502020	0.954448	-0.026001	-0.041687	-0.022156	0.999966	0.006234	0.002510	0.004772	
 8526	    0	-4.782596	-4.557706	-2.522841	1.055554	0.719852	2.120835	-0.047431	-0.045948	-0.025299	0.999923	0.005278	0.003599	0.010604	
 8527	    0	-4.208151	-3.530757	-3.062370	0.992634	0.770798	3.217476	-0.041626	-0.035828	-0.030640	0.999850	0.004963	0.003854	0.016087	
 8528	    0	-3.280507	-2.609592	-4.228791	0.876117	0.771014	4.289026	-0.032401	-0.026608	-0.042278	0.999753	0.004380	0.003855	0.021443	
 8529	    0	-2.725462	-0.913198	-5.428314	0.553389	0.809577	5.306888	-0.027222	-0.009705	-0.054199	0.999636	0.002767	0.004047	0.026531	
 8530	    0	-1.143953	0.708968	-6.158682	-0.008012	0.839752	6.206192	-0.011910	0.006722	-0.061538	0.999509	-0.000040	0.004198	0.031026	
 8531	    0	-0.268113	0.405683	-5.969286	-0.571560	0.789233	6.968601	-0.003052	0.003784	-0.059692	0.999381	-0.002857	0.003945	0.034836	
 8532	    0	-0.911613	-2.489934	-5.348563	-0.676894	0.691202	7.620587	-0.008339	-0.025408	-0.053370	0.999262	-0.003384	0.003455	0.038094	
 8533	    0	1.006445	-5.671407	-4.700517	-0.371654	0.622921	8.106180	0.012207	-0.056335	-0.046936	0.999171	-0.001858	0.003114	0.040520	
 8534	    0	4.731891	-6.097301	-4.152847	-0.075363	0.533263	8.432608	0.049722	-0.058926	-0.041636	0.999107	-0.000377	0.002666	0.042150	
 8535	    0	8.372338	-4.657137	-3.661557	-0.221132	0.415171	8.718589	0.085571	-0.042908	-0.036743	0.999046	-0.001105	0.002075	0.043579	
 8536	    0	10.740445	-3.352465	-2.678798	-0.504472	0.199003	8.959535	0.108737	-0.028740	-0.026819	0.998993	-0.002522	0.000995	0.044783	
 8537	    0	12.361884	-2.847197	-2.181596	-0.747941	-0.089867	9.107325	0.124756	-0.022888	-0.021667	0.998956	-0.003738	-0.000449	0.045521	
 8538	    0	13.666700	-3.214899	-1.193399	-0.887805	-0.356992	9.193641	0.137974	-0.025877	-0.011564	0.998932	-0.004437	-0.001784	0.045952	
 8539	    0	15.904681	-3.940626	-2.865293	-0.602754	-0.742615	9.372362	0.160767	-0.031982	-0.027954	0.998890	-0.003013	-0.003712	0.046844	
 8540	    0	19.836315	-2.810494	-2.478611	-0.259119	-0.940880	9.612007	0.199522	-0.018563	-0.023821	0.998833	-0.001295	-0.004703	0.048041	
 8541	    0	23.002874	0.019697	-1.444670	0.121546	-1.147917	9.697762	0.229736	0.011353	-0.013123	0.998808	0.000607	-0.005737	0.048470	
 8542	    0	25.422054	1.950776	-0.211827	0.735186	-1.395385	9.516782	0.252915	0.031569	-0.000249	0.998837	0.003675	-0.006974	0.047565	
 8543	    0	28.122873	3.637670	-1.360690	1.611176	-1.612512	9.262544	0.279236	0.049438	-0.010986	0.998862	0.008053	-0.008060	0.046295	
 8544	    0	29.885736	8.016383	-2.726038	2.473049	-1.705051	9.036617	0.295033	0.093863	-0.023629	0.998866	0.012361	-0.008522	0.045166	
 8545	    0	32.928787	16.727960	-4.838577	3.001927	-1.699686	8.700685	0.321960	0.182068	-0.042969	0.998905	0.015004	-0.008495	0.043488	
 8546	    0	34.580767	27.974825	-6.236547	2.795582	-1.612631	8.359272	0.334163	0.294689	-0.055589	0.998996	0.013973	-0.008060	0.041782	
 8547	    0	32.577441	31.514086	-4.673560	2.668202	-1.419479	7.781190	0.313477	0.328064	-0.040161	0.999128	0.013337	-0.007095	0.038895	
 8548	    0	31.280818	33.808500	-3.478337	2.912012	-1.364242	6.480104	0.301834	0.348422	-0.027676	0.999346	0.014557	-0.006820	0.032393	
 8549	    0	25.747282	38.110135	-4.719502	2.861418	-1.158111	4.858306	0.248352	0.387817	-0.040222	0.999585	0.014305	-0.005790	0.024288	
 8550	    0	19.049858	41.426427	-10.120979	2.348686	-0.986360	3.255504	0.184190	0.418440	-0.095393	0.999786	0.011743	-0.004931	0.016276	
 8551	    0	13.265830	47.205488	-9.867474	1.274141	-0.965715	1.859330	0.128723	0.473877	-0.095032	0.999925	0.006371	-0.004828	0.009296	
 8552	    0	8.591372	51.900918	-4.539667	-0.480654	-0.856976	0.590709	0.084578	0.519150	-0.046280	0.999983	-0.002403	-0.004285	0.002954	
 8553	    0	7.969723	45.202594	-3.027742	-2.044723	-0.709359	-0.819415	0.081665	0.451355	-0.034607	0.999932	-0.010223	-0.003547	-0.004097	
 8554	    0	15.646254	31.255708	-3.817400	-2.687598	-0.900698	-2.192805	0.160055	0.310271	-0.041638	0.999839	-0.013437	-0.004503	-0.010963	
 8555	    0	10.168831	26.236751	-2.960357	-2.863563	-0.723902	-3.512118	0.106384	0.260071	-0.032959	0.999736	-0.014317	-0.003619	-0.017559	
 8556	    0	14.269892	41.578676	-17.874093	-2.420454	-1.055896	-5.806000	0.155602	0.409197	-0.182921	0.999491	-0.012100	-0.005279	-0.029025	
 8557	    0	54.293856	47.530168	-15.900404	0.714554	0.016027	-9.172241	0.563965	0.450317	-0.157410	0.998941	0.003572	0.000080	-0.045845	
 8558	    0	79.545563	-3.625259	37.355695	4.316567	-1.178217	-8.208975	0.790641	-0.076890	0.376858	0.998907	0.021575	-0.005889	-0.041030	
 8559	    0	9.802304	-15.094816	15.995068	6.827834	-3.706544	-7.098612	0.089539	-0.159607	0.156311	0.998615	0.034123	-0.018524	-0.035477	
 8560	    0	-1.631209	24.362863	18.726739	4.803278	-2.033389	-7.659410	-0.009028	0.239478	0.192937	0.998926	0.024008	-0.010163	-0.038283	
 8561	    0	5.689553	23.204871	-0.479309	2.670298	-2.579297	-6.206339	0.064087	0.230164	-0.000916	0.999346	0.013349	-0.012894	-0.031025	
 8562	    0	-13.064915	28.705153	-7.323228	0.195331	-1.711817	-4.454082	-0.123582	0.289928	-0.074028	0.999715	0.000977	-0.008558	-0.022268	
 8563	    0	-1.197661	3.924676	-14.416975	-2.309602	-0.746023	-3.634170	-0.010742	0.037781	-0.144653	0.999761	-0.011547	-0.003730	-0.018169	
 8564	    0	11.172387	2.129340	-16.327624	-0.866925	-0.364318	-2.963376	0.112313	0.018925	-0.163157	0.999879	-0.004334	-0.001822	-0.014816	
 8565	    0	21.038146	13.314223	-8.028096	-0.721572	-0.523393	-2.575763	0.212280	0.130127	-0.080200	0.999907	-0.003608	-0.002617	-0.012878	
 8566	    0	21.243504	9.903936	-0.491793	-0.626576	-0.474748	-2.022401	0.213433	0.096869	-0.004718	0.999941	-0.003133	-0.002374	-0.010112	
 8567	    0	20.199553	8.117184	-1.270341	-0.938240	-0.077058	-1.744108	0.202698	0.079346	-0.013000	0.999950	-0.004691	-0.000385	-0.008720	
 8568	    0	24.905285	8.230532	-5.752773	-0.945675	0.215342	-1.443881	0.249575	0.080231	-0.058179	0.999962	-0.004728	0.001077	-0.007219	
 8569	    0	28.976915	2.179867	-5.941473	-0.971997	0.376325	-1.364152	0.289795	0.019531	-0.060059	0.999963	-0.004860	0.001882	-0.006821	
 8570	    0	33.156852	-2.508876	-4.588417	-1.034561	0.571450	-1.474021	0.331238	-0.027771	-0.046692	0.999955	-0.005173	0.002857	-0.007370	
 8571	    0	30.053290	-2.618080	-3.888663	-2.157085	0.679418	-1.418347	0.300201	-0.028735	-0.039606	0.999910	-0.010785	0.003397	-0.007092	
 8572	    0	29.707223	-0.993403	-2.346011	-3.392420	0.589406	-1.528640	0.296912	-0.012609	-0.024137	0.999822	-0.016961	0.002947	-0.007643	
 8573	    0	26.132977	-4.495664	-0.121295	-4.935990	0.361863	-1.220835	0.261047	-0.046570	-0.000549	0.999675	-0.024677	0.001809	-0.006104	
 8574	    0	22.621771	-12.949374	4.385999	-6.128900	0.232352	-0.608922	0.225879	-0.128762	0.047551	0.999524	-0.030640	0.001162	-0.003044	
 8575	    0	14.271615	-13.716081	5.896239	-7.460228	0.085660	-0.242671	0.142578	-0.135010	0.063965	0.999303	-0.037292	0.000428	-0.001213	
 8576	    0	11.822325	-14.738130	4.091063	-7.201416	-0.144799	0.046549	0.118225	-0.145752	0.046265	0.999352	-0.035999	-0.000724	0.000233	
 8577	    0	15.081063	-13.457534	1.188890	-5.340067	0.024608	-0.149363	0.150712	-0.134307	0.015459	0.999642	-0.026697	0.000123	-0.000747	
 8578	    0	17.917803	-8.205311	0.279360	-3.278889	0.387973	-0.760496	0.178871	-0.082677	0.003798	0.999856	-0.016394	0.001940	-0.003802	
 8579	    0	15.548524	8.415107	-2.427566	-3.077654	0.570706	-1.278747	0.155945	0.082764	-0.026001	0.999857	-0.015388	0.002853	-0.006393	
 8580	    0	12.641346	8.076807	-6.588904	-3.548650	0.746391	-1.276476	0.126670	0.078769	-0.067771	0.999815	-0.017742	0.003732	-0.006382	
 8581	    0	11.859559	3.192528	-6.298148	-3.582081	1.152889	-1.991422	0.118530	0.029602	-0.064209	0.999773	-0.017909	0.005764	-0.009956	
 8582	    0	12.970511	10.656016	-7.791282	-2.609659	1.151180	-3.413291	0.131030	0.103296	-0.080027	0.999752	-0.013047	0.005755	-0.017065	
 8583	    0	10.777409	14.325946	-9.155634	-2.257592	1.436008	-4.345412	0.110168	0.139832	-0.093933	0.999674	-0.011287	0.007179	-0.021725	
 8584	    0	13.491542	1.433453	-7.262474	-1.842311	1.828768	-4.307247	0.134501	0.010757	-0.073966	0.999683	-0.009211	0.009143	-0.021534	
 8585	    0	16.522179	-5.281914	-7.083629	-0.847723	2.106909	-4.739925	0.163147	-0.057007	-0.072327	0.999654	-0.004238	0.010533	-0.023697	
 8586	    0	19.767185	-4.685600	-7.635802	0.744925	2.368309	-5.274757	0.195426	-0.051740	-0.078868	0.999575	0.003724	0.011840	-0.026370	
 8587	    0	23.306012	-9.583628	-6.707346	1.868939	2.264779	-5.579537	0.229492	-0.101624	-0.070618	0.999502	0.009343	0.011322	-0.027893	
 8588	    0	25.579617	-14.527963	-2.755955	2.103062	2.054415	-6.089608	0.250911	-0.152651	-0.031734	0.999428	0.010513	0.010270	-0.030442	
 8589	    0	26.212691	-11.444054	-2.101078	2.440433	1.635541	-6.763465	0.257874	-0.122925	-0.024597	0.999320	0.012199	0.008176	-0.033810	
 8590	    0	27.843308	-8.316683	-0.174059	2.580133	1.497637	-7.084302	0.275228	-0.092905	-0.004967	0.999261	0.012897	0.007486	-0.035413	
 8591	    0	28.926248	-7.052284	-0.457893	1.945196	1.216606	-7.200810	0.286438	-0.080811	-0.007080	0.999286	0.009724	0.006082	-0.035995	
 8592	    0	27.427957	-10.245459	-2.214192	1.378352	0.869173	-6.953191	0.270400	-0.111740	-0.024072	0.999362	0.006890	0.004345	-0.034759	
 8593	    0	22.858113	-11.754903	-3.741266	0.915894	0.586050	-6.700658	0.224365	-0.124939	-0.038635	0.999424	0.004579	0.002930	-0.033497	
 8594	    0	18.596322	-10.948763	-5.842358	0.548269	0.229304	-6.474682	0.182226	-0.115267	-0.058945	0.999471	0.002741	0.001146	-0.032368	
 8595	    0	15.993725	-10.232565	-7.383799	0.488547	0.001526	-6.068595	0.156738	-0.106934	-0.074097	0.999537	0.002442	0.000008	-0.030338	
 8596	    0	14.742119	-9.874087	-7.035167	0.364923	-0.020984	-5.569800	0.144606	-0.102666	-0.070521	0.999610	0.001824	-0.000105	-0.027845	
 8597	    0	16.813644	-6.993278	-5.962375	0.415843	0.193997	-4.845144	0.166321	-0.073853	-0.059937	0.999703	0.002079	0.000970	-0.024223	
 8598	    0	17.955764	-7.743343	-5.272113	0.970716	0.036051	-3.936083	0.177981	-0.080689	-0.053140	0.999794	0.004853	0.000180	-0.019679	
 8599	    0	14.027674	-10.722345	-3.175355	0.925680	-0.130469	-3.218229	0.138550	-0.109314	-0.032166	0.999859	0.004628	-0.000652	-0.016090	
 8600	    0	8.900298	-10.412245	-1.415173	1.187360	-0.186926	-2.407719	0.087755	-0.105098	-0.014691	0.999909	0.005937	-0.000935	-0.012038	
 8601	    0	4.682819	-8.756487	-0.968140	1.407075	-0.193027	-1.445795	0.046204	-0.087830	-0.010254	0.999949	0.007035	-0.000965	-0.007229	
 8602	    0	1.037201	-7.328937	-1.770484	1.419843	-0.146867	-0.405697	0.010237	-0.073182	-0.018217	0.999972	0.007099	-0.000734	-0.002028	
 8603	    0	-2.318210	-6.592760	-2.567571	1.169595	-0.008965	0.703436	-0.022949	-0.065857	-0.026062	0.999976	0.005848	-0.000045	0.003517	
 8604	    0	-5.237190	-6.491010	-2.573076	1.019687	0.139048	1.832424	-0.051793	-0.065254	-0.026027	0.999945	0.005098	0.000695	0.009162	
 8605	    0	-5.582717	-5.336917	-2.428410	0.921096	0.206002	2.966428	-0.055054	-0.054077	-0.024475	0.999878	0.004605	0.001030	0.014832	
 8606	    0	-3.923323	-3.346930	-2.781402	0.747163	0.221459	4.111018	-0.038567	-0.034163	-0.027898	0.999781	0.003736	0.001107	0.020554	
 8607	    0	-1.996970	-2.035130	-2.995925	0.359386	0.286326	5.250394	-0.019470	-0.020813	-0.029968	0.999652	0.001797	0.001431	0.026249	
 8608	    0	-0.449171	-0.705115	-3.161721	-0.194772	0.336893	6.276211	-0.004320	-0.007219	-0.031603	0.999505	-0.000974	0.001684	0.031376	
 8609	    0	0.443300	-0.223966	-3.332539	-0.692133	0.335192	7.091500	0.004456	-0.002197	-0.033325	0.999364	-0.003460	0.001676	0.035450	
 8610	    0	-0.399211	-1.195750	-3.854526	-0.852797	0.218255	7.684907	-0.003567	-0.012264	-0.038489	0.999251	-0.004263	0.001091	0.038415	
 8611	    0	1.334715	-5.502197	-3.942267	-0.460754	0.134315	8.203907	0.015564	-0.054504	-0.039307	0.999155	-0.002303	0.000671	0.041008	
 8612	    0	5.835699	-7.936002	-3.030720	0.205676	0.065824	8.652908	0.061705	-0.076707	-0.030407	0.999063	0.001028	0.000329	0.043251	
 8613	    0	9.909983	-6.541028	-2.150239	0.461164	-0.078610	9.047741	0.101929	-0.060791	-0.021606	0.998974	0.002305	-0.000393	0.045223	
 8614	    0	12.477920	-4.075825	-1.192283	-0.033391	-0.173441	9.330893	0.126509	-0.034883	-0.011807	0.998911	-0.000167	-0.000867	0.046638	
 8615	    0	13.755925	-3.020125	-0.353141	-0.439429	-0.346506	9.518987	0.138794	-0.023621	-0.003235	0.998863	-0.002196	-0.001732	0.047577	
 8616	    0	14.908380	-2.843524	-0.811243	-0.655620	-0.574145	9.630140	0.150245	-0.021243	-0.007605	0.998831	-0.003277	-0.002870	0.048132	
 8617	    0	16.269143	-4.490678	-1.224692	-0.524350	-0.814956	9.766493	0.164673	-0.036926	-0.011475	0.998796	-0.002621	-0.004073	0.048813	
 8618	    0	20.590935	-3.676876	-2.740255	-0.336981	-1.053687	10.052387	0.207551	-0.026406	-0.026261	0.998721	-0.001684	-0.005266	0.050241	
 8619	    0	24.419377	-0.774154	0.325515	-0.307599	-1.183647	10.182838	0.244141	0.004700	0.004700	0.998685	-0.001537	-0.005916	0.050892	
 8620	    0	26.943865	2.317062	2.855328	0.165819	-1.448670	9.956555	0.267626	0.036503	0.030523	0.998734	0.000829	-0.007240	0.049762	
 8621	    0	28.749895	6.187349	1.918729	1.111485	-1.762347	9.682607	0.283875	0.075562	0.022095	0.998774	0.005555	-0.008808	0.048393	
 8622	    0	30.475737	11.663463	0.323720	2.021094	-1.679157	9.578636	0.298663	0.130981	0.007038	0.998767	0.010101	-0.008392	0.047873	
 8623	    0	34.714861	19.668962	-0.648016	2.379204	-1.316586	9.304638	0.337524	0.212585	-0.001770	0.998825	0.011891	-0.006580	0.046505	
 8624	    0	39.039492	31.636846	-0.572604	1.968102	-1.053979	8.774703	0.376034	0.333102	-0.000495	0.998975	0.009837	-0.005268	0.043859	
 8625	    0	33.918544	35.496668	-0.820242	1.622670	-0.852450	8.135292	0.324402	0.368408	-0.003845	0.999130	0.008111	-0.004261	0.040665	
 8626	    0	31.019828	35.957770	-1.059982	2.052156	-0.653782	6.678235	0.297988	0.369741	-0.005853	0.999384	0.010259	-0.003268	0.033384	
 8627	    0	24.874796	41.474090	-3.237134	2.689129	-0.559305	4.772789	0.238831	0.420898	-0.026062	0.999620	0.013444	-0.002796	0.023861	
 8628	    0	19.503697	45.511550	-8.401314	2.385468	-0.402283	2.822085	0.188742	0.458764	-0.078172	0.999826	0.011927	-0.002011	0.014110	
 8629	    0	14.095943	49.017872	-6.916072	1.857988	-0.471507	1.218440	0.138123	0.491638	-0.064270	0.999935	0.009290	-0.002357	0.006092	
 8630	    0	8.100500	51.866472	-1.748142	1.066214	-0.447848	-0.262453	0.081720	0.518641	-0.014534	0.999982	0.005331	-0.002239	-0.001312	
 8631	    0	7.857759	45.694542	1.059458	0.064851	-0.299648	-1.734184	0.082520	0.456238	0.010864	0.999961	0.000324	-0.001498	-0.008671	
 8632	    0	16.280201	31.183241	-0.903166	-0.458354	-0.366226	-3.048447	0.167546	0.309281	-0.009439	0.999879	-0.002292	-0.001831	-0.015242	
 8633	    0	11.264898	24.702968	-5.125499	-0.678115	-0.460851	-4.250668	0.117981	0.244385	-0.051819	0.999765	-0.003390	-0.002304	-0.021252	
 8634	    0	8.988510	31.914415	-35.449184	0.390312	-1.893946	-6.171348	0.103033	0.316790	-0.352938	0.999476	0.001951	-0.009468	-0.030851	
 8635	    0	57.671152	44.042784	-22.249966	2.047639	0.453526	-8.624810	0.594543	0.417297	-0.219482	0.999015	0.010235	0.002267	-0.043110	
 8636	    0	69.502968	4.811003	35.867890	4.134454	-1.595356	-8.596146	0.693134	0.010784	0.364695	0.998831	0.020664	-0.007974	-0.042964	
 8637	    0	4.232037	-5.098885	8.768334	4.650978	-3.238150	-6.471722	0.039185	-0.054321	0.087097	0.999075	0.023248	-0.016186	-0.032349	
 8638	    0	4.088942	26.999641	16.432544	3.125593	-1.650080	-6.907861	0.048738	0.265787	0.168882	0.999247	0.015624	-0.008248	-0.034531	
 8639	    0	2.528383	16.982195	-1.106708	0.680643	-2.091337	-5.547393	0.030090	0.169067	-0.010193	0.999555	0.003403	-0.010455	-0.027733	
 8640	    0	-7.067995	16.893622	-8.172358	-0.287842	-1.139922	-4.206610	-0.066640	0.170248	-0.082355	0.999761	-0.001439	-0.005699	-0.021031	
 8641	    0	5.183244	-0.292187	-6.743495	-1.190069	-0.348685	-3.662338	0.051880	-0.004272	-0.067322	0.999813	-0.005950	-0.001743	-0.018311	
 8642	    0	21.262984	7.828145	-7.360665	0.158126	-0.081447	-3.257514	0.213898	0.074862	-0.073460	0.999866	0.000791	-0.000407	-0.016287	
 8643	    0	21.790047	18.095944	-4.592258	-0.450150	-0.555248	-2.787114	0.220520	0.177795	-0.045715	0.999896	-0.002251	-0.002776	-0.013935	
 8644	    0	12.077415	9.586941	-3.079732	-0.785848	-0.430118	-2.325690	0.121943	0.094335	-0.030909	0.999922	-0.003929	-0.002151	-0.011628	
 8645	    0	17.767409	6.408161	-2.483683	-0.725568	0.023079	-1.948582	0.178284	0.062256	-0.025085	0.999946	-0.003628	0.000115	-0.009743	
 8646	    0	23.796921	7.703657	-5.568392	-0.759516	0.178530	-1.618598	0.238531	0.074895	-0.056184	0.999959	-0.003798	0.000893	-0.008093	
 8647	    0	27.130678	3.297781	-6.752621	-1.019873	0.315861	-1.422901	0.271423	0.030701	-0.068115	0.999960	-0.005099	0.001579	-0.007114	
 8648	    0	28.698310	-5.404315	-4.089357	-1.028076	0.369840	-1.511977	0.286487	-0.056421	-0.041138	0.999954	-0.005140	0.001849	-0.007560	
 8649	    0	27.568479	-1.768972	-3.193168	-1.577029	0.545704	-1.506074	0.275452	-0.020020	-0.032532	0.999936	-0.007885	0.002728	-0.007530	
 8650	    0	27.950186	3.164167	-1.948162	-2.803166	0.611142	-1.619221	0.279682	0.029093	-0.020756	0.999864	-0.014015	0.003056	-0.008096	
 8651	    0	24.927021	-2.194566	-0.391520	-4.193276	0.433386	-1.522955	0.249084	-0.023926	-0.003967	0.999748	-0.020965	0.002167	-0.007614	
 8652	    0	21.284042	-10.402832	2.344230	-5.055805	0.306164	-1.146064	0.212280	-0.104614	0.025757	0.999662	-0.025276	0.001531	-0.005730	
 8653	    0	14.610380	-11.618516	4.913203	-5.714633	0.204496	-0.661751	0.145774	-0.115204	0.052284	0.999584	-0.028569	0.001022	-0.003308	
 8654	    0	11.067362	-6.752658	2.798508	-6.415326	-0.016597	-0.367419	0.110548	-0.066786	0.030145	0.999483	-0.032071	-0.000083	-0.001837	
 8655	    0	11.214831	-11.150117	-0.367005	-5.659289	-0.149556	-0.268591	0.112000	-0.111694	-0.000427	0.999598	-0.028293	-0.000748	-0.001343	
 8656	    0	16.338899	-13.014785	-0.047796	-3.812452	0.215162	-0.373100	0.163147	-0.130432	0.001831	0.999816	-0.019061	0.001076	-0.001865	
 8657	    0	16.799178	-3.341342	-1.019183	-2.892415	0.514813	-0.807221	0.167829	-0.034238	-0.010133	0.999883	-0.014462	0.002574	-0.004036	
 8658	    0	17.806523	3.962510	-3.503564	-2.599043	0.606558	-1.083602	0.178166	0.038196	-0.036078	0.999896	-0.012995	0.003033	-0.005418	
 8659	    0	17.238679	4.816504	-5.745565	-2.698430	0.797302	-1.149794	0.172424	0.046387	-0.058777	0.999884	-0.013492	0.003986	-0.005749	
 8660	    0	14.696641	5.163140	-6.559866	-2.875115	1.187585	-2.098016	0.147095	0.049130	-0.067190	0.999824	-0.014375	0.005938	-0.010489	
 8661	    0	10.564594	14.330881	-8.000077	-2.337059	1.162235	-3.352608	0.107544	0.140564	-0.082275	0.999774	-0.011684	0.005811	-0.016762	
 8662	    0	8.625908	12.997323	-10.460459	-2.436487	1.398791	-3.846914	0.087979	0.127000	-0.106775	0.999716	-0.012181	0.006993	-0.019233	
 8663	    0	12.584879	-1.847216	-8.384842	-1.910381	1.800698	-3.818854	0.124695	-0.021667	-0.084778	0.999731	-0.009551	0.009003	-0.019093	
 8664	    0	15.251112	-5.037298	-7.185721	-0.339924	2.117946	-4.466514	0.150562	-0.053874	-0.073369	0.999693	-0.001699	0.010589	-0.022330	
 8665	    0	20.037308	-6.915377	-6.835918	1.202559	2.390047	-5.095613	0.197693	-0.073792	-0.071167	0.999585	0.006012	0.011949	-0.025475	
 8666	    0	24.463194	-11.300852	-4.410077	2.294939	2.317831	-5.575005	0.240823	-0.119220	-0.048251	0.999478	0.011473	0.011587	-0.027870	
 8667	    0	26.572336	-13.062950	-1.662880	2.909124	1.958875	-6.151340	0.261353	-0.138428	-0.021179	0.999372	0.014543	0.009792	-0.030750	
 8668	    0	27.360814	-10.633453	-1.818241	3.091594	1.430852	-6.743700	0.269676	-0.115154	-0.021856	0.999286	0.015454	0.007153	-0.033710	
 8669	    0	28.170250	-8.074872	-0.246020	2.874697	1.315821	-6.986422	0.278625	-0.090454	-0.005554	0.999265	0.014370	0.006577	-0.034924	
 8670	    0	27.865154	-8.014441	-0.990940	1.969973	0.897801	-7.035127	0.275556	-0.089764	-0.012004	0.999322	0.009848	0.004488	-0.035168	
 8671	    0	25.113864	-11.017818	-3.482536	1.278177	0.555721	-6.758696	0.247131	-0.118347	-0.036255	0.999404	0.006390	0.002778	-0.033787	
 8672	    0	20.344917	-12.007048	-4.764330	0.439148	0.268029	-6.454451	0.199372	-0.126444	-0.048185	0.999475	0.002195	0.001340	-0.032267	
 8673	    0	16.706047	-9.785183	-7.711350	0.026898	-0.122089	-6.136522	0.164001	-0.102905	-0.077026	0.999529	0.000134	-0.000610	-0.030678	
 8674	    0	16.286724	-9.614357	-7.996565	-0.204877	-0.212507	-5.681423	0.160132	-0.100801	-0.079693	0.999595	-0.001024	-0.001062	-0.028403	
 8675	    0	18.273733	-6.458342	-6.914344	-0.373690	-0.051886	-5.091648	0.181030	-0.069336	-0.068970	0.999674	-0.001868	-0.000259	-0.025455	
 8676	    0	18.472566	-5.164908	-7.601955	0.267240	-0.294517	-4.231771	0.183691	-0.055442	-0.075821	0.999774	0.001336	-0.001472	-0.021157	
 8677	    0	13.586417	-9.490893	-5.327596	0.236713	-0.338761	-3.353278	0.134338	-0.097107	-0.053162	0.999857	0.001184	-0.001694	-0.016766	
 8678	    0	9.887666	-11.936150	-1.799206	0.624675	-0.295457	-2.574234	0.097357	-0.120564	-0.018223	0.999910	0.003123	-0.001477	-0.012871	
 8679	    0	7.508589	-10.537562	-0.230607	1.037807	-0.291448	-1.761659	0.074158	-0.106018	-0.002747	0.999947	0.005189	-0.001457	-0.008808	
 8680	    0	4.109675	-8.678401	-0.350979	1.359573	-0.352291	-0.764473	0.040771	-0.086914	-0.004028	0.999968	0.006798	-0.001761	-0.003822	
 8681	    0	-0.372109	-7.096478	-1.537650	1.371205	-0.360873	0.258639	-0.003601	-0.070862	-0.015869	0.999973	0.006856	-0.001804	0.001293	
 8682	    0	-4.187172	-6.726180	-2.484474	1.300259	-0.226406	1.370260	-0.041382	-0.067383	-0.025330	0.999954	0.006501	-0.001132	0.006851	
 8683	    0	-4.214156	-5.722750	-2.502584	1.267476	-0.085071	2.539911	-0.041401	-0.057596	-0.025408	0.999897	0.006337	-0.000425	0.012699	
 8684	    0	-2.120649	-3.278386	-2.473547	1.174236	-0.047496	3.656040	-0.020598	-0.033018	-0.024934	0.999815	0.005871	-0.000237	0.018279	
 8685	    0	-0.604633	-1.800526	-2.939576	0.925726	-0.030521	4.738314	-0.005615	-0.018005	-0.029480	0.999708	0.004628	-0.000153	0.023689	
 8686	    0	-0.040576	-0.694444	-3.043744	0.526311	-0.000191	5.764431	-0.000207	-0.006872	-0.030456	0.999580	0.002631	-0.000001	0.028818	
 8687	    0	0.887173	-0.902821	-3.332277	-0.000572	0.054179	6.627342	0.009155	-0.008728	-0.033325	0.999451	-0.000003	0.000271	0.033131	
 8688	    0	1.308713	-1.970583	-3.346816	-0.298947	0.021367	7.239399	0.013786	-0.019265	-0.033441	0.999343	-0.001494	0.000107	0.036189	
 8689	    0	2.065454	-4.374076	-3.255340	-0.081464	-0.037393	7.770968	0.022339	-0.042908	-0.032532	0.999245	-0.000407	-0.000187	0.038845	
 8690	    0	4.956101	-6.417995	-2.346235	0.410387	-0.089480	8.238649	0.052156	-0.062018	-0.023568	0.999149	0.002051	-0.000447	0.041182	
 8691	    0	8.356506	-5.887661	-1.239516	0.596994	-0.120582	8.599465	0.085999	-0.055176	-0.012512	0.999071	0.002984	-0.000603	0.042984	
 8692	    0	11.133286	-3.886284	-0.795792	0.304895	-0.199002	8.882204	0.112919	-0.033858	-0.007900	0.999012	0.001524	-0.000995	0.044396	
 8693	    0	12.419125	-2.532683	-0.712697	-0.131080	-0.345731	9.093562	0.125183	-0.019653	-0.006897	0.998964	-0.000655	-0.001728	0.045452	
 8694	    0	13.572066	-3.691798	-0.354301	-0.488075	-0.478917	9.262362	0.137243	-0.030592	-0.003136	0.998921	-0.002439	-0.002394	0.046295	
 8695	    0	15.293760	-5.155772	-0.546612	-0.348602	-0.728877	9.394502	0.155151	-0.044312	-0.004822	0.998888	-0.001742	-0.003643	0.046955	
 8696	    0	18.706200	-2.532862	-0.857981	-0.216949	-0.928093	9.577824	0.188025	-0.016346	-0.007688	0.998841	-0.001084	-0.004639	0.047871	
 8697	    0	20.666301	1.059889	2.410590	-0.237941	-1.089148	9.706925	0.205688	0.020630	0.025208	0.998806	-0.001189	-0.005444	0.048515	
 8698	    0	21.472089	3.063973	4.844138	0.075942	-1.294067	9.571744	0.212609	0.040833	0.049836	0.998834	0.000380	-0.006468	0.047840	
 8699	    0	22.410964	5.481678	4.028474	0.960336	-1.546307	9.410645	0.220886	0.065063	0.042297	0.998852	0.004800	-0.007729	0.047035	
 8700	    0	25.322156	8.753862	1.521475	1.815152	-1.487154	9.269430	0.248683	0.098983	0.017940	0.998857	0.009072	-0.007433	0.046329	
 8701	    0	30.146039	16.866112	-0.241279	2.267713	-1.176120	9.012083	0.293457	0.182007	0.001343	0.998903	0.011334	-0.005878	0.045044	
 8702	    0	35.797403	28.134231	-1.421918	2.206594	-0.960293	8.674117	0.345380	0.296628	-0.009323	0.998987	0.011029	-0.004800	0.043356	
 8703	    0	33.148527	33.202878	-1.294899	2.059210	-0.857797	8.119311	0.317688	0.345215	-0.008057	0.999113	0.010293	-0.004288	0.040585	
 8704	    0	30.882581	33.512880	-1.242582	2.590571	-0.758151	6.829652	0.297176	0.345524	-0.006853	0.999326	0.012950	-0.003790	0.034141	
 8705	    0	27.075395	39.364868	-2.600006	3.048395	-0.623986	5.090324	0.260681	0.400696	-0.019104	0.999555	0.015240	-0.003119	0.025448	
 8706	    0	20.604146	44.999405	-6.649259	2.558126	-0.470958	3.187023	0.198975	0.454000	-0.060228	0.999788	0.012790	-0.002355	0.015934	
 8707	    0	14.401014	49.593444	-7.735252	1.860285	-0.481427	1.580851	0.140259	0.497742	-0.072388	0.999922	0.009301	-0.002407	0.007904	
 8708	    0	9.772350	52.975846	-3.709746	0.848201	-0.473024	0.098420	0.097547	0.529957	-0.034619	0.999988	0.004241	-0.002365	0.000492	
 8709	    0	12.650531	45.570106	-0.832391	-0.294307	-0.412754	-1.422896	0.129761	0.454773	-0.008728	0.999971	-0.001472	-0.002064	-0.007114	
 8710	    0	15.565306	33.764143	-4.724023	-0.917281	-0.636508	-2.912449	0.160698	0.335106	-0.048275	0.999878	-0.004586	-0.003182	-0.014562	
 8711	    0	9.930381	47.358264	-21.714007	-0.596679	-0.870412	-4.828372	0.111633	0.470337	-0.218079	0.999694	-0.002983	-0.004352	-0.024139	
 8712	    0	38.906583	60.389428	-48.476834	0.412483	-1.262825	-8.055063	0.416024	0.588492	-0.480973	0.999166	0.002062	-0.006312	-0.040264	
 8713	    0	91.537128	5.066395	30.334066	2.096632	0.056671	-9.564978	0.916382	0.003662	0.303284	0.998801	0.010479	0.000283	-0.047806	
 8714	    0	18.208100	-23.654370	14.041598	4.988624	-3.907899	-7.028341	0.170832	-0.246140	0.137767	0.998880	0.024934	-0.019532	-0.035129	
 8715	    0	-3.099132	19.107688	21.783548	3.451306	-1.588948	-7.892080	-0.025269	0.188354	0.220886	0.999041	0.017251	-0.007942	-0.039448	
 8716	    0	11.105216	27.212617	6.742785	2.199838	-2.251920	-6.471123	0.118969	0.267589	0.071698	0.999352	0.010997	-0.011257	-0.032349	
 8717	    0	-15.692152	27.933919	-4.601492	0.409743	-2.128642	-4.629258	-0.149902	0.282959	-0.047058	0.999673	0.002048	-0.010642	-0.023144	
 8718	    0	-8.927018	3.535043	-10.917528	-1.593139	-0.707299	-3.908837	-0.088181	0.036208	-0.109775	0.999770	-0.007965	-0.003536	-0.019543	
 8719	    0	13.494483	-1.194853	-10.688898	-0.067142	-0.108152	-3.499019	0.134766	-0.014343	-0.106812	0.999846	-0.000336	-0.000541	-0.017494	
 8720	    0	28.692280	19.226524	-7.598231	-0.429933	-0.353064	-3.020596	0.289915	0.187738	-0.075879	0.999882	-0.002150	-0.001765	-0.015102	
 8721	    0	18.918644	12.601645	-3.515361	-0.871110	-0.823997	-2.256073	0.190735	0.123718	-0.034912	0.999918	-0.004355	-0.004120	-0.011280	
 8722	    0	15.198701	5.507710	0.108816	-0.840776	-0.209431	-2.008287	0.152529	0.053552	0.001020	0.999940	-0.004204	-0.001047	-0.010041	
 8723	    0	23.534389	8.985005	-3.872830	-0.793469	0.141337	-1.737240	0.236084	0.087646	-0.039246	0.999953	-0.003967	0.000707	-0.008686	
 8724	    0	24.951482	8.139943	-7.237197	-0.981152	0.247386	-1.412219	0.249990	0.079278	-0.073073	0.999962	-0.004906	0.001237	-0.007061	
 8725	    0	29.629172	-4.947532	-5.149111	-0.683603	0.463301	-1.546498	0.295776	-0.051941	-0.052002	0.999961	-0.003418	0.002316	-0.007732	
 8726	    0	27.974527	-2.045391	-4.736515	-1.028077	0.675212	-1.470588	0.279422	-0.022756	-0.048196	0.999953	-0.005140	0.003376	-0.007353	
 8727	    0	28.479387	0.705862	-4.061424	-2.068962	0.800347	-1.484724	0.284668	0.004517	-0.041809	0.999910	-0.010345	0.004002	-0.007423	
 8728	    0	27.437738	0.469951	-2.912473	-3.446215	0.671809	-1.482863	0.274300	0.002152	-0.030098	0.999818	-0.017230	0.003359	-0.007414	
 8729	    0	23.661860	-7.518222	0.208625	-4.779536	0.461816	-1.103322	0.236206	-0.076416	0.003357	0.999696	-0.023895	0.002309	-0.005516	
 8730	    0	18.055932	-12.042806	4.036714	-5.531070	0.258861	-0.513143	0.180306	-0.119718	0.043451	0.999613	-0.027652	0.001294	-0.002565	
 8731	    0	12.735124	-8.131377	3.947916	-6.737077	0.024419	-0.243424	0.127258	-0.080078	0.042175	0.999432	-0.033679	0.000122	-0.001217	
 8732	    0	11.984222	-10.188759	2.246782	-6.440323	-0.219192	-0.021175	0.119804	-0.101104	0.025864	0.999479	-0.032196	-0.001096	-0.000106	
 8733	    0	15.404896	-13.450037	2.211148	-4.893982	0.004769	-0.086221	0.153992	-0.133972	0.025391	0.999700	-0.024467	0.000024	-0.000431	
 8734	    0	15.939587	-6.416346	-0.113602	-3.681205	0.269905	-0.497275	0.159235	-0.064569	-0.000165	0.999826	-0.018405	0.001349	-0.002486	
 8735	    0	15.647096	4.423371	-1.150479	-3.483770	0.470950	-0.797315	0.156616	0.043396	-0.012634	0.999837	-0.017418	0.002355	-0.003986	
 8736	    0	11.698996	5.909291	-4.774518	-3.743597	0.696417	-0.741051	0.117036	0.057747	-0.049242	0.999811	-0.018717	0.003482	-0.003705	
 8737	    0	14.998690	5.740398	-3.696088	-3.906563	1.338494	-1.482510	0.150146	0.055542	-0.039062	0.999759	-0.019531	0.006692	-0.007412	
 8738	    0	17.099427	17.909026	-5.870624	-3.297898	1.238166	-2.855736	0.173139	0.175616	-0.062689	0.999743	-0.016488	0.006190	-0.014277	
 8739	    0	10.280532	13.798334	-10.767808	-2.930723	1.317910	-3.458726	0.104431	0.134583	-0.110352	0.999721	-0.014652	0.006589	-0.017292	
 8740	    0	10.335416	-0.394188	-7.662526	-2.648013	1.829498	-3.260516	0.102554	-0.006640	-0.077490	0.999737	-0.013239	0.009147	-0.016301	
 8741	    0	14.194761	-5.643369	-6.818666	-1.598493	2.210613	-3.587645	0.140137	-0.059509	-0.069275	0.999745	-0.007992	0.011052	-0.017937	
 8742	    0	16.117077	-5.472046	-4.923594	-0.074967	2.569654	-4.253253	0.159308	-0.058141	-0.051270	0.999691	-0.000375	0.012847	-0.021264	
 8743	    0	18.033077	-7.289499	-5.593669	1.285717	2.636484	-4.699545	0.177795	-0.076721	-0.058777	0.999616	0.006428	0.013181	-0.023495	
 8744	    0	19.865955	-11.222062	-5.655700	2.375790	2.545761	-5.101061	0.194971	-0.116523	-0.060422	0.999523	0.011877	0.012727	-0.025501	
 8745	    0	21.915061	-11.625663	-3.305693	2.703816	2.298425	-5.872734	0.215210	-0.122131	-0.037170	0.999411	0.013516	0.011490	-0.029358	
 8746	    0	23.769419	-6.995400	-3.420215	3.024607	1.904735	-6.517576	0.234912	-0.077089	-0.037579	0.999309	0.015120	0.009521	-0.032580	
 8747	    0	27.038662	-3.813637	-1.541657	2.986104	1.796585	-6.773488	0.268738	-0.046997	-0.018494	0.999274	0.014927	0.008981	-0.033859	
 8748	    0	28.179820	-4.228624	-3.172374	2.212256	1.357001	-6.851203	0.279912	-0.051529	-0.034163	0.999329	0.011059	0.006783	-0.034248	
 8749	    0	26.482054	-8.829410	-5.067557	1.475241	0.901208	-6.631241	0.261475	-0.096619	-0.052551	0.999413	0.007375	0.004505	-0.033150	
 8750	    0	22.722326	-12.290232	-6.878558	0.810764	0.562766	-6.382526	0.222959	-0.129782	-0.069934	0.999478	0.004053	0.002813	-0.031907	
 8751	    0	18.929282	-13.374663	-8.211387	0.558750	0.219761	-6.119739	0.184998	-0.139221	-0.082703	0.999527	0.002793	0.001099	-0.030594	
 8752	    0	17.076897	-12.622977	-8.967982	0.496171	-0.060662	-5.764812	0.167068	-0.130858	-0.089950	0.999581	0.002481	-0.000303	-0.028820	
 8753	    0	17.708991	-11.441115	-7.624821	0.107587	0.049788	-5.312209	0.173950	-0.119019	-0.076355	0.999646	0.000538	0.000249	-0.026558	
 8754	    0	20.246077	-6.610408	-6.694105	0.335532	0.084885	-4.601696	0.200842	-0.070625	-0.067142	0.999733	0.001678	0.000424	-0.023006	
 8755	    0	18.353422	-8.434528	-7.240870	0.682302	-0.346396	-3.821043	0.182007	-0.087585	-0.072388	0.999809	0.003411	-0.001732	-0.019104	
 8756	    0	12.752339	-10.369324	-4.753906	0.696211	-0.370995	-3.038531	0.126019	-0.105450	-0.047669	0.999876	0.003481	-0.001855	-0.015192	
 8757	    0	8.568922	-9.995286	-2.870014	1.088169	-0.312813	-2.147727	0.084656	-0.100708	-0.029114	0.999926	0.005441	-0.001564	-0.010738	
 8758	    0	5.646113	-9.263442	-2.103915	1.418134	-0.277905	-1.165979	0.055950	-0.092810	-0.021619	0.999956	0.007091	-0.001390	-0.005830	
 8759	    0	2.819880	-8.538583	-3.120864	1.595514	-0.199892	-0.075532	0.028198	-0.085144	-0.031860	0.999968	0.007977	-0.000999	-0.000378	
 8760	    0	-0.566063	-7.357020	-3.745456	1.506445	-0.082208	1.016822	-0.005272	-0.073313	-0.038010	0.999958	0.007532	-0.000411	0.005084	
 8761	    0	-3.156647	-6.315347	-3.938521	1.317823	0.043489	2.187407	-0.030884	-0.063232	-0.039795	0.999918	0.006589	0.000217	0.010937	
 8762	    0	-2.749679	-4.881047	-3.750826	1.087246	0.137718	3.390492	-0.026692	-0.049063	-0.037756	0.999841	0.005436	0.000689	0.016952	
 8763	    0	-1.442793	-3.456445	-3.746927	0.827865	0.217648	4.596366	-0.013672	-0.034729	-0.037598	0.999726	0.004139	0.001088	0.022980	
 8764	    0	-0.559634	-1.058219	-3.927482	0.443327	0.257717	5.658339	-0.005346	-0.010649	-0.039291	0.999596	0.002216	0.001288	0.028288	
 8765	    0	0.198987	0.680726	-4.534227	-0.134301	0.251243	6.559406	0.001709	0.006836	-0.045349	0.999461	-0.000671	0.001256	0.032791	
 8766	    0	0.567338	-0.540924	-4.797519	-0.556500	0.198219	7.365758	0.005823	-0.005330	-0.047966	0.999317	-0.002782	0.000991	0.036820	
 8767	    0	0.333263	-3.625339	-4.251279	-0.528859	0.113136	8.018362	0.004761	-0.036194	-0.042419	0.999192	-0.002644	0.000566	0.040081	
 8768	    0	2.906239	-6.436991	-3.173468	-0.070975	0.064297	8.530533	0.031761	-0.063065	-0.031722	0.999090	-0.000355	0.000321	0.042640	
 8769	    0	6.691043	-6.046868	-1.950437	0.341147	-0.034153	8.919434	0.069519	-0.057373	-0.019592	0.999003	0.001705	-0.000171	0.044582	
 8770	    0	9.922341	-4.411007	-1.599027	0.272276	-0.152833	9.261393	0.101134	-0.039433	-0.015969	0.998926	0.001361	-0.000764	0.046290	
 8771	    0	12.288969	-3.511970	-1.263269	-0.142724	-0.257017	9.510576	0.124390	-0.029236	-0.012451	0.998868	-0.000713	-0.001285	0.047535	
 8772	    0	13.822686	-3.633171	-1.617009	-0.448975	-0.462141	9.678056	0.139806	-0.029626	-0.015777	0.998824	-0.002244	-0.002310	0.048371	
 8773	    0	15.201139	-5.349177	-0.846214	-0.449363	-0.624337	9.827587	0.154419	-0.045959	-0.007874	0.998785	-0.002246	-0.003120	0.049118	
 8774	    0	18.440321	-3.544078	-2.484762	-0.135097	-0.946827	10.032321	0.185986	-0.026152	-0.023950	0.998731	-0.000675	-0.004732	0.050140	
 8775	    0	21.916775	-0.054719	0.007282	-0.157807	-1.109037	10.198106	0.218811	0.010620	0.001282	0.998684	-0.000789	-0.005543	0.050968	
 8776	    0	24.513284	1.711104	2.865999	0.058008	-1.365297	10.086599	0.243652	0.029419	0.030334	0.998705	0.000290	-0.006824	0.050411	
 8777	    0	27.087146	3.760873	2.219249	0.979456	-1.753213	9.870505	0.268372	0.050781	0.024780	0.998732	0.004895	-0.008762	0.049332	
 8778	    0	30.790137	8.034057	0.351885	1.959294	-1.835646	9.710986	0.303467	0.095093	0.007202	0.998731	0.009792	-0.009174	0.048534	
 8779	    0	36.028847	15.685475	-1.369575	2.606133	-1.547689	9.481720	0.352394	0.173826	-0.008756	0.998759	0.013025	-0.007735	0.047389	
 8780	    0	41.837860	27.658655	-1.882500	2.658695	-1.269816	9.010637	0.405446	0.295245	-0.012380	0.998877	0.013288	-0.006347	0.045036	
 8781	    0	36.576199	34.125101	-2.752561	2.570620	-1.232554	8.437084	0.351074	0.356567	-0.020813	0.999008	0.012849	-0.006161	0.042171	
 8782	    0	33.499223	35.300616	-4.504419	2.988435	-1.123716	7.155532	0.322293	0.365292	-0.037811	0.999232	0.014938	-0.005617	0.035769	
 8783	    0	28.638293	41.697949	-4.532519	3.283484	-1.049029	5.360557	0.275269	0.425110	-0.036926	0.999492	0.016415	-0.005244	0.026798	
 8784	    0	21.573883	45.284656	-8.010566	2.872339	-0.856666	3.489802	0.208103	0.457602	-0.072654	0.999735	0.014360	-0.004283	0.017447	
 8785	    0	15.920093	49.550488	-7.665233	2.291195	-0.826104	1.799080	0.155029	0.497742	-0.070312	0.999885	0.011456	-0.004130	0.008995	
 8786	    0	11.336840	54.896453	-2.423171	1.094254	-0.710111	0.297358	0.112630	0.549253	-0.020826	0.999977	0.005471	-0.003551	0.001487	
 8787	    0	9.882622	49.857351	0.252317	-0.383571	-0.522617	-1.174173	0.101746	0.497986	0.001831	0.999977	-0.001918	-0.002613	-0.005871	
 8788	    0	15.860516	35.546208	-2.011493	-1.167146	-0.558491	-2.544299	0.163168	0.353282	-0.021729	0.999898	-0.005836	-0.002792	-0.012721	
 8789	    0	12.869571	27.544512	-4.677922	-1.387889	-0.694135	-3.915695	0.134216	0.272522	-0.048218	0.999778	-0.006939	-0.003470	-0.019577	
 8790	    0	13.757674	37.919261	-19.276614	-1.590016	-0.691137	-5.778808	0.149096	0.373449	-0.195249	0.999544	-0.007949	-0.003455	-0.028890	
 8791	    0	45.742185	25.092777	-30.491903	0.316900	-0.882206	-8.168041	0.468506	0.232422	-0.302490	0.999155	0.001584	-0.004410	-0.040829	
 8792	    0	78.204512	9.998442	27.377704	3.947247	-0.723388	-9.359780	0.784410	0.057840	0.278031	0.998703	0.019728	-0.003615	-0.046779	
 8793	    0	12.194621	-9.349318	14.319213	6.389576	-3.620982	-7.207617	0.115784	-0.102295	0.142151	0.998676	0.031934	-0.018097	-0.036022	
 8794	    0	2.467024	25.865231	20.861483	3.676945	-1.678970	-7.457298	0.032413	0.253643	0.213560	0.999101	0.018379	-0.008392	-0.037275	
 8795	    0	7.839177	19.809713	0.603601	2.123114	-2.512864	-6.110082	0.084290	0.195496	0.009155	0.999397	0.010613	-0.012562	-0.030544	
 8796	    0	-12.475643	25.137795	-5.249199	0.163095	-1.915940	-4.613975	-0.118404	0.254202	-0.053440	0.999686	0.000815	-0.009579	-0.023067	
 8797	    0	-2.989657	2.856382	-12.369806	-1.634347	-0.644545	-4.006515	-0.028931	0.028137	-0.124023	0.999761	-0.008171	-0.003222	-0.020031	
 8798	    0	13.995454	-0.001898	-10.726151	-0.277723	-0.249874	-3.278690	0.140061	-0.002463	-0.107084	0.999864	-0.001389	-0.001249	-0.016393	
 8799	    0	22.083837	17.394768	-6.869675	-0.324070	-0.498218	-2.913773	0.223511	0.170593	-0.068420	0.999889	-0.001620	-0.002491	-0.014568	
 8800	    0	17.116241	13.409334	-1.730555	-0.664346	-0.664155	-2.253016	0.172715	0.132096	-0.017175	0.999925	-0.003322	-0.003321	-0.011265	
 8801	    0	16.629688	8.320918	-0.341976	-0.759711	-0.229649	-1.981391	0.167114	0.081543	-0.003540	0.999943	-0.003798	-0.001148	-0.009907	
 8802	    0	22.673552	7.933741	-4.560054	-0.832569	0.044442	-1.609824	0.227353	0.077318	-0.045976	0.999958	-0.004163	0.000222	-0.008049	
 8803	    0	23.890179	5.466818	-7.887160	-1.021397	0.117494	-1.279464	0.239197	0.052734	-0.079285	0.999966	-0.005107	0.000587	-0.006397	
 8804	    0	29.318941	-3.401333	-5.853965	-0.921069	0.348286	-1.296630	0.292857	-0.036183	-0.058887	0.999967	-0.004605	0.001741	-0.006483	
 8805	    0	28.601764	-1.143933	-4.544586	-1.423477	0.466164	-1.290915	0.285828	-0.013611	-0.046021	0.999950	-0.007117	0.002331	-0.006454	
