// Start Time: Unknown
// Update Rate: 100.0Hz
// Filter Profile: human (34.3)
// Firmware Version: 2.1.4
PacketCounter	SampleTimeFine	Acc_X	Acc_Y	Acc_Z	Gyr_X	Gyr_Y	Gyr_Z	VelInc_X	VelInc_Y	VelInc_Z	OriInc_q0	OriInc_q1	OriInc_q2	OriInc_q3	
19753	    0	0.582833	-2.153218	-3.121688	-0.157941	-0.355367	4.323154	0.006348	-0.021423	-0.031189	0.999764	-0.000790	-0.001777	0.021614	
19754	    0	1.324722	-1.029278	-3.136054	-0.368349	-0.402303	5.062459	0.013566	-0.010010	-0.031315	0.999676	-0.001842	-0.002011	0.025310	
19755	    0	2.066478	-0.911013	-3.297376	-0.587355	-0.479193	5.753371	0.020996	-0.008606	-0.032898	0.999578	-0.002936	-0.002396	0.028763	
19756	    0	2.818443	-2.048099	-3.073260	-0.594816	-0.600730	6.441104	0.028918	-0.019649	-0.030587	0.999472	-0.002974	-0.003003	0.032200	
19757	    0	3.727665	-3.147817	-2.859097	-0.486857	-0.709491	7.014399	0.038452	-0.030212	-0.028381	0.999375	-0.002434	-0.003547	0.035065	
19758	    0	5.271105	-4.435772	-2.474816	-0.349891	-0.790974	7.495178	0.054421	-0.042382	-0.024460	0.999288	-0.001749	-0.003954	0.037467	
19759	    0	7.631277	-4.905512	-1.906928	-0.256415	-0.856052	7.881705	0.078247	-0.046021	-0.018677	0.999213	-0.001282	-0.004279	0.039398	
19760	    0	10.190246	-4.105721	-1.642977	-0.245927	-0.984090	8.187709	0.103548	-0.036860	-0.015876	0.999148	-0.001229	-0.004919	0.040927	
19761	    0	12.375341	-3.098059	-1.595266	-0.393796	-1.124722	8.433029	0.125000	-0.025757	-0.015198	0.999093	-0.001968	-0.005622	0.042152	
19762	    0	14.069724	-3.251368	-1.308281	-0.614173	-1.312868	8.658328	0.142011	-0.026422	-0.012066	0.999037	-0.003070	-0.006562	0.043278	
19763	    0	15.427726	-4.989552	-0.308195	-0.505048	-1.538611	8.906544	0.156311	-0.042969	-0.001770	0.998976	-0.002524	-0.007690	0.044518	
19764	    0	18.628064	-4.446868	0.303761	-0.168480	-1.738225	9.162218	0.188020	-0.035876	0.004700	0.998912	-0.000842	-0.008688	0.045794	
19765	    0	21.713251	-2.012498	2.234474	0.065828	-1.907303	9.310602	0.217529	-0.010010	0.024414	0.998871	0.000329	-0.009533	0.046535	
19766	    0	24.296563	0.156543	4.084531	0.496481	-2.009966	9.329913	0.242117	0.012771	0.043304	0.998858	0.002481	-0.010046	0.046632	
19767	    0	26.641744	2.326466	3.500039	1.205141	-2.046031	9.271727	0.264587	0.035339	0.037903	0.998855	0.006023	-0.010226	0.046341	
19768	    0	30.096709	6.125440	1.039174	1.710204	-1.919901	9.178393	0.297617	0.074859	0.013862	0.998864	0.008548	-0.009596	0.045875	
19769	    0	34.824573	14.208854	-0.797713	1.657884	-1.704249	8.922695	0.341492	0.157471	-0.003784	0.998934	0.008286	-0.008518	0.044598	
19770	    0	36.280657	25.535686	-0.794792	1.086787	-1.555006	8.730549	0.351245	0.270889	-0.003742	0.999002	0.005432	-0.007772	0.043638	
19771	    0	33.483428	27.516604	0.024592	0.770038	-1.382672	8.356706	0.322937	0.288818	0.003601	0.999095	0.003849	-0.006911	0.041771	
19772	    0	33.185101	26.698537	0.320045	1.428360	-1.215642	7.183962	0.321945	0.278628	0.007140	0.999310	0.007140	-0.006077	0.035912	
19773	    0	29.531125	32.270791	-0.336024	2.419087	-1.098805	5.519967	0.286255	0.330688	0.002197	0.999531	0.012094	-0.005493	0.027596	
19774	    0	24.645036	38.295516	-2.950098	2.693809	-0.990388	3.767366	0.239300	0.387848	-0.023102	0.999719	0.013468	-0.004951	0.018835	
19775	    0	17.319766	45.121656	-2.262866	2.471477	-0.941515	2.267571	0.168152	0.453369	-0.016235	0.999847	0.012357	-0.004707	0.011337	
19776	    0	11.361009	51.062611	0.310256	1.730951	-0.772872	0.942248	0.111178	0.511099	0.007957	0.999944	0.008655	-0.003864	0.004711	
19777	    0	10.293567	47.571898	0.813283	0.638583	-0.574305	-0.434877	0.103943	0.475464	0.009949	0.999988	0.003193	-0.002872	-0.002174	
19778	    0	10.875860	36.541005	-1.166863	0.170329	-0.477035	-1.867514	0.112191	0.364383	-0.011093	0.999952	0.000852	-0.002385	-0.009337	
19779	    0	11.701684	29.363365	0.097119	0.094799	-0.388351	-3.040433	0.121460	0.291809	0.001343	0.999882	0.000474	-0.001942	-0.015202	
19780	    0	14.053693	24.644347	1.409170	-0.232139	-0.471908	-3.874835	0.145243	0.243676	0.014147	0.999808	-0.001161	-0.002359	-0.019373	
19781	    0	14.305589	18.261535	1.186523	-0.951471	-0.558331	-4.511667	0.147095	0.179382	0.011414	0.999730	-0.004757	-0.002791	-0.022556	
19782	    0	10.383880	19.117244	-18.771451	-0.027088	-1.593628	-5.656866	0.110680	0.188081	-0.186876	0.999568	-0.000135	-0.007967	-0.028280	
19783	    0	30.659044	43.019447	-25.299624	4.168594	-0.723322	-7.986880	0.324463	0.422607	-0.242981	0.998979	0.020836	-0.003615	-0.039921	
19784	    0	72.558700	12.825853	36.856519	5.482788	0.794950	-8.631865	0.731392	0.086662	0.368422	0.998685	0.027402	0.003973	-0.043140	
19785	    0	19.088940	11.817773	7.254618	6.612892	-3.265136	-6.306643	0.193176	0.109558	0.079407	0.998823	0.033051	-0.016319	-0.031521	
19786	    0	4.622231	22.053176	15.751113	3.532309	-0.941504	-6.677523	0.052732	0.216013	0.161592	0.999275	0.017657	-0.004706	-0.033380	
19787	    0	9.665029	14.843125	0.531942	0.872924	-1.150481	-5.584728	0.100708	0.145630	0.006531	0.999583	0.004364	-0.005752	-0.027920	
19788	    0	4.250970	19.333921	-3.549043	0.429954	-0.922284	-4.473125	0.046982	0.192397	-0.034866	0.999737	0.002150	-0.004611	-0.022364	
19789	    0	8.069785	10.888451	-2.692966	-1.415148	-0.254837	-3.541781	0.082642	0.107239	-0.027588	0.999817	-0.007075	-0.001274	-0.017708	
19790	    0	14.554827	2.625566	-8.180053	-0.614950	-0.181586	-2.773379	0.145966	0.023982	-0.081744	0.999898	-0.003075	-0.000908	-0.013866	
19791	    0	17.191926	9.075034	-6.203672	-0.847651	-0.183683	-2.511671	0.173096	0.088318	-0.062256	0.999911	-0.004238	-0.000918	-0.012558	
19792	    0	19.419103	6.651487	-4.462399	-0.937670	-0.176433	-1.857219	0.194836	0.064498	-0.044758	0.999945	-0.004688	-0.000882	-0.009286	
19793	    0	25.520201	7.068381	-2.611237	-1.587520	0.151828	-1.606022	0.255737	0.068420	-0.026855	0.999935	-0.007937	0.000759	-0.008030	
19794	    0	31.881157	1.840410	-0.178004	-1.765102	0.154880	-1.593437	0.318943	0.015845	-0.002174	0.999928	-0.008825	0.000774	-0.007967	
19795	    0	29.818205	-0.153549	0.189249	-2.295763	0.188643	-1.685390	0.298157	-0.004028	0.001648	0.999898	-0.011478	0.000943	-0.008427	
19796	    0	27.711539	-4.709818	1.204489	-3.071754	0.370617	-1.713651	0.276722	-0.049283	0.012278	0.999844	-0.015358	0.001853	-0.008568	
19797	    0	24.924540	-5.575101	1.525333	-3.798181	0.421363	-1.541247	0.248840	-0.057373	0.015808	0.999787	-0.018990	0.002107	-0.007706	
19798	    0	21.969621	-4.574439	3.224907	-4.703611	0.421948	-1.306665	0.219463	-0.046411	0.032872	0.999700	-0.023516	0.002110	-0.006533	
19799	    0	16.691612	-5.690881	4.036709	-6.162309	0.434183	-0.911098	0.166748	-0.056396	0.041748	0.999512	-0.030807	0.002171	-0.004555	
19800	    0	12.497078	-11.119651	1.505410	-6.874684	0.311532	-0.438014	0.124755	-0.110869	0.018675	0.999405	-0.034367	0.001557	-0.002190	
19801	    0	10.859489	-13.220775	-2.834347	-5.998179	0.102249	-0.367792	0.108337	-0.133179	-0.024414	0.999548	-0.029986	0.000511	-0.001839	
19802	    0	15.506417	-12.409061	-1.948980	-3.786892	0.405337	-0.508340	0.154711	-0.124827	-0.017445	0.999815	-0.018933	0.002027	-0.002542	
19803	    0	15.069735	-0.844665	-0.609918	-2.703955	0.572416	-0.989568	0.150635	-0.009277	-0.006409	0.999892	-0.013519	0.002862	-0.004948	
19804	    0	13.448601	5.784686	-3.039061	-2.677063	0.663400	-1.138920	0.134707	0.056663	-0.031601	0.999888	-0.013385	0.003317	-0.005694	
19805	    0	11.559956	5.407948	-5.344981	-3.069456	0.943230	-1.200163	0.115662	0.052551	-0.054810	0.999852	-0.015347	0.004716	-0.006001	
19806	    0	11.455815	4.248016	-6.046887	-3.406378	1.346681	-1.772240	0.114509	0.040419	-0.061940	0.999793	-0.017031	0.006733	-0.008861	
19807	    0	14.942766	11.869155	-6.357277	-2.968632	1.385603	-2.741450	0.150574	0.115662	-0.066345	0.999771	-0.014842	0.006927	-0.013706	
19808	    0	14.617925	13.415645	-9.441750	-3.121848	1.243131	-3.213981	0.147695	0.130286	-0.097386	0.999729	-0.015608	0.006215	-0.016068	
19809	    0	13.217884	5.248156	-9.144128	-3.359334	1.386386	-2.895616	0.132263	0.049011	-0.093201	0.999729	-0.016795	0.006931	-0.014477	
19810	    0	12.948105	0.297967	-7.632887	-3.451482	1.785447	-2.749321	0.128805	-0.000125	-0.077497	0.999717	-0.017256	0.008926	-0.013745	
19811	    0	14.091044	-2.296862	-7.289544	-2.664217	2.102074	-2.926881	0.139771	-0.026001	-0.074036	0.999748	-0.013320	0.010509	-0.014633	
19812	    0	14.641775	-7.775756	-7.289380	-1.952508	2.269342	-2.996478	0.144390	-0.080648	-0.073762	0.999775	-0.009762	0.011346	-0.014981	
19813	    0	14.814485	-9.601784	-5.676429	-0.792559	2.357648	-3.254927	0.145874	-0.098633	-0.058105	0.999790	-0.003963	0.011787	-0.016273	
19814	    0	14.893559	-10.684364	-4.190851	0.529713	2.283470	-3.700552	0.146433	-0.109454	-0.043878	0.999760	0.002648	0.011416	-0.018501	
19815	    0	15.214718	-9.755198	-3.117291	1.928926	2.152683	-4.291250	0.149658	-0.100464	-0.033752	0.999665	0.009644	0.010762	-0.021454	
19816	    0	17.200278	-6.468895	-2.182582	2.904384	2.169369	-4.863149	0.170111	-0.068497	-0.024654	0.999539	0.014520	0.010845	-0.024312	
19817	    0	20.320788	-3.380328	-0.547281	3.398945	2.167144	-5.256851	0.202148	-0.039001	-0.008301	0.999451	0.016992	0.010834	-0.026279	
19818	    0	21.893630	-1.505063	-1.134039	3.458492	1.955214	-5.474753	0.218292	-0.020808	-0.013803	0.999428	0.017289	0.009774	-0.027369	
19819	    0	21.456006	-3.445326	-3.726964	3.412697	1.585686	-5.562874	0.213196	-0.039734	-0.039612	0.999435	0.017060	0.007927	-0.027809	
19820	    0	20.317459	-7.473886	-4.907031	3.468955	1.179910	-5.509046	0.200730	-0.079411	-0.051610	0.999453	0.017342	0.005898	-0.027540	
19821	    0	19.120652	-9.244362	-4.859436	3.434020	0.774519	-5.448343	0.188416	-0.096741	-0.050964	0.999474	0.017167	0.003872	-0.027237	
19822	    0	17.729983	-9.409528	-6.112779	3.121887	0.412246	-5.421382	0.174552	-0.097878	-0.062998	0.999508	0.015607	0.002061	-0.027102	
19823	    0	15.964259	-8.940363	-8.064640	3.021897	0.005341	-5.283408	0.157227	-0.092346	-0.082031	0.999537	0.015107	0.000027	-0.026413	
19824	    0	14.275435	-9.220398	-8.062473	2.445733	-0.173592	-5.047888	0.140454	-0.094774	-0.081651	0.999606	0.012227	-0.000868	-0.025236	
19825	    0	13.471619	-6.940066	-5.992007	1.778602	-0.070389	-4.740077	0.133051	-0.072031	-0.060506	0.999679	0.008892	-0.000352	-0.023698	
19826	    0	15.071985	-2.376329	-4.249841	1.275357	0.043491	-4.240001	0.150166	-0.026679	-0.042695	0.999755	0.006376	0.000217	-0.021198	
19827	    0	16.616269	-3.124210	-2.914538	1.305655	-0.003815	-3.479967	0.165588	-0.033936	-0.029358	0.999826	0.006528	-0.000019	-0.017399	
19828	    0	13.519424	-5.586365	-3.436645	1.384220	-0.378434	-2.811739	0.134459	-0.057519	-0.034506	0.999875	0.006921	-0.001892	-0.014058	
19829	    0	7.930965	-5.253029	-3.665307	1.306949	-0.492681	-2.051597	0.078857	-0.053101	-0.036804	0.999923	0.006535	-0.002463	-0.010258	
19830	    0	4.722942	-3.936577	-3.634040	1.045619	-0.383381	-1.107418	0.047081	-0.039436	-0.036456	0.999969	0.005228	-0.001917	-0.005537	
19831	    0	3.345643	-2.788252	-2.819864	0.615121	-0.149536	-0.217438	0.033447	-0.027832	-0.028259	0.999994	0.003076	-0.000748	-0.001087	
19832	    0	1.282067	-2.327001	-2.560782	0.203514	0.051499	0.652696	0.012890	-0.023202	-0.025635	0.999993	0.001018	0.000257	0.003263	
19833	    0	-0.409228	-2.747435	-2.426009	-0.178530	0.230601	1.555650	-0.003906	-0.027527	-0.024231	0.999969	-0.000893	0.001153	0.007778	
19834	    0	-1.078640	-3.520631	-2.330984	-0.418674	0.319108	2.474279	-0.010386	-0.035385	-0.023219	0.999920	-0.002093	0.001595	0.012371	
19835	    0	-1.120365	-3.254763	-2.314887	-0.379962	0.284781	3.396773	-0.010681	-0.032776	-0.023071	0.999852	-0.001900	0.001424	0.016983	
19836	    0	-0.864735	-1.793332	-2.973905	-0.386840	0.203148	4.270118	-0.008291	-0.018170	-0.029696	0.999769	-0.001934	0.001016	0.021349	
19837	    0	-0.290699	-1.187440	-3.359979	-0.476699	0.140396	5.111493	-0.002625	-0.012024	-0.033569	0.999670	-0.002383	0.000702	0.025555	
19838	    0	0.246739	-1.777185	-3.448558	-0.486063	0.037008	5.896093	0.002985	-0.017773	-0.034443	0.999562	-0.002430	0.000185	0.029476	
19839	    0	1.002374	-2.929015	-3.239758	-0.318012	-0.050363	6.560933	0.010986	-0.028992	-0.032349	0.999460	-0.001590	-0.000252	0.032799	
19840	    0	2.991253	-3.865354	-2.757228	-0.074975	-0.128201	7.109042	0.031279	-0.037568	-0.027538	0.999368	-0.000375	-0.000641	0.035538	
19841	    0	5.345526	-4.279817	-2.169997	0.153579	-0.235805	7.596128	0.055054	-0.040710	-0.021667	0.999277	0.000768	-0.001179	0.037971	
19842	    0	7.534196	-3.966566	-1.714177	0.101307	-0.315750	7.987433	0.076872	-0.036607	-0.017040	0.999201	0.000506	-0.001578	0.039927	
19843	    0	9.452858	-2.879431	-1.374656	-0.081658	-0.390547	8.308517	0.095642	-0.024841	-0.013550	0.999135	-0.000408	-0.001952	0.041531	
19844	    0	11.053937	-2.865970	-1.600660	-0.251658	-0.576581	8.644712	0.111686	-0.023868	-0.015654	0.999061	-0.001258	-0.002882	0.043210	
19845	    0	12.845675	-4.104763	-1.759580	-0.441700	-0.747933	8.959170	0.130188	-0.035278	-0.017029	0.998987	-0.002208	-0.003738	0.044781	
19846	    0	14.923214	-4.814703	-0.423590	-0.637474	-0.882847	9.220574	0.151256	-0.041215	-0.003432	0.998922	-0.003186	-0.004413	0.046086	
19847	    0	17.342702	-3.620092	0.142426	-0.689196	-1.114886	9.447245	0.174866	-0.027954	0.002502	0.998862	-0.003445	-0.005572	0.047218	
19848	    0	19.913373	-1.437476	2.403296	-0.748929	-1.280716	9.600408	0.199355	-0.004713	0.025339	0.998820	-0.003743	-0.006401	0.047983	
19849	    0	21.952791	0.057803	3.643751	-0.428943	-1.519427	9.648160	0.218872	0.011230	0.038086	0.998805	-0.002144	-0.007594	0.048222	
19850	    0	24.157473	2.004194	3.097361	0.260456	-1.661766	9.586685	0.239978	0.031531	0.033009	0.998816	0.001302	-0.008306	0.047915	
19851	    0	27.340619	4.516572	1.083853	1.028082	-1.702593	9.482468	0.270752	0.057983	0.013428	0.998826	0.005138	-0.008510	0.047394	
19852	    0	32.374659	9.122545	-1.321030	1.540962	-1.587710	9.306068	0.319122	0.106235	-0.009884	0.998856	0.007702	-0.007936	0.046513	
19853	    0	37.928879	19.268758	-3.784147	1.563260	-1.433322	9.106711	0.370239	0.209961	-0.033569	0.998907	0.007813	-0.007164	0.045517	
19854	    0	39.241915	28.426209	-4.065330	1.168277	-1.376632	8.964037	0.379415	0.301686	-0.036283	0.998955	0.005839	-0.006881	0.044805	
19855	    0	36.649040	27.811155	-2.494425	1.499627	-1.336882	8.259780	0.354736	0.293091	-0.020386	0.999097	0.007496	-0.006682	0.041286	
19856	    0	35.492553	30.469658	-0.097856	2.507015	-1.270964	6.818982	0.344247	0.316518	0.005151	0.999320	0.012532	-0.006353	0.034087	
19857	    0	30.273219	36.027736	-1.315140	2.953205	-1.114057	5.068960	0.293518	0.367920	-0.006104	0.999554	0.014764	-0.005569	0.025341	
19858	    0	23.481184	39.429732	-3.853051	2.720481	-0.960618	3.329928	0.228363	0.398601	-0.032021	0.999757	0.013601	-0.004803	0.016648	
19859	    0	15.783015	47.169810	-3.780047	2.294443	-0.900305	1.919634	0.153442	0.473572	-0.031677	0.999878	0.011472	-0.004501	0.009598	
19860	    0	9.928455	54.450676	-0.605195	0.871473	-0.681691	0.578312	0.097724	0.544809	-0.003344	0.999980	0.004357	-0.003408	0.002892	
19861	    0	7.795466	41.189558	-2.991979	-0.095940	-0.529483	-0.963597	0.080017	0.411499	-0.029907	0.999985	-0.000480	-0.002647	-0.004818	
19862	    0	10.889830	26.906536	-2.086618	-0.062563	-0.394450	-2.420295	0.112185	0.267715	-0.020731	0.999925	-0.000313	-0.001972	-0.012101	
19863	    0	11.008282	24.467131	1.584325	0.217449	-0.333994	-3.503599	0.114319	0.242676	0.016296	0.999845	0.001087	-0.001670	-0.017517	
19864	    0	14.183699	22.085313	1.648980	-0.269909	-0.487172	-4.136004	0.146323	0.217880	0.016547	0.999782	-0.001349	-0.002436	-0.020679	
19865	    0	12.527730	14.978279	-2.716319	-1.000306	-0.492714	-4.572718	0.128723	0.146729	-0.027588	0.999722	-0.005001	-0.002463	-0.022861	
19866	    0	9.879389	30.914918	-32.696097	0.847205	-2.219597	-6.102126	0.111799	0.307248	-0.324464	0.999464	0.004235	-0.011096	-0.030505	
19867	    0	50.107354	38.073805	-12.660599	3.094017	0.569539	-8.507402	0.516357	0.360901	-0.122375	0.998971	0.015465	0.002847	-0.042522	
19868	    0	60.014907	5.242829	29.772256	5.307518	-0.843181	-7.952691	0.600125	0.020597	0.301082	0.998848	0.026527	-0.004214	-0.039748	
19869	    0	8.618668	11.807059	10.034449	5.003500	-2.505471	-6.294585	0.088501	0.112732	0.104309	0.999113	0.025010	-0.012524	-0.031464	
19870	    0	4.441506	18.815329	14.516656	2.871905	-1.072529	-6.269964	0.049450	0.184543	0.148090	0.999391	0.014357	-0.005362	-0.031343	
19871	    0	8.512826	14.573021	0.730325	0.994433	-1.197211	-5.425220	0.088989	0.143311	0.008545	0.999601	0.004972	-0.005985	-0.027122	
19872	    0	5.492343	18.521962	-1.462693	0.597622	-0.918656	-4.335192	0.058986	0.184012	-0.013811	0.999749	0.002988	-0.004593	-0.021674	
19873	    0	7.612801	8.959090	-2.625166	-1.085722	-0.472857	-3.401368	0.077698	0.088135	-0.026550	0.999837	-0.005428	-0.002364	-0.017006	
19874	    0	14.299306	6.129929	-8.564176	-0.408567	-0.247200	-2.752584	0.143923	0.059148	-0.085587	0.999902	-0.002043	-0.001236	-0.013762	
19875	    0	17.627889	10.981454	-7.219545	-0.993184	-0.320443	-2.363652	0.177673	0.107361	-0.072449	0.999916	-0.004966	-0.001602	-0.011818	
19876	    0	20.174249	5.241344	-5.576403	-1.288439	-0.248723	-1.704058	0.202247	0.050332	-0.055841	0.999942	-0.006442	-0.001244	-0.008520	
19877	    0	25.496147	4.198911	-4.076187	-1.839490	0.050546	-1.471744	0.255249	0.039734	-0.041199	0.999930	-0.009197	0.000253	-0.007359	
19878	    0	33.436310	0.697016	-1.463202	-1.852272	0.118831	-1.562920	0.334394	0.004220	-0.014878	0.999926	-0.009261	0.000594	-0.007814	
19879	    0	30.360320	-1.460346	-0.237341	-2.385796	0.092510	-1.660215	0.303467	-0.017151	-0.002319	0.999894	-0.011929	0.000463	-0.008301	
19880	    0	27.614469	-4.206064	0.953329	-3.130889	0.236333	-1.703734	0.275785	-0.044258	0.009889	0.999840	-0.015654	0.001182	-0.008518	
19881	    0	25.477472	-5.201398	2.098979	-3.785208	0.304625	-1.555743	0.254395	-0.053589	0.021606	0.999789	-0.018925	0.001523	-0.007778	
19882	    0	22.851050	-4.988070	3.432031	-4.629773	0.270679	-1.289111	0.228233	-0.050545	0.035176	0.999710	-0.023147	0.001353	-0.006445	
19883	    0	17.079851	-6.905919	3.826197	-6.011175	0.269359	-0.928641	0.170532	-0.068665	0.040100	0.999537	-0.030051	0.001347	-0.004642	
19884	    0	12.261941	-13.066664	2.218303	-6.522960	0.158338	-0.458799	0.122340	-0.130134	0.026337	0.999465	-0.032609	0.000792	-0.002294	
19885	    0	10.926949	-13.804920	-2.286582	-5.491570	0.080310	-0.452480	0.108948	-0.138855	-0.019104	0.999619	-0.027454	0.000401	-0.002262	
19886	    0	16.211938	-11.837128	-1.221513	-3.552441	0.450922	-0.596079	0.161740	-0.119050	-0.010469	0.999835	-0.017761	0.002254	-0.002980	
19887	    0	15.259870	0.285402	-0.694062	-3.016795	0.618199	-1.036880	0.152588	0.001953	-0.007446	0.999867	-0.015083	0.003091	-0.005184	
19888	    0	12.839088	6.188886	-3.486910	-3.324306	0.641476	-1.213330	0.128646	0.060513	-0.036295	0.999838	-0.016621	0.003207	-0.006066	
19889	    0	11.303272	4.338449	-4.547298	-3.649952	0.897276	-1.290979	0.113098	0.041809	-0.046753	0.999802	-0.018249	0.004486	-0.006454	
19890	    0	11.978524	5.175760	-4.166487	-3.940360	1.290054	-2.028455	0.120020	0.049697	-0.043431	0.999733	-0.019700	0.006450	-0.010141	
19891	    0	16.521789	13.643183	-4.153006	-3.717996	1.371143	-3.001713	0.166931	0.133118	-0.045166	0.999691	-0.018588	0.006855	-0.015007	
19892	    0	17.537963	14.175879	-7.491554	-4.062008	1.330158	-3.357347	0.177193	0.137218	-0.078908	0.999630	-0.020308	0.006650	-0.016785	
19893	    0	15.543392	6.214900	-7.530830	-3.826562	1.527001	-3.070406	0.155762	0.058289	-0.077637	0.999669	-0.019131	0.007634	-0.015350	
19894	    0	13.653434	-0.609687	-8.326620	-3.614808	1.877793	-2.965669	0.135620	-0.009631	-0.084390	0.999682	-0.018072	0.009388	-0.014827	
19895	    0	14.993332	-5.544239	-7.716819	-2.600141	2.376008	-3.040588	0.148132	-0.058716	-0.078186	0.999729	-0.013000	0.011879	-0.015202	
19896	    0	16.663929	-9.698651	-6.461872	-0.953179	2.745278	-3.308564	0.164098	-0.100029	-0.066411	0.999757	-0.004766	0.013725	-0.016541	
19897	    0	16.772464	-11.034217	-6.548616	0.704447	2.621695	-3.758576	0.164734	-0.113220	-0.068054	0.999731	0.003522	0.013107	-0.018791	
19898	    0	16.478270	-12.808981	-5.142815	1.953357	2.497398	-4.299103	0.161317	-0.131059	-0.054728	0.999642	0.009766	0.012486	-0.021493	
19899	    0	16.685591	-12.589979	-1.129206	2.889911	2.489112	-4.933966	0.163513	-0.129761	-0.015198	0.999514	0.014447	0.012444	-0.024666	
19900	    0	18.800874	-6.561990	-0.987191	3.423622	2.382571	-5.591191	0.185936	-0.070630	-0.013276	0.999392	0.017115	0.011910	-0.027950	
19901	    0	22.367894	-1.678261	-0.203387	3.766701	2.251359	-5.809541	0.223022	-0.023193	-0.004944	0.999337	0.018829	0.011254	-0.029041	
19902	    0	22.962963	-1.591723	-1.607887	3.409310	1.827036	-5.782912	0.228886	-0.022242	-0.018516	0.999393	0.017043	0.009133	-0.028909	
19903	    0	21.270666	-4.010858	-4.017406	2.634305	1.404047	-5.640606	0.211182	-0.045532	-0.042236	0.999491	0.013169	0.007019	-0.028198	
19904	    0	19.195399	-7.927706	-5.349966	2.116127	1.033551	-5.395524	0.189450	-0.083832	-0.055354	0.999566	0.010579	0.005167	-0.026974	
19905	    0	16.557726	-9.462083	-6.707628	1.848271	0.769906	-5.222238	0.162781	-0.098267	-0.068604	0.999609	0.009240	0.003849	-0.026108	
19906	    0	14.726598	-9.996937	-8.159530	1.748869	0.473843	-5.074924	0.144484	-0.102939	-0.082831	0.999637	0.008743	0.002369	-0.025372	
19907	    0	13.525784	-9.335562	-9.130927	1.683993	0.171871	-4.852829	0.132874	-0.095825	-0.092224	0.999669	0.008419	0.000859	-0.024261	
19908	    0	12.622527	-9.044466	-7.781381	1.501611	0.110446	-4.590481	0.124071	-0.092721	-0.078573	0.999706	0.007507	0.000552	-0.022950	
19909	    0	12.027931	-4.492455	-5.707862	1.114937	0.059514	-4.305622	0.119263	-0.047180	-0.057373	0.999752	0.005574	0.000298	-0.021526	
19910	    0	13.835482	-2.666355	-4.123928	1.042811	0.159273	-3.677592	0.137803	-0.028985	-0.041496	0.999817	0.005214	0.000796	-0.018387	
19911	    0	14.064485	-4.272260	-3.885273	1.465100	-0.072482	-2.935160	0.140015	-0.044495	-0.039124	0.999865	0.007325	-0.000362	-0.014675	
19912	    0	10.392037	-5.699070	-3.804931	1.552631	-0.321017	-2.255320	0.103333	-0.057861	-0.038330	0.999905	0.007763	-0.001605	-0.011276	
19913	    0	5.847031	-5.501714	-3.756692	1.655611	-0.388916	-1.359776	0.058169	-0.055100	-0.037910	0.999940	0.008278	-0.001945	-0.006799	
19914	    0	3.266833	-3.449871	-3.255983	1.451698	-0.287440	-0.457578	0.032637	-0.034336	-0.032763	0.999969	0.007258	-0.001437	-0.002288	
19915	    0	1.738027	-2.582984	-2.788313	1.120956	-0.138093	0.439456	0.017456	-0.025635	-0.028015	0.999981	0.005605	-0.000690	0.002197	
19916	    0	-0.056424	-2.486864	-3.008299	0.789650	-0.026894	1.334013	-0.000395	-0.024753	-0.030181	0.999969	0.003948	-0.000134	0.006670	
19917	    0	-0.909269	-3.323494	-3.123895	0.452624	0.071718	2.260640	-0.008728	-0.033264	-0.031311	0.999933	0.002263	0.000359	0.011303	
19918	    0	-0.846114	-3.342545	-2.759245	0.222025	0.112157	3.197044	-0.007941	-0.033525	-0.027625	0.999871	0.001110	0.000561	0.015985	
19919	    0	-0.677756	-2.161052	-2.562574	0.115403	0.107582	4.091167	-0.006348	-0.021729	-0.025635	0.999790	0.000577	0.000538	0.020454	
19920	    0	-0.702083	0.149090	-2.997851	-0.173967	0.053602	4.870134	-0.007062	0.001293	-0.029978	0.999702	-0.000870	0.000268	0.024348	
19921	    0	-0.477810	0.591473	-3.733846	-0.539279	0.019076	5.635060	-0.004944	0.005676	-0.037354	0.999599	-0.002696	0.000095	0.028172	
19922	    0	0.427853	-1.640922	-3.792719	-0.691153	-0.087181	6.435564	0.004823	-0.016391	-0.037868	0.999475	-0.003455	-0.000436	0.032172	
19923	    0	1.418905	-3.823240	-3.386011	-0.486857	-0.202794	7.067824	0.015564	-0.037781	-0.033752	0.999372	-0.002434	-0.001014	0.035332	
19924	    0	3.374929	-4.514209	-2.627059	-0.268427	-0.280828	7.494587	0.035446	-0.043870	-0.026162	0.999295	-0.001342	-0.001404	0.037464	
19925	    0	5.868047	-4.200652	-1.875245	-0.099780	-0.389962	7.839690	0.060303	-0.039673	-0.018616	0.999229	-0.000499	-0.001949	0.039188	
19926	    0	7.989473	-3.649183	-1.397278	-0.227038	-0.532300	8.195512	0.081337	-0.033194	-0.013719	0.999154	-0.001135	-0.002661	0.040966	
19927	    0	10.063251	-3.519060	-1.207080	-0.565512	-0.633243	8.543731	0.102051	-0.030884	-0.011658	0.999078	-0.002827	-0.003165	0.042706	
19928	    0	11.787798	-3.666996	-1.138143	-0.883011	-0.831686	8.796530	0.119385	-0.031488	-0.010740	0.999014	-0.004414	-0.004157	0.043968	
19929	    0	13.528918	-4.173238	-0.844684	-1.139464	-1.062189	8.986727	0.137024	-0.035645	-0.007507	0.998960	-0.005695	-0.005309	0.044918	
19930	    0	15.459321	-4.541692	-0.390917	-1.124599	-1.330286	9.166991	0.156478	-0.038289	-0.002644	0.998910	-0.005621	-0.006649	0.045818	
19931	    0	18.555063	-2.938261	0.758444	-1.090463	-1.548591	9.346498	0.186584	-0.020630	0.009155	0.998863	-0.005450	-0.007740	0.046715	
19932	    0	20.964427	-0.499281	2.629561	-0.904244	-1.809251	9.445429	0.209315	0.005025	0.028183	0.998834	-0.004519	-0.009043	0.047209	
19933	    0	22.581441	1.371783	3.776907	-0.376085	-2.053107	9.444294	0.224426	0.024414	0.040039	0.998831	-0.001880	-0.010262	0.047203	
19934	    0	24.856323	2.899927	3.750925	0.456416	-2.188201	9.413958	0.246405	0.040545	0.040298	0.998830	0.002281	-0.010937	0.047051	
19935	    0	29.051600	5.618286	2.424044	1.256484	-2.122571	9.407699	0.287170	0.069580	0.027710	0.998817	0.006280	-0.010609	0.047020	
19936	    0	35.095580	13.532804	0.800633	1.514822	-1.808475	9.274206	0.344087	0.151312	0.012245	0.998855	0.007571	-0.009039	0.046353	
19937	    0	39.630485	25.918957	0.223251	1.029767	-1.527192	9.116597	0.383911	0.276855	0.006592	0.998919	0.005147	-0.007633	0.045567	
19938	    0	36.976769	28.760264	0.951950	0.573348	-1.304105	8.800560	0.356568	0.303456	0.012729	0.999006	0.002866	-0.006518	0.043988	
19939	    0	36.286949	26.680527	1.337524	1.222548	-1.174279	7.729067	0.352112	0.280457	0.017151	0.999217	0.006111	-0.005870	0.038635	
19940	    0	32.477770	29.861147	-0.706041	2.450252	-1.069267	6.101210	0.315487	0.308373	-0.001618	0.999445	0.012249	-0.005345	0.030500	
19941	    0	27.724889	35.856095	-4.254191	2.765380	-0.933938	4.152362	0.269897	0.364746	-0.036255	0.999678	0.013825	-0.004669	0.020760	
19942	    0	19.429452	45.055905	-4.415643	2.453748	-0.939611	2.500862	0.188824	0.453432	-0.037709	0.999835	0.012268	-0.004698	0.012504	
19943	    0	10.980461	56.165342	1.261497	1.491572	-0.753606	1.109333	0.106628	0.562134	0.017212	0.999949	0.007458	-0.003768	0.005547	
19944	    0	8.954041	50.826979	1.273661	0.225449	-0.517084	-0.531198	0.090856	0.508015	0.013543	0.999992	0.001127	-0.002585	-0.002656	
19945	    0	11.421266	32.947427	-1.092502	-0.000572	-0.315101	-2.208756	0.117859	0.328186	-0.010742	0.999937	-0.000003	-0.001575	-0.011044	
19946	    0	13.852483	23.836436	0.744839	0.673522	-0.209248	-3.570181	0.142741	0.235814	0.008393	0.999834	0.003367	-0.001046	-0.017850	
19947	    0	16.830369	22.706082	1.079475	0.927819	-0.503395	-4.568900	0.173401	0.223083	0.012268	0.999724	0.004639	-0.002517	-0.022842	
19948	    0	13.147025	18.103757	-2.441538	0.598975	-0.556818	-5.146227	0.136137	0.177646	-0.023505	0.999660	0.002995	-0.002784	-0.025728	
19949	    0	16.240509	25.247078	-28.210278	1.846887	-1.590295	-6.613765	0.172913	0.249451	-0.278442	0.999378	0.009233	-0.007950	-0.033062	
19950	    0	55.450202	24.353836	-0.994073	4.108324	0.676420	-8.765417	0.564437	0.219106	-0.007170	0.998823	0.020534	0.003381	-0.043810	
19951	    0	53.365252	9.907235	33.779579	6.088848	-1.025080	-8.239571	0.535095	0.066650	0.342896	0.998674	0.030431	-0.005123	-0.041180	
19952	    0	4.939070	13.510455	5.658112	5.847656	-2.472584	-6.506490	0.052976	0.131677	0.061106	0.998966	0.029228	-0.012359	-0.032521	
19953	    0	4.279241	22.484616	11.942104	3.238851	-1.127884	-6.591787	0.049438	0.221313	0.123291	0.999310	0.016191	-0.005638	-0.032951	
19954	    0	3.667561	16.321850	-3.088143	0.850032	-1.355549	-5.527687	0.041374	0.162247	-0.029921	0.999585	0.004250	-0.006777	-0.027635	
19955	    0	-0.775908	19.272988	-4.591519	0.165570	-0.841395	-4.175884	-0.003540	0.192871	-0.045776	0.999772	0.000828	-0.004207	-0.020878	
19956	    0	7.827621	8.025809	-4.268045	-1.397977	-0.156030	-3.458796	0.079679	0.078588	-0.043172	0.999825	-0.006989	-0.000780	-0.017293	
19957	    0	16.257753	7.251484	-5.953252	-0.479904	-0.162320	-2.672659	0.163574	0.070190	-0.059570	0.999907	-0.002399	-0.000812	-0.013363	
19958	    0	19.196155	10.951804	-5.469703	-0.699442	-0.275619	-2.318440	0.193288	0.107091	-0.054809	0.999926	-0.003497	-0.001378	-0.011592	
19959	    0	19.349821	7.273658	-2.883458	-0.837530	-0.209812	-1.745633	0.194153	0.070923	-0.028931	0.999952	-0.004188	-0.001049	-0.008728	
19960	    0	23.709865	4.644263	-3.524808	-1.351569	0.096323	-1.445031	0.237408	0.044488	-0.035667	0.999950	-0.006758	0.000482	-0.007225	
19961	    0	32.118559	3.155319	-2.236921	-1.508928	0.219730	-1.259634	0.321350	0.029358	-0.022949	0.999950	-0.007545	0.001099	-0.006298	
19962	    0	32.910221	-0.827571	-0.382399	-2.039390	0.197606	-1.439132	0.329027	-0.010684	-0.004048	0.999921	-0.010197	0.000988	-0.007195	
19963	    0	29.089856	-5.883276	0.902056	-2.848176	0.287068	-1.480930	0.290466	-0.060852	0.009460	0.999869	-0.014240	0.001435	-0.007404	
19964	    0	27.390527	-4.094881	1.659600	-3.650332	0.375772	-1.505760	0.273620	-0.042704	0.016850	0.999803	-0.018250	0.001879	-0.007528	
19965	    0	25.552450	-3.963310	2.929682	-4.510149	0.280978	-1.271937	0.255310	-0.040588	0.029846	0.999724	-0.022549	0.001405	-0.006359	
19966	    0	19.622510	-6.921852	4.718617	-6.149709	0.219190	-0.858445	0.195983	-0.068570	0.049087	0.999517	-0.030744	0.001096	-0.004292	
19967	    0	13.525222	-13.310890	3.749208	-7.316508	0.140412	-0.317454	0.135071	-0.131836	0.042236	0.999329	-0.036574	0.000702	-0.001587	
19968	    0	10.544243	-17.217989	-0.961758	-6.897577	0.028807	-0.045976	0.105402	-0.172400	-0.003689	0.999405	-0.034481	0.000144	-0.000230	
19969	    0	14.381280	-13.252132	-2.199353	-4.840374	0.372351	-0.240350	0.143616	-0.133179	-0.019043	0.999704	-0.024199	0.001862	-0.001202	
19970	    0	16.280682	-4.665088	2.620457	-3.314376	0.741996	-0.749244	0.162729	-0.046824	0.026376	0.999848	-0.016571	0.003710	-0.003746	
19971	    0	12.137138	10.581918	-2.096925	-3.366278	0.748676	-1.258158	0.121948	0.104675	-0.023193	0.999831	-0.016830	0.003743	-0.006290	
19972	    0	10.798863	8.437535	-4.871984	-3.922573	1.125994	-1.331622	0.108260	0.082670	-0.050961	0.999769	-0.019611	0.005630	-0.006658	
19973	    0	11.660867	3.874226	-6.103258	-3.959059	1.464976	-1.949486	0.116516	0.036377	-0.062622	0.999729	-0.019794	0.007324	-0.009747	
19974	    0	14.876364	9.902297	-7.141257	-3.095704	1.414421	-3.026079	0.149711	0.095631	-0.073967	0.999741	-0.015477	0.007071	-0.015129	
19975	    0	15.432751	12.163349	-9.190183	-3.167280	1.371331	-3.496903	0.155762	0.117432	-0.094849	0.999698	-0.015835	0.006856	-0.017483	
19976	    0	15.651918	4.915923	-8.083931	-3.067878	1.573711	-3.279805	0.156637	0.045331	-0.082787	0.999717	-0.015338	0.007868	-0.016397	
19977	    0	14.176916	0.444726	-7.311023	-2.984136	1.867278	-3.175651	0.141113	0.001099	-0.074463	0.999719	-0.014919	0.009336	-0.015877	
19978	    0	15.210430	-3.680728	-6.999499	-2.313051	2.275664	-3.199473	0.150675	-0.040045	-0.071264	0.999740	-0.011564	0.011377	-0.015996	
19979	    0	16.389747	-8.732147	-5.846974	-1.138202	2.507211	-3.290047	0.161682	-0.090332	-0.059998	0.999769	-0.005691	0.012535	-0.016449	
19980	    0	15.936425	-11.492250	-4.705348	0.077063	2.364339	-3.561100	0.156713	-0.117710	-0.048962	0.999771	0.000385	0.011821	-0.017804	
19981	    0	14.552823	-12.763714	-3.166067	1.220053	2.154168	-4.005802	0.142578	-0.130310	-0.033997	0.999722	0.006100	0.010770	-0.020027	
19982	    0	13.149514	-11.054806	-1.618372	2.346329	2.030814	-4.472713	0.128800	-0.113238	-0.018819	0.999629	0.011730	0.010153	-0.022361	
19983	    0	14.800591	-5.098999	-1.437241	3.062916	2.089445	-4.862971	0.146545	-0.054321	-0.016724	0.999532	0.015312	0.010446	-0.024311	
19984	    0	18.238601	-1.463375	0.172333	3.264423	2.248201	-5.103427	0.181935	-0.019283	-0.000613	0.999477	0.016319	0.011239	-0.025513	
19985	    0	20.070664	-1.393553	-1.674100	2.947914	2.045017	-5.185796	0.200073	-0.018860	-0.019043	0.999502	0.014737	0.010223	-0.025925	
19986	    0	19.821750	-5.128288	-4.502382	2.840859	1.586013	-5.121826	0.196460	-0.055668	-0.047357	0.999539	0.014202	0.007929	-0.025605	
19987	    0	18.363437	-9.191437	-5.300425	2.808791	1.197418	-5.078105	0.180908	-0.095764	-0.055420	0.999560	0.014042	0.005986	-0.025387	
19988	    0	16.506021	-9.849322	-5.726663	2.951671	0.887809	-5.046817	0.162259	-0.101745	-0.059477	0.999562	0.014756	0.004438	-0.025230	
19989	    0	14.952051	-10.101118	-6.394426	2.818112	0.544813	-4.965127	0.146790	-0.103760	-0.065796	0.999588	0.014089	0.002724	-0.024822	
19990	    0	14.049075	-9.203826	-7.777772	2.762769	0.161955	-4.826405	0.138169	-0.094304	-0.079183	0.999613	0.013812	0.000810	-0.024129	
19991	    0	13.358905	-8.743163	-7.716533	2.311202	-0.009729	-4.639954	0.131531	-0.089600	-0.078186	0.999663	0.011555	-0.000049	-0.023197	
19992	    0	12.529068	-6.633566	-6.142688	1.658400	-0.017358	-4.364029	0.123816	-0.068536	-0.061978	0.999727	0.008291	-0.000087	-0.021818	
19993	    0	13.768516	-3.723530	-4.593566	1.239290	0.128946	-3.882105	0.136902	-0.039612	-0.046265	0.999792	0.006196	0.000645	-0.019409	
19994	    0	16.040045	-3.549027	-3.766767	1.215422	0.194941	-3.203931	0.159770	-0.037823	-0.038049	0.999852	0.006077	0.000975	-0.016019	
19995	    0	14.780702	-5.803917	-4.920571	1.485498	-0.196655	-2.576542	0.147095	-0.059570	-0.049500	0.999888	0.007427	-0.000983	-0.012882	
19996	    0	9.950515	-5.572274	-5.380967	1.502838	-0.398646	-1.892709	0.099082	-0.056256	-0.054033	0.999925	0.007514	-0.001993	-0.009463	
19997	    0	6.240083	-4.320064	-4.577422	1.343744	-0.337223	-1.029218	0.062256	-0.043213	-0.045959	0.999962	0.006719	-0.001686	-0.005146	
19998	    0	4.648010	-1.598095	-3.561404	0.948910	-0.172997	-0.254632	0.046491	-0.015871	-0.035649	0.999987	0.004745	-0.000865	-0.001273	
19999	    0	3.293530	-0.955461	-2.921236	0.488282	0.002480	0.508882	0.032959	-0.009399	-0.029236	0.999993	0.002441	0.000012	0.002544	
20000	    0	1.631160	-2.117854	-2.971522	0.167276	0.137712	1.352321	0.016434	-0.021043	-0.029744	0.999976	0.000836	0.000689	0.006762	
20001	    0	0.647348	-2.961128	-2.996608	-0.028802	0.193028	2.234697	0.006775	-0.029541	-0.029968	0.999937	-0.000144	0.000965	0.011173	
20002	    0	0.125626	-2.541734	-3.158212	-0.190743	0.148779	3.116162	0.001629	-0.025424	-0.031559	0.999877	-0.000954	0.000744	0.015580	
20003	    0	0.116412	-1.602750	-3.109288	-0.333236	0.109871	3.961443	0.001465	-0.016052	-0.031067	0.999802	-0.001666	0.000549	0.019806	
20004	    0	0.428080	-0.343324	-3.242543	-0.581989	0.040821	4.797258	0.004356	-0.003424	-0.032416	0.999707	-0.002910	0.000204	0.023984	
20005	    0	1.050997	-0.609004	-3.261746	-0.782880	-0.024227	5.595379	0.010681	-0.005920	-0.032593	0.999600	-0.003914	-0.000121	0.027973	
20006	    0	1.834435	-1.663287	-3.090857	-0.787297	-0.159291	6.343587	0.018887	-0.016161	-0.030829	0.999489	-0.003936	-0.000796	0.031713	
20007	    0	2.952281	-2.609572	-3.143790	-0.633369	-0.306573	6.955610	0.030457	-0.025146	-0.031311	0.999389	-0.003166	-0.001533	0.034771	
20008	    0	4.956190	-3.276493	-2.782108	-0.482671	-0.464165	7.420730	0.050797	-0.030962	-0.027628	0.999306	-0.002413	-0.002320	0.037095	
20009	    0	7.127381	-3.748066	-2.318425	-0.332729	-0.655346	7.889332	0.072754	-0.034668	-0.022888	0.999215	-0.001663	-0.003276	0.039436	
20010	    0	9.296214	-4.042305	-2.172227	-0.435384	-0.835281	8.310451	0.094625	-0.036560	-0.021247	0.999125	-0.002176	-0.004175	0.041540	
20011	    0	11.478085	-4.597787	-1.590458	-0.595090	-0.999003	8.628518	0.116699	-0.041016	-0.015198	0.999052	-0.002975	-0.004993	0.043129	
20012	    0	13.699513	-5.248881	-1.382007	-0.662643	-1.211953	8.845231	0.139217	-0.046407	-0.012820	0.998998	-0.003312	-0.006058	0.044211	
20013	    0	15.716537	-5.012092	-0.451197	-0.679254	-1.416321	9.035606	0.159241	-0.042969	-0.003235	0.998948	-0.003395	-0.007079	0.045162	
20014	    0	17.771302	-4.637291	-0.755247	-0.457743	-1.691876	9.291868	0.179666	-0.038069	-0.005944	0.998882	-0.002288	-0.008456	0.046442	
20015	    0	20.799755	-3.207426	0.999786	-0.276865	-1.848568	9.544319	0.209106	-0.022095	0.011963	0.998817	-0.001384	-0.009239	0.047703	
20016	    0	23.686095	-1.122994	2.733488	0.017173	-2.018611	9.710477	0.236742	0.000267	0.029725	0.998770	0.000086	-0.010089	0.048532	
20017	    0	26.807807	0.645772	4.438107	0.563284	-2.153720	9.741449	0.266846	0.019348	0.047302	0.998752	0.002815	-0.010764	0.048687	
20018	    0	30.254090	2.513688	3.337702	1.411849	-2.232741	9.766357	0.300443	0.039594	0.036985	0.998720	0.007056	-0.011159	0.048811	
20019	    0	35.519420	7.220635	1.357755	1.936408	-2.018650	9.752259	0.350952	0.089233	0.017944	0.998713	0.009678	-0.010089	0.048740	
20020	    0	41.409829	17.375694	0.357984	1.704714	-1.650715	9.560253	0.405113	0.193212	0.008541	0.998787	0.008520	-0.008250	0.047782	
20021	    0	41.638638	26.592979	0.282306	1.267727	-1.401102	9.389269	0.403259	0.285034	0.007446	0.998853	0.006336	-0.007003	0.046928	
20022	    0	39.246109	25.635310	-2.197529	1.502726	-1.277584	8.698867	0.380940	0.273235	-0.017506	0.999005	0.007511	-0.006386	0.043480	
20023	    0	36.471633	27.615987	-3.491081	2.551148	-1.275002	7.225327	0.354614	0.289490	-0.028992	0.999246	0.012753	-0.006373	0.036118	
20024	    0	29.722252	34.879232	-6.517079	3.314594	-1.213285	5.409227	0.287992	0.357661	-0.057526	0.999478	0.016570	-0.006065	0.027041	
20025	    0	23.564716	45.719756	-6.254969	2.783646	-1.155195	3.559435	0.227783	0.462097	-0.054810	0.999727	0.013917	-0.005775	0.017796	
20026	    0	15.297853	60.571357	2.509053	1.415679	-0.919371	2.165481	0.146279	0.607121	0.030067	0.999906	0.007078	-0.004597	0.010827	
20027	    0	9.511455	58.658393	1.875751	-0.090790	-0.652887	0.423432	0.093811	0.586792	0.018799	0.999991	-0.000454	-0.003264	0.002117	
20028	    0	9.828719	38.502218	-2.969751	-0.481229	-0.328067	-1.405539	0.101039	0.384246	-0.030458	0.999970	-0.002406	-0.001640	-0.007028	
20029	    0	13.152360	25.198604	-1.801027	0.405328	-0.251017	-3.105291	0.135437	0.249939	-0.017334	0.999876	0.002027	-0.001255	-0.015526	
20030	    0	10.543701	27.813658	1.634952	0.942876	-0.316072	-4.208320	0.111229	0.275755	0.017826	0.999765	0.004714	-0.001580	-0.021040	
20031	    0	13.404713	23.743747	1.092362	0.401343	-0.469061	-4.680305	0.139526	0.234192	0.011719	0.999721	0.002007	-0.002345	-0.023399	
20032	    0	15.504467	13.918876	-0.734068	-0.489096	-0.439309	-5.018579	0.158487	0.135222	-0.007329	0.999680	-0.002445	-0.002196	-0.025090	
20033	    0	11.670853	18.708104	-27.011696	1.185258	-1.952728	-6.306114	0.125183	0.184814	-0.267822	0.999437	0.005925	-0.009762	-0.031525	
20034	    0	43.696177	34.105639	-19.044185	4.594503	0.171538	-8.533194	0.450937	0.326276	-0.183214	0.998825	0.022964	0.000857	-0.042649	
20035	    0	63.200358	9.700767	33.605396	5.839143	-0.357791	-8.657197	0.634521	0.059692	0.339294	0.998635	0.029182	-0.001788	-0.043266	
20036	    0	9.661441	18.157729	7.183247	5.984878	-2.894081	-6.319163	0.101133	0.176144	0.078601	0.998948	0.029914	-0.014465	-0.031585	
20037	    0	4.219905	22.471656	12.673676	2.766391	-1.079772	-6.197814	0.048401	0.221497	0.130066	0.999409	0.013829	-0.005398	-0.030983	
20038	    0	5.367266	14.442670	-1.531811	0.521916	-1.262823	-5.313777	0.057578	0.142970	-0.014588	0.999623	0.002609	-0.006313	-0.026566	
20039	    0	4.453864	19.291126	-1.308914	0.393897	-0.839297	-4.152230	0.048584	0.191956	-0.012512	0.999773	0.001969	-0.004196	-0.020760	
20040	    0	8.662750	7.986720	-1.981233	-1.128065	-0.226414	-3.343566	0.087968	0.078291	-0.020158	0.999844	-0.005640	-0.001132	-0.016717	
20041	    0	14.522393	4.127594	-6.788923	-0.232704	-0.340091	-2.679525	0.145874	0.039246	-0.067688	0.999907	-0.001163	-0.001700	-0.013397	
20042	    0	18.377370	11.168625	-5.383611	-0.404751	-0.352869	-2.514145	0.185252	0.109255	-0.053733	0.999917	-0.002024	-0.001764	-0.012570	
20043	    0	18.377590	7.072552	-2.752902	-0.871101	-0.397498	-1.776153	0.184448	0.068970	-0.027466	0.999949	-0.004355	-0.001987	-0.008881	
20044	    0	22.466849	5.277780	-3.662088	-1.471355	-0.133326	-1.433779	0.225062	0.050895	-0.036850	0.999947	-0.007357	-0.000667	-0.007169	
20045	    0	30.541184	3.262414	-2.417354	-1.810492	0.012398	-1.234461	0.305603	0.030518	-0.024475	0.999940	-0.009052	0.000062	-0.006172	
20046	    0	33.375023	-1.266363	-0.731880	-2.203241	0.041009	-1.413767	0.333648	-0.015102	-0.007230	0.999914	-0.011016	0.000205	-0.007069	
20047	    0	28.915397	-2.715501	0.196304	-3.060299	0.140578	-1.504590	0.288940	-0.029297	0.002197	0.999854	-0.015301	0.000703	-0.007523	
20048	    0	26.791330	-3.787381	1.021561	-3.940111	0.257702	-1.482692	0.267637	-0.039652	0.010640	0.999777	-0.019699	0.001288	-0.007413	
20049	    0	24.914243	-3.248045	2.459266	-4.667358	0.274876	-1.291783	0.248962	-0.033508	0.025024	0.999705	-0.023335	0.001374	-0.006458	
20050	    0	20.110783	-6.412876	4.638935	-6.172419	0.241891	-0.888969	0.200882	-0.063555	0.048114	0.999513	-0.030857	0.001209	-0.004444	
20051	    0	13.565712	-12.143198	3.820735	-7.227377	0.216150	-0.337293	0.135498	-0.120178	0.042419	0.999345	-0.036129	0.001081	-0.001686	
20052	    0	10.100995	-15.633076	0.212664	-6.777917	0.085466	-0.064862	0.100962	-0.156173	0.007379	0.999425	-0.033883	0.000427	-0.000324	
20053	    0	13.670845	-12.257136	-2.491447	-4.872616	0.261142	-0.231957	0.136536	-0.123291	-0.022095	0.999701	-0.024361	0.001306	-0.001160	
20054	    0	16.965608	-5.630201	2.472269	-3.189232	0.594357	-0.619535	0.169556	-0.056429	0.025118	0.999864	-0.015945	0.002972	-0.003098	
20055	    0	13.057846	7.894832	-1.959464	-3.211178	0.594359	-1.030782	0.130920	0.077942	-0.021240	0.999853	-0.016055	0.002972	-0.005154	
20056	    0	12.369481	7.656022	-4.978010	-3.581468	1.041288	-1.217539	0.123888	0.074891	-0.051776	0.999807	-0.017906	0.005206	-0.006087	
20057	    0	11.314666	4.328744	-5.782769	-3.872816	1.432158	-1.783903	0.113098	0.041138	-0.059448	0.999746	-0.019362	0.007160	-0.008919	
20058	    0	15.182271	7.765923	-7.119537	-3.112857	1.466680	-2.793350	0.152344	0.074402	-0.073486	0.999754	-0.015563	0.007333	-0.013966	
20059	    0	15.246328	11.435791	-9.801238	-2.807484	1.299591	-3.408924	0.153719	0.110345	-0.100576	0.999734	-0.014036	0.006497	-0.017043	
20060	    0	15.092896	5.105569	-9.809153	-2.717818	1.407550	-3.274810	0.151025	0.047235	-0.099813	0.999748	-0.013588	0.007037	-0.016373	
20061	    0	14.149899	-0.115277	-7.727105	-2.622251	1.792294	-3.145861	0.140747	-0.004395	-0.078491	0.999750	-0.013110	0.008961	-0.015728	
20062	    0	14.658649	-1.917021	-7.225841	-1.968546	2.138695	-3.357973	0.145447	-0.022339	-0.073608	0.999753	-0.009842	0.010693	-0.016788	
20063	    0	15.898736	-6.396907	-7.335760	-1.295956	2.323145	-3.474322	0.156976	-0.067189	-0.074760	0.999759	-0.006479	0.011615	-0.017370	
20064	    0	16.109180	-10.004133	-5.821641	-0.251982	2.459158	-3.712390	0.158466	-0.103074	-0.060047	0.999751	-0.001260	0.012295	-0.018560	
20065	    0	16.269328	-10.762698	-3.788605	0.905700	2.362489	-4.217191	0.159912	-0.110840	-0.040283	0.999698	0.004528	0.011811	-0.021084	
20066	    0	16.798110	-9.856770	-2.941721	1.940597	2.158063	-4.760596	0.165239	-0.102220	-0.032190	0.999611	0.009702	0.010789	-0.023800	
20067	    0	19.257158	-7.499878	-1.732323	2.608342	2.138104	-5.261324	0.190308	-0.079773	-0.020386	0.999512	0.013040	0.010689	-0.026302	
20068	    0	22.476684	-3.349757	-0.498574	2.830837	2.085117	-5.650991	0.223631	-0.039730	-0.007854	0.999446	0.014152	0.010424	-0.028250	
20069	    0	23.146469	-0.628552	-1.448812	2.581679	1.762707	-5.775727	0.231018	-0.012756	-0.016663	0.999460	0.012906	0.008812	-0.028873	
20070	    0	21.777472	-3.956925	-3.168854	1.934932	1.425207	-5.697395	0.216301	-0.045426	-0.033654	0.999521	0.009673	0.007125	-0.028482	
20071	    0	20.491897	-8.868514	-4.091572	1.620905	1.105657	-5.504628	0.202148	-0.093933	-0.042786	0.999573	0.008103	0.005527	-0.027519	
20072	    0	18.414920	-10.976801	-4.967876	1.593232	0.850983	-5.391275	0.180893	-0.114269	-0.051352	0.999596	0.007965	0.004254	-0.026953	
20073	    0	16.155227	-10.259613	-6.932281	1.639961	0.543284	-5.316091	0.158569	-0.106262	-0.070618	0.999609	0.008199	0.002716	-0.026577	
20074	    0	14.606637	-9.708433	-8.676739	1.644334	0.242644	-5.136732	0.143415	-0.100072	-0.087757	0.999635	0.008221	0.001213	-0.025681	
20075	    0	12.889708	-8.587111	-8.334143	1.339294	0.088511	-4.911572	0.126709	-0.088440	-0.083984	0.999676	0.006696	0.000443	-0.024555	
20076	    0	11.336359	-5.048316	-7.792912	1.070505	-0.107012	-4.637775	0.112201	-0.052676	-0.078147	0.999716	0.005352	-0.000535	-0.023187	
20077	    0	10.919391	-2.768012	-6.453310	0.577779	-0.189223	-4.210980	0.108643	-0.029785	-0.064514	0.999773	0.002889	-0.000946	-0.021053	
20078	    0	12.692491	-3.325637	-3.469120	0.140579	0.049784	-3.590968	0.126292	-0.035503	-0.034747	0.999838	0.000703	0.000249	-0.017954	
20079	    0	14.460970	-4.908097	-2.198442	0.563071	0.040628	-2.954213	0.143860	-0.051147	-0.022156	0.999887	0.002815	0.000203	-0.014771	
20080	    0	12.997262	-7.725380	-2.931839	1.103051	-0.251396	-2.338094	0.129096	-0.078604	-0.029587	0.999915	0.005515	-0.001257	-0.011690	
20081	    0	7.659047	-8.284444	-3.774780	1.515228	-0.443086	-1.505309	0.076050	-0.083130	-0.038208	0.999940	0.007576	-0.002215	-0.007526	
20082	    0	3.397157	-5.595391	-3.492561	1.622793	-0.371938	-0.547988	0.033884	-0.055761	-0.035316	0.999961	0.008114	-0.001860	-0.002740	
20083	    0	1.482189	-2.366186	-2.829361	1.375020	-0.173189	0.392154	0.014893	-0.023438	-0.028442	0.999973	0.006875	-0.000866	0.001961	
20084	    0	-0.080643	-1.548524	-2.180464	1.042760	0.020600	1.298919	-0.000709	-0.015376	-0.021885	0.999965	0.005214	0.000103	0.006495	
20085	    0	-1.149930	-1.972214	-1.811644	0.811787	0.143627	2.235465	-0.011292	-0.019775	-0.018188	0.999928	0.004059	0.000718	0.011177	
20086	    0	-1.626135	-2.259379	-2.131935	0.664167	0.155265	3.129139	-0.015923	-0.022774	-0.021382	0.999871	0.003321	0.000776	0.015645	
20087	    0	-1.696035	-2.153374	-2.771873	0.571481	0.116929	4.017915	-0.016541	-0.021790	-0.027771	0.999793	0.002857	0.000585	0.020088	
20088	    0	-1.427091	-1.831161	-3.491127	0.419849	0.093088	4.880821	-0.013836	-0.018579	-0.034944	0.999700	0.002099	0.000465	0.024402	
20089	    0	-0.895384	-1.058109	-3.771627	0.142880	0.096143	5.684665	-0.008667	-0.010803	-0.037720	0.999596	0.000714	0.000481	0.028419	
20090	    0	0.093572	-0.991775	-3.697816	-0.128577	0.044640	6.418186	0.001245	-0.009905	-0.036972	0.999484	-0.000643	0.000223	0.032085	
20091	    0	0.958126	-2.065310	-3.389452	-0.163875	-0.064863	7.072398	0.010315	-0.020325	-0.033875	0.999374	-0.000819	-0.000324	0.035355	
20092	    0	2.565171	-3.068237	-3.061730	-0.070398	-0.176663	7.577421	0.026816	-0.029692	-0.030583	0.999282	-0.000352	-0.000883	0.037878	
20093	    0	5.241517	-3.464467	-2.650831	-0.020605	-0.287513	7.934365	0.053772	-0.032532	-0.026428	0.999211	-0.000103	-0.001437	0.039661	
20094	    0	7.652964	-3.295335	-1.976212	-0.171329	-0.397606	8.289237	0.077847	-0.029761	-0.019582	0.999139	-0.000856	-0.001987	0.041434	
20095	    0	9.960046	-3.621256	-1.487583	-0.555402	-0.510565	8.611690	0.101074	-0.031921	-0.014526	0.999065	-0.002776	-0.002552	0.043045	
20096	    0	12.023626	-4.267230	-1.025571	-0.828257	-0.716258	8.886062	0.122009	-0.037317	-0.009659	0.998998	-0.004140	-0.003580	0.044415	
20097	    0	14.347979	-4.537165	-0.869879	-1.048459	-0.927300	9.111197	0.145386	-0.038818	-0.007812	0.998938	-0.005240	-0.004635	0.045540	
20098	    0	16.892015	-4.024083	-0.233216	-1.124415	-1.195776	9.262066	0.170550	-0.032374	-0.001119	0.998894	-0.005620	-0.005977	0.046293	
20099	    0	19.667519	-1.630876	0.017196	-1.236438	-1.434688	9.422113	0.197144	-0.007019	0.001648	0.998845	-0.006180	-0.007171	0.047092	
20100	    0	21.547135	-0.521268	2.192441	-1.040675	-1.735795	9.481328	0.215191	0.005116	0.023785	0.998825	-0.005201	-0.008676	0.047388	
20101	    0	22.696547	0.350967	2.908692	-0.185467	-2.134583	9.434373	0.226135	0.014221	0.031494	0.998830	-0.000927	-0.010669	0.047153	
20102	    0	24.398876	2.730541	2.826120	0.987633	-2.308420	9.397969	0.242003	0.038562	0.031235	0.998816	0.004936	-0.011538	0.046971	
20103	    0	27.934175	6.963555	1.799407	2.174688	-2.172208	9.381861	0.275452	0.082397	0.021851	0.998781	0.010869	-0.010857	0.046890	
20104	    0	34.077875	15.010929	-0.898190	2.849974	-1.831990	9.275199	0.333381	0.165766	-0.003616	0.998781	0.014244	-0.009156	0.046357	
20105	    0	41.445069	25.963331	-2.981133	2.554540	-1.545355	9.126736	0.402222	0.278503	-0.023193	0.998847	0.012768	-0.007724	0.045616	
20106	    0	39.629398	29.921013	-2.750000	2.159871	-1.408877	8.769418	0.382833	0.316450	-0.021415	0.998956	0.010796	-0.007042	0.043832	
20107	    0	37.806052	28.197000	-2.393282	2.839926	-1.390486	7.794962	0.366821	0.296692	-0.017212	0.999115	0.014195	-0.006950	0.038963	
20108	    0	34.319811	33.130759	-3.044715	3.804106	-1.248258	6.146474	0.332948	0.342117	-0.021908	0.999327	0.019016	-0.006240	0.030725	
20109	    0	28.181291	39.094489	-6.991338	3.638173	-1.084088	4.132622	0.273987	0.397827	-0.061218	0.999606	0.018188	-0.005420	0.020660	
20110	    0	20.673143	44.359602	-8.820800	2.974900	-1.101758	2.454732	0.201714	0.447328	-0.080452	0.999799	0.014874	-0.005508	0.012273	
20111	    0	12.888499	53.868702	-2.634745	1.747933	-1.005386	1.143672	0.125916	0.539612	-0.020996	0.999932	0.008739	-0.005027	0.005718	
20112	    0	8.152552	49.695219	0.495887	0.198556	-0.765612	-0.430109	0.082573	0.496770	0.005767	0.999990	0.000993	-0.003828	-0.002151	
20113	    0	9.220726	32.869082	-1.346304	-0.201420	-0.515566	-2.072946	0.095642	0.327698	-0.013550	0.999942	-0.001007	-0.002578	-0.010365	
20114	    0	15.423499	21.796499	-0.451786	0.149162	-0.459311	-3.327908	0.157843	0.215362	-0.003997	0.999858	0.000746	-0.002296	-0.016639	
20115	    0	13.156926	21.939444	0.638083	0.081641	-0.634625	-4.306370	0.136230	0.216492	0.006897	0.999763	0.000408	-0.003173	-0.021530	
20116	    0	12.450419	20.874259	-4.964370	-0.305780	-0.623386	-4.939019	0.129761	0.205505	-0.049561	0.999688	-0.001529	-0.003117	-0.024693	
20117	    0	17.481429	33.722025	-28.976144	1.251296	-1.865784	-6.785502	0.188836	0.332768	-0.285952	0.999359	0.006255	-0.009327	-0.033920	
20118	    0	63.708080	32.968856	5.491994	2.546859	1.097889	-8.942246	0.651245	0.300072	0.055318	0.998904	0.012730	0.005487	-0.044695	
20119	    0	46.027403	3.332556	27.141262	4.843256	-1.813168	-7.393102	0.458435	0.009705	0.276001	0.998982	0.024208	-0.009063	-0.036953	
20120	    0	3.602515	8.600992	8.078997	4.605773	-2.208924	-6.219635	0.037727	0.082957	0.083135	0.999190	0.023023	-0.011042	-0.031090	
20121	    0	3.643162	13.587994	9.047332	2.966349	-1.282003	-6.255870	0.040039	0.133301	0.092712	0.999380	0.014829	-0.006409	-0.031273	
20122	    0	9.913366	17.318197	-2.237195	1.323300	-1.264546	-5.283472	0.103798	0.170621	-0.020591	0.999609	0.006616	-0.006322	-0.026414	
20123	    0	5.176001	16.009888	-2.128225	0.411448	-0.974351	-4.235413	0.055237	0.158997	-0.020691	0.999762	0.002057	-0.004871	-0.021175	
20124	    0	7.557697	5.846952	-3.659353	-1.131881	-0.588067	-3.340518	0.076645	0.056988	-0.036695	0.999840	-0.005659	-0.002940	-0.016702	
20125	    0	13.376599	7.079606	-10.208028	-0.515574	-0.309764	-2.777956	0.134888	0.068665	-0.102051	0.999899	-0.002578	-0.001549	-0.013889	
20126	    0	16.835607	10.843479	-7.625749	-1.040297	-0.328455	-2.355069	0.169740	0.106044	-0.076535	0.999915	-0.005201	-0.001642	-0.011775	
20127	    0	20.008608	2.805064	-4.735552	-1.088543	-0.259404	-1.728851	0.200378	0.026062	-0.047241	0.999947	-0.005443	-0.001297	-0.008644	
20128	    0	25.081458	5.515262	-4.199341	-1.563865	-0.010300	-1.476126	0.251213	0.052969	-0.042400	0.999942	-0.007819	-0.000051	-0.007380	
20129	    0	32.413304	2.268166	-2.196634	-1.683843	0.083353	-1.489289	0.324280	0.020081	-0.022278	0.999936	-0.008419	0.000417	-0.007446	
20130	    0	30.130393	-1.696194	0.250111	-2.164524	0.125889	-1.572656	0.301160	-0.019303	0.002512	0.999909	-0.010822	0.000629	-0.007863	
20131	    0	27.427029	-4.408150	1.446479	-2.900639	0.302138	-1.614455	0.273926	-0.046082	0.014709	0.999861	-0.014503	0.001511	-0.008072	
20132	    0	25.675306	-3.931062	1.904707	-3.537396	0.349829	-1.476570	0.256489	-0.040865	0.019312	0.999814	-0.017686	0.001749	-0.007382	
20133	    0	23.370659	-4.515304	2.857882	-4.212527	0.209253	-1.214697	0.233459	-0.045959	0.029297	0.999759	-0.021061	0.001046	-0.006073	
20134	    0	17.323618	-7.185085	4.032768	-5.623430	0.081836	-0.826756	0.172957	-0.071396	0.042269	0.999596	-0.028113	0.000409	-0.004133	
20135	    0	12.601352	-12.689826	2.065169	-6.068592	-0.069247	-0.334982	0.125793	-0.126404	0.024536	0.999537	-0.030338	-0.000346	-0.001675	
20136	    0	12.411445	-13.242953	-1.052782	-5.118168	-0.100338	-0.302920	0.123918	-0.132828	-0.007070	0.999671	-0.025588	-0.000502	-0.001514	
20137	    0	17.724218	-11.097091	-0.340623	-3.701998	0.271050	-0.426508	0.177002	-0.111389	-0.001587	0.999825	-0.018509	0.001355	-0.002132	
20138	    0	16.522253	-0.381967	-0.435711	-3.685791	0.488883	-0.782060	0.165195	-0.004550	-0.004682	0.999819	-0.018428	0.002444	-0.003910	
20139	    0	13.604461	4.550701	-3.490004	-3.760768	0.488503	-0.949920	0.136169	0.044189	-0.036072	0.999808	-0.018803	0.002442	-0.004749	
20140	    0	12.325437	6.331686	-2.261276	-4.271480	0.701962	-1.076597	0.123507	0.062144	-0.024382	0.999751	-0.021356	0.003510	-0.005383	
20141	    0	13.599887	9.357592	-0.317281	-4.893127	1.151414	-1.882398	0.136841	0.092163	-0.006226	0.999640	-0.024463	0.005756	-0.009411	
20142	    0	16.800972	18.222329	-1.674810	-5.065351	1.333630	-2.997281	0.170573	0.179159	-0.022444	0.999544	-0.025323	0.006667	-0.014984	
20143	    0	17.323854	14.617802	-6.333845	-4.923067	1.436077	-3.367380	0.175171	0.141602	-0.068115	0.999529	-0.024611	0.007179	-0.016834	
20144	    0	16.664993	3.636006	-7.672947	-4.232738	1.680582	-2.982126	0.166494	0.032223	-0.078840	0.999629	-0.021161	0.008402	-0.014909	
20145	    0	14.512608	-3.305053	-6.873006	-3.564631	2.047941	-2.813249	0.143921	-0.036316	-0.069580	0.999689	-0.017821	0.010239	-0.014065	
20146	    0	14.430413	-8.596914	-6.608254	-2.264805	2.606633	-3.211510	0.142022	-0.089017	-0.066947	0.999722	-0.011323	0.013032	-0.016056	
20147	    0	16.891934	-7.664374	-6.047063	-0.177591	3.019230	-3.600643	0.166565	-0.079712	-0.062927	0.999723	-0.000888	0.015095	-0.018002	
20148	    0	18.966815	-9.916222	-7.205952	1.452610	2.970458	-4.012751	0.186530	-0.102386	-0.075582	0.999661	0.007262	0.014851	-0.020061	
20149	    0	18.429775	-11.782497	-8.094244	2.505292	2.701968	-4.683615	0.180359	-0.121033	-0.084900	0.999556	0.012525	0.013508	-0.023415	
20150	    0	19.381200	-13.542993	-2.600070	2.501182	2.884248	-5.414618	0.189640	-0.140240	-0.030490	0.999451	0.012504	0.014419	-0.027068	
20151	    0	20.906614	-7.609149	-0.883216	2.856302	2.680216	-6.062870	0.206482	-0.082214	-0.012756	0.999349	0.014278	0.013398	-0.030308	
20152	    0	23.894240	-2.847968	-0.775151	3.531145	2.336672	-6.223049	0.237789	-0.035715	-0.011123	0.999291	0.017652	0.011681	-0.031108	
20153	    0	23.950426	-3.385306	-2.439823	3.244939	1.893278	-6.311691	0.238037	-0.040955	-0.027283	0.999325	0.016221	0.009464	-0.031551	
20154	    0	22.760688	-5.557129	-3.957579	2.306994	1.552685	-6.141872	0.225448	-0.062042	-0.042023	0.999432	0.011533	0.007762	-0.030704	
20155	    0	20.851822	-9.941195	-5.245544	1.550726	1.210974	-5.802299	0.205200	-0.104980	-0.054504	0.999531	0.007752	0.006054	-0.029007	
20156	    0	17.054999	-12.306668	-6.511758	1.260933	0.977271	-5.555545	0.166729	-0.127316	-0.066732	0.999582	0.006304	0.004886	-0.027774	
20157	    0	14.431493	-12.743849	-8.474761	1.391021	0.713633	-5.385914	0.140519	-0.130661	-0.086155	0.999606	0.006954	0.003568	-0.026926	
20158	    0	13.236325	-12.032023	-10.157076	1.606187	0.443704	-5.197789	0.128964	-0.122879	-0.102839	0.999627	0.008030	0.002218	-0.025986	
20159	    0	11.847210	-9.213518	-8.717941	1.542273	0.294529	-5.073381	0.115967	-0.094421	-0.088074	0.999647	0.007710	0.001472	-0.025364	
20160	    0	9.216060	-3.542206	-7.546120	1.386218	-0.088510	-4.859679	0.091306	-0.037124	-0.075674	0.999681	0.006930	-0.000443	-0.024296	
20161	    0	6.894798	-1.133265	-5.969802	0.872112	-0.347738	-4.359797	0.068787	-0.012573	-0.059631	0.999751	0.004360	-0.001739	-0.021797	
20162	    0	7.379663	-0.701883	-2.894896	0.323124	-0.283448	-3.702378	0.073691	-0.008337	-0.028857	0.999825	0.001616	-0.001417	-0.018511	
20163	    0	9.890678	-2.710001	-1.613059	0.399985	-0.148779	-2.910719	0.098511	-0.028503	-0.016113	0.999891	0.002000	-0.000744	-0.014553	
20164	    0	10.353112	-6.419682	-2.581699	0.942632	-0.337417	-2.045294	0.102912	-0.065129	-0.025949	0.999935	0.004713	-0.001687	-0.010226	
20165	    0	8.272703	-8.183113	-3.651007	1.268214	-0.547798	-1.197832	0.082336	-0.082092	-0.036804	0.999958	0.006341	-0.002739	-0.005989	
20166	    0	4.889716	-7.733632	-4.639817	1.530474	-0.623710	-0.259784	0.048943	-0.077043	-0.046836	0.999965	0.007652	-0.003119	-0.001299	
20167	    0	1.995057	-4.488934	-3.887166	1.355949	-0.506597	0.685890	0.020203	-0.044556	-0.039124	0.999968	0.006780	-0.002533	0.003429	
20168	    0	-0.307386	-1.140070	-3.145210	0.966278	-0.369459	1.671627	-0.002921	-0.011273	-0.031512	0.999950	0.004831	-0.001847	0.008358	
20169	    0	-1.823154	-0.133374	-2.506539	0.397694	-0.188452	2.658924	-0.018188	-0.001526	-0.025085	0.999908	0.001988	-0.000942	0.013294	
20170	    0	-2.568824	-0.912885	-1.931197	-0.083356	-0.112349	3.590014	-0.025508	-0.009596	-0.019322	0.999838	-0.000417	-0.000562	0.017949	
20171	    0	-2.332780	-2.705075	-1.967641	-0.269912	-0.121317	4.456700	-0.022705	-0.027588	-0.019653	0.999750	-0.001349	-0.000607	0.022282	
20172	    0	-1.784607	-3.934834	-2.372174	-0.144785	-0.201058	5.279774	-0.016775	-0.039818	-0.023710	0.999650	-0.000724	-0.001005	0.026396	
20173	    0	-0.941878	-3.575342	-2.628895	0.038153	-0.238646	6.048745	-0.008301	-0.036011	-0.026306	0.999541	0.000191	-0.001193	0.030239	
20174	    0	0.319737	-2.327482	-3.063299	0.130106	-0.296077	6.786507	0.004029	-0.023128	-0.030643	0.999423	0.000650	-0.001480	0.033926	
20175	    0	1.575968	-1.666025	-3.170213	0.052846	-0.360190	7.402207	0.016418	-0.016052	-0.031677	0.999313	0.000264	-0.001801	0.037003	
20176	    0	2.807837	-2.824667	-3.033515	0.028427	-0.454831	7.920626	0.029236	-0.027100	-0.030273	0.999213	0.000142	-0.002274	0.039593	
20177	    0	4.819257	-4.335848	-2.196051	0.141185	-0.530206	8.325130	0.049998	-0.041286	-0.021859	0.999129	0.000706	-0.002650	0.041614	
20178	    0	7.426223	-4.078005	-1.421592	0.112950	-0.620464	8.643184	0.075974	-0.037513	-0.014004	0.999061	0.000565	-0.003101	0.043202	
20179	    0	9.994703	-3.446723	-0.772062	-0.260059	-0.704429	8.934725	0.101379	-0.029968	-0.007324	0.998995	-0.001300	-0.003521	0.044659	
20180	    0	12.337908	-3.847379	-0.450457	-0.609997	-0.913947	9.198808	0.124992	-0.032761	-0.003830	0.998927	-0.003049	-0.004568	0.045978	
20181	    0	14.695646	-4.586210	0.418424	-0.961665	-1.086644	9.387684	0.148865	-0.038879	0.005188	0.998872	-0.004807	-0.005431	0.046921	
20182	    0	17.124917	-4.591453	0.023224	-0.979612	-1.427631	9.484149	0.173160	-0.037725	0.001662	0.998837	-0.004896	-0.007135	0.047402	
20183	    0	20.043619	-3.237100	0.166481	-0.919523	-1.744785	9.650507	0.201660	-0.022644	0.003540	0.998787	-0.004596	-0.008720	0.048233	
20184	    0	23.237186	-1.110250	1.573822	-0.837485	-2.015384	9.775624	0.232368	0.000331	0.018095	0.998746	-0.004186	-0.010073	0.048858	
20185	    0	25.675841	1.568695	2.849919	-0.434101	-2.286711	9.681887	0.255249	0.028137	0.031372	0.998760	-0.002170	-0.011429	0.048389	
20186	    0	27.438676	4.481100	2.122888	0.344417	-2.521589	9.556277	0.271534	0.057794	0.024757	0.998777	0.001721	-0.012603	0.047762	
20187	    0	30.805542	7.522623	1.356504	1.214342	-2.491080	9.601774	0.303772	0.089783	0.017883	0.998752	0.006069	-0.012450	0.047989	
20188	    0	36.628013	15.111010	1.219022	1.554362	-2.201026	9.532248	0.358360	0.168199	0.017427	0.998774	0.007769	-0.011001	0.047642	
20189	    0	41.233720	26.931469	2.163411	0.931145	-1.846835	9.393116	0.398865	0.288147	0.026672	0.998843	0.004654	-0.009231	0.046947	
20190	    0	39.096129	30.254555	4.440281	0.258156	-1.436169	9.094401	0.376343	0.319824	0.047546	0.998940	0.001290	-0.007178	0.045456	
20191	    0	39.304189	27.732278	4.107776	0.585525	-1.153497	7.975077	0.381328	0.292561	0.044142	0.999184	0.002927	-0.005766	0.039865	
20192	    0	34.210676	28.733327	0.538716	1.809461	-0.972549	6.400360	0.332643	0.298006	0.009685	0.999434	0.009046	-0.004862	0.031996	
20193	    0	29.016563	32.464794	-7.452170	2.476962	-0.902656	4.384328	0.283264	0.331787	-0.069153	0.999672	0.012383	-0.004513	0.021919	
20194	    0	22.377478	43.293096	-7.279446	2.408545	-1.022206	2.591280	0.218484	0.436610	-0.066425	0.999830	0.012042	-0.005111	0.012956	
20195	    0	11.044586	58.185668	2.033201	1.400972	-0.910966	1.190969	0.106873	0.582336	0.024902	0.999947	0.007005	-0.004555	0.005955	
20196	    0	7.091028	54.069687	3.949829	0.085640	-0.609973	-0.840763	0.073061	0.540376	0.039950	0.999986	0.000428	-0.003050	-0.004204	
20197	    0	12.299212	32.692043	1.401301	-0.064852	-0.304993	-2.556681	0.127136	0.325317	0.014099	0.999917	-0.000324	-0.001525	-0.012783	
20198	    0	19.846769	18.661548	0.897415	0.834906	-0.308440	-4.028606	0.202157	0.182528	0.010052	0.999786	0.004174	-0.001542	-0.020142	
20199	    0	12.672848	18.472558	0.203479	1.542077	-0.338593	-4.999352	0.131287	0.181458	0.003662	0.999656	0.007710	-0.001693	-0.024994	
20200	    0	12.810241	26.992392	-23.302994	2.467050	-1.458063	-6.102573	0.137992	0.268653	-0.228728	0.999432	0.012333	-0.007289	-0.030507	
20201	    0	48.249374	32.785802	-9.468091	3.776334	0.879402	-8.257105	0.495117	0.309326	-0.090881	0.998960	0.018875	0.004395	-0.041271	
20202	    0	79.656831	32.925867	54.686941	2.690067	1.057480	-9.412180	0.813535	0.283874	0.546619	0.998788	0.013445	0.005285	-0.047042	
20203	    0	15.641818	-10.466844	15.481411	4.027085	-2.940947	-6.158533	0.150757	-0.112488	0.154846	0.999215	0.020130	-0.014701	-0.030785	
20204	    0	-4.481283	-1.424953	9.003216	3.908497	-0.789293	-7.199412	-0.045683	-0.014369	0.089573	0.999153	0.019537	-0.003945	-0.035987	
20205	    0	3.570278	20.127786	-1.731706	3.920325	-1.307220	-6.234669	0.042053	0.200317	-0.013123	0.999300	0.019597	-0.006535	-0.031166	
20206	    0	-5.907957	28.432127	-6.005748	1.472819	-1.039805	-4.697914	-0.052068	0.286033	-0.058238	0.999683	0.007363	-0.005198	-0.023487	
20207	    0	1.612940	11.414198	-6.135418	-0.533136	-0.137337	-3.758466	0.018311	0.113647	-0.061646	0.999819	-0.002666	-0.000687	-0.018791	
20208	    0	14.875631	8.138127	-6.573439	-1.482841	-0.070384	-2.960722	0.149958	0.078677	-0.066272	0.999863	-0.007414	-0.000352	-0.014803	
20209	    0	21.351951	8.977223	-5.275187	-1.299136	-0.093082	-2.403334	0.214600	0.086853	-0.053223	0.999907	-0.006495	-0.000465	-0.012016	
20210	    0	18.731922	4.623851	-5.277838	-1.400407	-0.249487	-1.826327	0.187795	0.044155	-0.052858	0.999932	-0.007002	-0.001247	-0.009131	
20211	    0	20.714364	2.417627	-0.978717	-1.014726	0.102426	-1.724272	0.207336	0.022339	-0.010010	0.999949	-0.005074	0.000512	-0.008621	
20212	    0	28.980011	4.456085	-2.992437	-1.175518	0.427634	-1.513124	0.290060	0.042188	-0.030797	0.999951	-0.005877	0.002138	-0.007565	
20213	    0	32.460114	4.297138	-2.111734	-1.625671	0.471508	-1.658669	0.324890	0.040100	-0.022217	0.999929	-0.008128	0.002357	-0.008293	
20214	    0	28.025629	-6.928015	0.027604	-2.319607	0.441567	-1.669370	0.279666	-0.071611	0.000480	0.999895	-0.011598	0.002208	-0.008347	
20215	    0	25.957851	-7.685783	0.672928	-2.745182	0.605992	-1.757893	0.258911	-0.079041	0.007019	0.999862	-0.013725	0.003030	-0.008789	
20216	    0	25.315115	-1.257183	2.048127	-3.557246	0.566519	-1.629554	0.253097	-0.014276	0.020008	0.999804	-0.017785	0.002832	-0.008147	
20217	    0	21.686706	-4.479160	3.218451	-4.713716	0.435682	-1.166650	0.216675	-0.045288	0.032776	0.999702	-0.023566	0.002178	-0.005833	
20218	    0	14.781911	-9.411006	4.247146	-6.365345	0.413394	-0.775661	0.147548	-0.093274	0.045144	0.999483	-0.031821	0.002067	-0.003878	
20219	    0	11.507546	-12.739375	0.696490	-6.813609	0.231406	-0.343389	0.114868	-0.127258	0.011169	0.999417	-0.034061	0.001157	-0.001717	
20220	    0	12.324454	-11.468524	-2.788431	-5.742292	0.183321	-0.265540	0.123068	-0.115588	-0.024687	0.999586	-0.028708	0.000916	-0.001328	
20221	    0	16.556714	-9.119216	1.117330	-3.897921	0.531803	-0.424985	0.165405	-0.091309	0.012512	0.999804	-0.019488	0.002659	-0.002125	
20222	    0	14.687304	2.304160	2.571462	-3.520973	0.677719	-0.816773	0.147052	0.022883	0.024813	0.999830	-0.017604	0.003388	-0.004084	
20223	    0	12.662583	9.638393	-1.549885	-3.636967	0.725600	-1.067419	0.127075	0.095398	-0.017700	0.999813	-0.018184	0.003628	-0.005337	
20224	    0	10.930602	8.282478	-6.443660	-3.859807	1.047975	-1.362902	0.109516	0.080808	-0.066583	0.999776	-0.019298	0.005239	-0.006814	
20225	    0	12.883242	7.124671	-6.813841	-3.474507	1.309306	-2.224905	0.129150	0.068604	-0.070190	0.999765	-0.017371	0.006546	-0.011124	
20226	    0	13.362902	10.695356	-8.102389	-3.031985	1.286233	-3.040950	0.134690	0.103658	-0.083476	0.999748	-0.015159	0.006431	-0.015203	
20227	    0	13.455277	7.643845	-7.559313	-3.048990	1.713912	-3.176412	0.135071	0.073120	-0.077881	0.999721	-0.015244	0.008569	-0.015881	
20228	    0	15.948258	0.173039	-4.652809	-2.924415	1.959783	-2.974201	0.159012	-0.001332	-0.048083	0.999734	-0.014621	0.009798	-0.014870	
20229	    0	17.425760	-2.526251	-2.163261	-2.527839	2.192307	-3.118405	0.173584	-0.028259	-0.023193	0.999738	-0.012638	0.010961	-0.015591	
20230	    0	17.028168	-4.324721	-1.253380	-2.274917	2.370294	-3.420387	0.169347	-0.046303	-0.014030	0.999719	-0.011374	0.011850	-0.017100	
20231	    0	16.615444	-5.333762	-2.922997	-1.699792	2.498089	-3.538069	0.164795	-0.056519	-0.030823	0.999729	-0.008498	0.012489	-0.017689	
20232	    0	17.777966	-10.148942	-4.335208	-0.697957	2.636940	-3.566660	0.175342	-0.104787	-0.045313	0.999747	-0.003489	0.013184	-0.017832	
20233	    0	16.313034	-13.438846	-6.565525	0.753282	2.421031	-3.972993	0.159607	-0.137329	-0.068115	0.999722	0.003766	0.012104	-0.019863	
20234	    0	14.285944	-12.112581	-7.021216	1.774040	2.287557	-4.406295	0.139331	-0.123583	-0.072908	0.999652	0.008869	0.011436	-0.022029	
20235	    0	14.120112	-8.913475	-5.692922	2.870802	2.270850	-4.771379	0.138367	-0.091614	-0.059814	0.999548	0.014352	0.011353	-0.023853	
20236	    0	16.570370	-3.749910	-3.299831	3.637824	2.367094	-5.237254	0.164246	-0.041181	-0.035675	0.999421	0.018186	0.011833	-0.026181	
20237	    0	18.765275	-1.082873	-3.730375	3.634626	2.263533	-5.555338	0.186829	-0.015320	-0.039673	0.999385	0.018169	0.011315	-0.027771	
20238	    0	19.395225	-3.651494	-5.041965	3.507898	1.966086	-5.418279	0.192372	-0.040827	-0.053007	0.999431	0.017536	0.009829	-0.027086	
20239	    0	18.948310	-6.622996	-6.380996	3.295691	1.491226	-5.232358	0.187195	-0.070068	-0.066345	0.999494	0.016476	0.007455	-0.026157	
20240	    0	18.029438	-9.718502	-7.597185	3.084078	1.068659	-5.071646	0.177359	-0.100511	-0.078458	0.999545	0.015418	0.005342	-0.025354	
20241	    0	16.528111	-10.774453	-7.628421	2.732458	0.867008	-4.943757	0.162231	-0.110718	-0.078491	0.999591	0.013660	0.004334	-0.024715	
20242	    0	15.589640	-8.804015	-7.280907	2.333165	0.597646	-4.873113	0.153483	-0.090939	-0.074320	0.999630	0.011664	0.002988	-0.024363	
20243	    0	15.719267	-6.989389	-6.719753	1.778604	0.434350	-4.754390	0.155334	-0.072998	-0.068176	0.999675	0.008892	0.002172	-0.023769	
20244	    0	17.285298	-7.402188	-4.931693	1.409088	0.608500	-4.435183	0.171008	-0.077476	-0.050377	0.999724	0.007045	0.003042	-0.022174	
20245	    0	19.574820	-6.725084	-4.328616	1.884618	0.630431	-4.010344	0.194214	-0.070740	-0.044556	0.999749	0.009422	0.003152	-0.020050	
20246	    0	18.374947	-6.774387	-6.317899	2.762454	0.130474	-3.534804	0.182483	-0.070094	-0.064256	0.999747	0.013811	0.000652	-0.017673	
20247	    0	12.171315	-6.441493	-7.931779	3.161105	-0.233287	-2.954333	0.120850	-0.064941	-0.080200	0.999764	0.015804	-0.001166	-0.014771	
20248	    0	6.867750	-3.040048	-5.842477	2.868992	-0.257887	-2.032194	0.068445	-0.030255	-0.058771	0.999845	0.014344	-0.001289	-0.010160	
20249	    0	5.341577	0.300092	-3.554797	2.382730	-0.186735	-1.163517	0.053467	0.003113	-0.035461	0.999911	0.011913	-0.000934	-0.005817	
20250	    0	4.337634	1.075082	-2.559396	1.721977	-0.054169	-0.375753	0.043404	0.010889	-0.025489	0.999961	0.008610	-0.000271	-0.001879	
20251	    0	1.599634	0.197261	-3.083556	1.149186	-0.007629	0.594334	0.015991	0.002197	-0.030823	0.999979	0.005746	-0.000038	0.002972	
20252	    0	-1.272826	-1.637431	-4.421105	0.510604	0.082398	1.639005	-0.012612	-0.016365	-0.044248	0.999963	0.002553	0.000412	0.008195	
20253	    0	-2.260539	-2.396258	-4.405152	-0.162511	0.227553	2.618484	-0.022339	-0.024292	-0.044006	0.999913	-0.000813	0.001138	0.013092	
20254	    0	-1.956261	-1.428882	-3.901603	-0.643955	0.215923	3.501315	-0.019349	-0.014754	-0.038948	0.999841	-0.003220	0.001080	0.017506	
20255	    0	-1.567034	-0.257329	-3.938985	-1.019943	0.092323	4.330802	-0.015625	-0.003113	-0.039368	0.999752	-0.005099	0.000462	0.021652	
20256	    0	-1.478324	0.206515	-4.302144	-1.393481	-0.038151	5.114964	-0.014816	0.001387	-0.043036	0.999648	-0.006967	-0.000191	0.025572	
20257	    0	-1.092846	-0.649611	-4.197420	-1.565031	-0.207361	5.884699	-0.010681	-0.007141	-0.041931	0.999536	-0.007824	-0.001037	0.029419	
20258	    0	0.103972	-2.254738	-3.739883	-1.452529	-0.440299	6.552405	0.001865	-0.022766	-0.037230	0.999434	-0.007261	-0.002201	0.032756	
20259	    0	2.061187	-3.570975	-3.361607	-1.236038	-0.673058	7.063294	0.021973	-0.035156	-0.033325	0.999352	-0.006179	-0.003365	0.035309	
20260	    0	4.787481	-4.699209	-2.359337	-0.969546	-0.848400	7.453597	0.049683	-0.045276	-0.023163	0.999285	-0.004847	-0.004241	0.037259	
20261	    0	6.825425	-4.183552	-1.352255	-0.704948	-1.098155	7.778658	0.069885	-0.039185	-0.013000	0.999222	-0.003524	-0.005489	0.038883	
20262	    0	8.589029	-3.867996	-1.202555	-0.676345	-1.313578	8.069203	0.087434	-0.035212	-0.011332	0.999159	-0.003381	-0.006566	0.040335	
20263	    0	10.435125	-4.295091	-0.819815	-0.698300	-1.507069	8.345260	0.106079	-0.038574	-0.007263	0.999095	-0.003490	-0.007533	0.041714	
20264	    0	12.481422	-5.313033	-1.020979	-0.602724	-1.751887	8.558719	0.127017	-0.047753	-0.008954	0.999042	-0.003013	-0.008757	0.042780	
20265	    0	14.560782	-6.823782	0.241413	-0.404303	-1.930886	8.764544	0.148376	-0.061768	0.003967	0.998991	-0.002021	-0.009651	0.043808	
20266	    0	17.715228	-5.808355	-0.117119	0.015837	-2.120393	9.004561	0.179525	-0.050035	0.000720	0.998930	0.000079	-0.010598	0.045007	
20267	    0	20.909507	-1.989679	2.081350	0.171916	-2.167550	9.170111	0.209473	-0.010315	0.023071	0.998890	0.000859	-0.010834	0.045834	
20268	    0	23.229300	0.723943	4.518523	0.438664	-2.261058	9.213858	0.231104	0.017804	0.047834	0.998872	0.002192	-0.011301	0.046052	
20269	    0	24.632346	2.147376	5.449360	1.156298	-2.363542	9.241989	0.244324	0.032471	0.057556	0.998845	0.005779	-0.011813	0.046192	
20270	    0	26.611466	4.271090	4.538897	2.020494	-2.302131	9.273781	0.263220	0.054482	0.048942	0.998808	0.010098	-0.011506	0.046350	
20271	    0	30.921190	9.715346	2.801125	2.493508	-1.969734	9.202395	0.304016	0.110840	0.032349	0.998815	0.012463	-0.009845	0.045994	
20272	    0	35.876976	19.358822	0.846275	2.446719	-1.524549	9.084707	0.349402	0.209459	0.013649	0.998864	0.012229	-0.007620	0.045406	
20273	    0	38.556202	27.357205	-1.221692	2.127069	-1.214078	8.908197	0.372925	0.290466	-0.006897	0.998933	0.010632	-0.006068	0.044525	
20274	    0	36.167316	27.521550	-2.625514	2.337213	-1.073782	8.145520	0.350185	0.289903	-0.021023	0.999087	0.011683	-0.005367	0.040715	
20275	    0	33.760730	29.583711	-4.276367	3.236601	-1.072953	6.819279	0.327454	0.307739	-0.036072	0.999273	0.016179	-0.005363	0.034088	
20276	    0	28.859127	36.369120	-6.175783	3.591564	-1.027088	5.104725	0.279457	0.371915	-0.053677	0.999499	0.017955	-0.005135	0.025519	
20277	    0	22.972350	42.463255	-6.127648	2.930707	-0.990191	3.377828	0.222778	0.429260	-0.053894	0.999738	0.014652	-0.004951	0.016888	
20278	    0	15.937608	45.778107	-2.894590	2.202695	-0.974313	1.964267	0.154990	0.459594	-0.023129	0.999879	0.011013	-0.004871	0.009821	
20279	    0	11.700623	48.279667	1.221614	1.222432	-0.787361	0.558477	0.115601	0.483032	0.015625	0.999969	0.006112	-0.003937	0.002792	
20280	    0	9.528107	41.672672	1.532655	0.291444	-0.528910	-0.913625	0.097141	0.416263	0.016189	0.999985	0.001457	-0.002645	-0.004568	
20281	    0	9.323808	29.899221	-0.228706	0.157360	-0.335701	-2.264454	0.096619	0.297913	-0.001892	0.999933	0.000787	-0.001678	-0.011322	
20282	    0	12.563668	22.238336	0.168903	0.346390	-0.301756	-3.291663	0.129271	0.220272	0.002265	0.999862	0.001732	-0.001509	-0.016458	
20283	    0	13.840496	19.884272	-1.218211	0.042918	-0.596662	-4.140774	0.142517	0.195923	-0.011719	0.999781	0.000215	-0.002983	-0.020702	
20284	    0	9.869947	20.550919	-15.900997	0.035290	-1.249453	-5.033103	0.104819	0.202950	-0.158332	0.999663	0.000176	-0.006247	-0.025163	
20285	    0	20.615882	71.649320	-57.820704	3.939572	-2.585487	-7.463207	0.240295	0.719116	-0.561096	0.999026	0.019691	-0.012923	-0.037304	
20286	    0	80.685181	10.650757	33.399119	2.205561	1.712850	-10.307441	0.813606	0.061040	0.327881	0.998574	0.011023	0.008560	-0.051513	
20287	    0	31.411950	1.518603	17.754232	5.892109	-3.578653	-5.914814	0.311035	0.000610	0.183289	0.998968	0.029450	-0.017887	-0.029564	
20288	    0	1.212515	11.182163	18.909221	2.796657	-1.038611	-6.998415	0.014977	0.108671	0.190700	0.999276	0.013980	-0.005192	-0.034984	
20289	    0	5.248179	15.397694	3.594785	2.239619	-1.329846	-5.935182	0.056763	0.151917	0.038025	0.999475	0.011196	-0.006648	-0.029671	
20290	    0	3.488034	21.244825	1.639030	1.411027	-1.256133	-4.887186	0.039945	0.211390	0.018125	0.999657	0.007054	-0.006280	-0.024433	
20291	    0	4.688065	13.634571	-2.418266	-0.191510	-0.335524	-3.889713	0.049561	0.135376	-0.024231	0.999808	-0.000957	-0.001678	-0.019447	
20292	    0	12.701640	3.715973	-5.369217	0.139814	-0.501271	-3.056839	0.127699	0.035249	-0.053348	0.999879	0.000699	-0.002506	-0.015284	
20293	    0	18.304058	12.870139	-6.664480	-0.264749	-0.242432	-2.861122	0.184937	0.125977	-0.066589	0.999896	-0.001324	-0.001212	-0.014305	
20294	    0	19.491349	7.949751	-6.195691	-0.874347	-0.542461	-2.001232	0.195862	0.077271	-0.061768	0.999936	-0.004372	-0.002712	-0.010006	
20295	    0	20.919746	5.982274	-5.016137	-1.496919	-0.312621	-1.649510	0.209758	0.057718	-0.050271	0.999936	-0.007484	-0.001563	-0.008247	
20296	    0	30.959797	3.927663	-1.616016	-1.813357	-0.071718	-1.441606	0.309875	0.036896	-0.016391	0.999932	-0.009067	-0.000359	-0.007208	
20297	    0	34.805009	1.384026	-0.397761	-2.347451	-0.086978	-1.542714	0.348145	0.011108	-0.003967	0.999901	-0.011737	-0.000435	-0.007713	
20298	    0	30.864845	-2.458733	0.718566	-3.403101	0.026132	-1.600169	0.308440	-0.026929	0.007590	0.999823	-0.017015	0.000131	-0.008000	
20299	    0	27.365681	-7.447423	1.641042	-4.196520	0.218410	-1.596967	0.273071	-0.076294	0.017700	0.999747	-0.020981	0.001092	-0.007984	
20300	    0	24.441989	-5.215600	3.084178	-4.899754	0.363771	-1.485797	0.244084	-0.053201	0.031693	0.999670	-0.024496	0.001819	-0.007428	
20301	    0	20.847818	-6.930124	4.873375	-6.048775	0.332122	-1.072099	0.208191	-0.068909	0.050476	0.999526	-0.030239	0.001660	-0.005360	
20302	    0	14.005475	-11.298485	5.200668	-7.518260	0.233515	-0.497936	0.139840	-0.111277	0.056048	0.999290	-0.037582	0.001167	-0.002489	
20303	    0	10.224479	-16.422986	1.842356	-6.878492	0.016216	-0.090045	0.102173	-0.163513	0.024048	0.999408	-0.034386	0.000081	-0.000450	
20304	    0	11.667617	-12.548291	-0.913271	-4.672860	0.129712	-0.357851	0.116446	-0.125860	-0.006270	0.999724	-0.023362	0.000648	-0.001789	
20305	    0	15.927657	-4.364174	3.670827	-2.900044	0.597595	-0.668361	0.159241	-0.043640	0.036865	0.999885	-0.014500	0.002988	-0.003342	
20306	    0	11.632370	7.896536	-0.566825	-3.019849	0.663787	-1.064729	0.116719	0.078243	-0.007240	0.999866	-0.015099	0.003319	-0.005323	
20307	    0	13.603175	8.687834	-7.660412	-3.522714	1.278958	-1.063605	0.135986	0.084778	-0.078979	0.999810	-0.017612	0.006394	-0.005318	
20308	    0	12.607023	5.113088	-5.617355	-3.761580	1.506349	-1.418032	0.125991	0.049157	-0.058060	0.999769	-0.018806	0.007531	-0.007090	
20309	    0	15.571679	9.613943	-8.225108	-3.284511	1.259708	-2.389706	0.156311	0.092896	-0.084778	0.999773	-0.016421	0.006298	-0.011948	
20310	    0	16.717737	13.639923	-8.959692	-3.626429	1.175618	-3.139624	0.168734	0.132092	-0.093007	0.999695	-0.018130	0.005877	-0.015697	
20311	    0	15.445104	6.663991	-9.452203	-3.938717	1.163798	-2.987229	0.154846	0.062439	-0.096680	0.999677	-0.019691	0.005818	-0.014935	
20312	    0	13.487965	1.479460	-8.800254	-3.934681	1.247912	-2.634884	0.134490	0.011275	-0.089087	0.999700	-0.019671	0.006239	-0.013173	
20313	    0	13.011603	-2.072329	-6.972532	-4.271238	1.753438	-2.537067	0.129211	-0.023865	-0.070374	0.999653	-0.021354	0.008766	-0.012684	
20314	    0	13.750899	-4.144319	-6.406611	-3.402464	2.127470	-2.623809	0.136253	-0.044334	-0.064782	0.999712	-0.017011	0.010636	-0.013118	
20315	    0	14.033260	-9.772444	-5.697754	-2.562151	2.313604	-2.623191	0.138367	-0.100281	-0.057312	0.999764	-0.012810	0.011567	-0.013115	
20316	    0	13.447301	-11.473591	-4.259519	-1.488599	2.481063	-2.914443	0.132244	-0.116995	-0.043380	0.999788	-0.007442	0.012404	-0.014571	
20317	    0	13.697842	-10.065802	-3.528250	0.060467	2.469812	-3.331995	0.134827	-0.102905	-0.036987	0.999784	0.000302	0.012348	-0.016659	
20318	    0	15.363074	-9.865185	-3.519069	1.399366	2.536638	-3.851500	0.151228	-0.101321	-0.037822	0.999709	0.006996	0.012682	-0.019256	
20319	    0	17.152591	-7.018942	-1.611483	2.553911	2.637273	-4.431764	0.169678	-0.073730	-0.019287	0.999585	0.012768	0.013185	-0.022156	
20320	    0	19.368248	-3.386923	-0.179930	3.069636	2.624576	-4.944497	0.192717	-0.038583	-0.004901	0.999490	0.015346	0.013121	-0.024718	
20321	    0	21.553690	-3.058943	-0.054490	3.225544	2.555749	-5.256103	0.214600	-0.036194	-0.003845	0.999442	0.016125	0.012776	-0.026276	
20322	    0	22.215472	-4.665005	-2.619259	3.566103	2.282970	-5.376339	0.220478	-0.052085	-0.029613	0.999414	0.017827	0.011413	-0.026876	
20323	    0	21.424756	-8.104931	-4.621839	3.926098	1.877392	-5.327894	0.211548	-0.085754	-0.049866	0.999408	0.019627	0.009385	-0.026634	
20324	    0	19.984200	-11.989806	-4.711797	3.941700	1.470650	-5.208416	0.196281	-0.124062	-0.050988	0.999439	0.019705	0.007352	-0.026037	
20325	    0	18.098791	-12.650275	-6.017179	4.042231	1.059920	-5.201923	0.177307	-0.129883	-0.063721	0.999443	0.020207	0.005299	-0.026005	
20326	    0	15.652114	-11.770193	-9.902530	4.100217	0.490851	-5.193709	0.153183	-0.119640	-0.101844	0.999449	0.020497	0.002454	-0.025964	
20327	    0	13.783738	-11.327386	-11.157712	3.743593	0.261922	-5.015621	0.134827	-0.114563	-0.113892	0.999509	0.018715	0.001309	-0.025074	
20328	    0	12.024089	-7.916528	-9.216757	3.358939	0.194005	-4.790418	0.118234	-0.080449	-0.093627	0.999571	0.016792	0.000970	-0.023949	
20329	    0	10.436423	-0.656784	-7.323044	2.352587	-0.148026	-4.507169	0.104248	-0.008057	-0.073242	0.999676	0.011762	-0.000740	-0.022533	
20330	    0	10.405407	1.178555	-4.701980	1.572908	-0.141535	-3.742666	0.104288	0.010204	-0.046862	0.999793	0.007864	-0.000708	-0.018712	
20331	    0	11.005817	-1.630175	-3.239716	1.458804	-0.316443	-2.862673	0.109863	-0.017639	-0.032349	0.999869	0.007294	-0.001582	-0.014313	
20332	    0	9.863080	-3.859153	-3.776668	1.218060	-0.402650	-1.945921	0.098327	-0.039319	-0.037807	0.999931	0.006090	-0.002013	-0.009729	
20333	    0	6.924094	-4.094760	-5.034942	1.014146	-0.411228	-0.935372	0.069153	-0.041016	-0.050415	0.999973	0.005071	-0.002056	-0.004677	
20334	    0	4.442230	-2.045387	-5.785494	0.500870	-0.294877	-0.014877	0.044506	-0.020312	-0.057840	0.999995	0.002504	-0.001474	-0.000074	
20335	    0	2.291152	-1.717127	-5.569852	-0.308992	-0.069237	0.926212	0.023010	-0.017151	-0.055664	0.999988	-0.001545	-0.000346	0.004631	
20336	    0	0.352054	-1.710841	-4.499810	-0.964564	0.116732	1.837001	0.003653	-0.017292	-0.044917	0.999946	-0.004823	0.000584	0.009185	
20337	    0	-0.667256	-3.124727	-3.263158	-1.360946	0.245676	2.707776	-0.006287	-0.031555	-0.032410	0.999884	-0.006804	0.001228	0.013538	
20338	    0	-1.629649	-4.041324	-1.976797	-1.425259	0.254456	3.572304	-0.015594	-0.040835	-0.019458	0.999814	-0.007126	0.001272	0.017860	
20339	    0	-1.935634	-3.886411	-1.579014	-1.087284	0.139058	4.456720	-0.018494	-0.039368	-0.015564	0.999736	-0.005436	0.000695	0.022282	
20340	    0	-1.440062	-2.553238	-2.091894	-0.798129	0.027278	5.279596	-0.013721	-0.025984	-0.020814	0.999643	-0.003990	0.000136	0.026395	
20341	    0	-0.585420	-0.943436	-2.810828	-0.700488	-0.055513	6.077761	-0.005554	-0.009705	-0.028076	0.999532	-0.003502	-0.000278	0.030384	
20342	    0	0.390957	-1.043965	-3.380909	-0.728177	-0.164255	6.811521	0.004292	-0.010421	-0.033768	0.999413	-0.003640	-0.000821	0.034051	
20343	    0	1.512766	-2.849553	-3.454105	-0.656282	-0.311925	7.480093	0.016235	-0.028015	-0.034424	0.999293	-0.003281	-0.001559	0.037392	
20344	    0	3.905740	-4.947452	-2.933357	-0.483832	-0.451208	7.955756	0.041051	-0.047938	-0.029125	0.999203	-0.002419	-0.002255	0.039768	
20345	    0	6.338794	-5.218524	-1.942141	-0.163126	-0.663951	8.332199	0.065552	-0.049500	-0.019165	0.999126	-0.000815	-0.003319	0.041649	
20346	    0	8.505652	-4.165608	-1.586888	-0.084904	-0.876324	8.687108	0.086826	-0.037916	-0.015474	0.999046	-0.000424	-0.004380	0.043422	
20347	    0	11.090023	-3.405069	-1.663449	-0.356987	-1.051690	8.984391	0.112366	-0.029053	-0.015991	0.998976	-0.001784	-0.005257	0.044907	
20348	    0	13.800970	-3.564986	-1.315710	-0.767988	-1.227255	9.249823	0.139539	-0.029266	-0.012183	0.998904	-0.003839	-0.006134	0.046232	
20349	    0	16.080361	-4.019141	-1.074269	-0.930953	-1.531808	9.437374	0.162537	-0.032593	-0.009338	0.998846	-0.004653	-0.007656	0.047169	
20350	    0	19.258666	-2.894228	-0.864070	-0.904446	-1.859265	9.585597	0.193748	-0.019706	-0.006740	0.998797	-0.004520	-0.009293	0.047909	
20351	    0	22.786242	-0.082974	1.050667	-0.785195	-2.160003	9.642925	0.227417	0.010193	0.012939	0.998772	-0.003924	-0.010796	0.048195	
20352	    0	24.647484	2.101631	2.714348	-0.237942	-2.475588	9.494014	0.244746	0.032700	0.030147	0.998796	-0.001189	-0.012373	0.047451	
20353	    0	26.349142	3.931200	2.337867	0.892995	-2.680320	9.361181	0.260925	0.051453	0.027100	0.998805	0.004463	-0.013396	0.046787	
20354	    0	29.649503	7.303674	2.378134	2.181965	-2.527721	9.439596	0.292280	0.086609	0.028390	0.998747	0.010905	-0.012633	0.047178	
20355	    0	34.803269	15.924764	1.595276	2.675950	-2.045316	9.268129	0.339966	0.174866	0.021729	0.998784	0.013374	-0.010222	0.046322	
20356	    0	39.547237	29.282488	0.563973	2.111263	-1.600095	9.044561	0.381624	0.310192	0.011945	0.998889	0.010552	-0.007998	0.045206	
20357	    0	36.387601	34.271403	-0.749857	1.364599	-1.324721	8.820283	0.348328	0.358337	-0.002747	0.998982	0.006821	-0.006621	0.044086	
20358	    0	35.726693	30.420849	-3.343176	1.396165	-1.174091	7.737289	0.345322	0.317938	-0.029193	0.999209	0.006979	-0.005869	0.038676	
20359	    0	31.926622	31.627144	-5.542187	2.279516	-1.158358	6.186305	0.309570	0.326538	-0.049927	0.999439	0.011395	-0.005791	0.030926	
20360	    0	25.816036	36.475501	-7.418542	2.466078	-1.101228	4.220450	0.250762	0.370965	-0.068242	0.999685	0.012329	-0.005506	0.021100	
20361	    0	20.488582	42.617634	-6.242299	1.840486	-1.161248	2.521631	0.199829	0.429260	-0.057312	0.999861	0.009202	-0.005806	0.012608	
20362	    0	14.405897	45.738552	-1.071918	1.446944	-1.185632	1.179910	0.141404	0.458282	-0.006562	0.999938	0.007235	-0.005928	0.005899	
20363	    0	10.393190	49.315609	5.380400	0.536349	-0.913816	-0.403597	0.104675	0.492798	0.055603	0.999984	0.002682	-0.004569	-0.002018	
20364	    0	9.893234	37.191298	3.826990	0.106050	-0.696766	-1.900896	0.102326	0.370931	0.038819	0.999949	0.000530	-0.003484	-0.009504	
20365	    0	11.278271	24.357255	2.791871	0.463124	-0.464459	-3.135815	0.116516	0.241699	0.028748	0.999871	0.002316	-0.002322	-0.015678	
20366	    0	16.405497	18.057259	2.921681	0.932571	-0.549548	-4.060663	0.167591	0.177053	0.030505	0.999779	0.004663	-0.002748	-0.020302	
20367	    0	12.494259	15.907928	-0.145460	0.801929	-0.815472	-4.732218	0.128662	0.156067	-0.000305	0.999703	0.004009	-0.004077	-0.023659	
20368	    0	4.748486	58.430692	-56.103080	4.453486	-4.132000	-5.999480	0.076614	0.594579	-0.546482	0.999088	0.022261	-0.020654	-0.029988	
20369	    0	63.298128	36.373498	12.347572	1.176324	2.635425	-9.070196	0.650146	0.333801	0.117004	0.998867	0.005879	0.013172	-0.045334	
20370	    0	72.467912	0.608275	52.201679	2.084695	-0.838495	-7.520699	0.721892	-0.026565	0.524884	0.999229	0.010421	-0.004191	-0.037594	
20371	    0	7.325995	-14.999496	5.039062	4.379644	-3.139355	-5.756343	0.068115	-0.153076	0.048157	0.999223	0.021893	-0.015693	-0.028774	
20372	    0	-9.260659	10.445216	13.137751	3.512917	-0.874175	-7.035565	-0.089490	0.105312	0.132827	0.999217	0.017560	-0.004370	-0.035169	
20373	    0	12.795114	17.243492	-1.233328	3.257006	-0.901195	-5.662800	0.132812	0.168884	-0.008972	0.999456	0.016282	-0.004505	-0.028309	
20374	    0	1.385628	21.338361	-3.784288	1.883113	-1.170842	-4.225178	0.018578	0.213367	-0.035734	0.999715	0.009415	-0.005854	-0.021124	
20375	    0	7.486275	13.835401	-3.377095	-0.744474	-0.428793	-3.309030	0.077209	0.136963	-0.034119	0.999853	-0.003722	-0.002144	-0.016544	
20376	    0	14.759851	6.684912	-8.547574	-0.716996	-0.269326	-2.683536	0.148590	0.064553	-0.085510	0.999902	-0.003585	-0.001347	-0.013417	
20377	    0	19.128106	6.721069	-9.228401	-1.178011	-0.400363	-2.243866	0.192200	0.064514	-0.092285	0.999917	-0.005890	-0.002002	-0.011219	
20378	    0	19.845264	3.938038	-7.008555	-1.086064	-0.322729	-1.731903	0.198895	0.037279	-0.069971	0.999946	-0.005430	-0.001614	-0.008659	
20379	    0	25.559567	3.413295	-2.919132	-1.483947	-0.011254	-1.606783	0.255859	0.031860	-0.029419	0.999940	-0.007420	-0.000056	-0.008034	
20380	    0	32.381266	2.359437	-1.196154	-1.812980	0.075151	-1.636164	0.323986	0.020834	-0.012280	0.999925	-0.009065	0.000376	-0.008181	
20381	    0	29.992199	-1.236389	0.544463	-2.560335	0.046541	-1.693029	0.299805	-0.014832	0.005554	0.999882	-0.012801	0.000233	-0.008465	
20382	    0	26.057073	-7.502965	2.039393	-3.214061	0.156411	-1.723576	0.259930	-0.076933	0.021417	0.999833	-0.016069	0.000782	-0.008617	
20383	    0	24.092838	-5.503424	2.281436	-3.839194	0.273152	-1.503861	0.240540	-0.056396	0.023560	0.999786	-0.019195	0.001366	-0.007519	
20384	    0	21.932222	-5.320388	3.413471	-4.590083	0.222036	-1.174083	0.219047	-0.053692	0.035120	0.999719	-0.022948	0.001110	-0.005870	
20385	    0	16.093911	-6.278622	3.875806	-6.068607	0.155855	-0.847758	0.160706	-0.062256	0.040527	0.999530	-0.030338	0.000779	-0.004238	
20386	    0	12.735041	-11.439093	1.961845	-6.714370	0.091570	-0.383259	0.127142	-0.113892	0.023390	0.999434	-0.033566	0.000458	-0.001916	
20387	    0	11.788145	-11.074108	-1.688920	-5.906011	0.006295	-0.259437	0.117737	-0.111328	-0.013611	0.999562	-0.029526	0.000031	-0.001297	
20388	    0	15.834621	-8.746301	-0.001586	-4.420073	0.333241	-0.369865	0.158186	-0.087731	0.001657	0.999752	-0.022099	0.001666	-0.001849	
20389	    0	13.941264	1.601375	1.957912	-4.034523	0.484501	-0.848450	0.139526	0.015808	0.018921	0.999784	-0.020171	0.002422	-0.004242	
20390	    0	12.397667	9.026578	-3.310947	-4.320509	0.699293	-1.031581	0.124316	0.088876	-0.035474	0.999747	-0.021601	0.003496	-0.005157	
20391	    0	12.545619	6.497976	-4.618154	-4.629787	0.990394	-1.223114	0.125610	0.063110	-0.048279	0.999701	-0.023147	0.004951	-0.006115	
20392	    0	13.567230	5.923658	-5.770506	-4.626421	1.315458	-2.062079	0.135875	0.056467	-0.059926	0.999658	-0.023129	0.006577	-0.010309	
20393	    0	16.892493	11.657839	-6.792890	-4.066946	1.374407	-3.135287	0.170227	0.112488	-0.071411	0.999646	-0.020332	0.006871	-0.015675	
20394	    0	15.438798	11.607309	-9.475489	-3.986292	1.426687	-3.539153	0.155695	0.111392	-0.098114	0.999619	-0.019929	0.007133	-0.017694	
20395	    0	15.867739	2.587438	-8.840829	-3.322177	1.634574	-3.278685	0.158325	0.021790	-0.090088	0.999694	-0.016609	0.008172	-0.016392	
20396	    0	14.820640	-2.438589	-8.358243	-2.992913	1.939385	-3.153908	0.146967	-0.027971	-0.084611	0.999716	-0.014963	0.009696	-0.015768	
20397	    0	15.777847	-6.260848	-6.549363	-2.101124	2.347003	-3.260319	0.155945	-0.065857	-0.066650	0.999743	-0.010505	0.011734	-0.016300	
20398	    0	15.480506	-7.839926	-5.413676	-0.791995	2.416042	-3.578664	0.152700	-0.081363	-0.055672	0.999759	-0.003960	0.012079	-0.017892	
20399	    0	15.339594	-7.590047	-3.932890	-0.090607	2.425601	-3.945513	0.151367	-0.078918	-0.041138	0.999731	-0.000453	0.012127	-0.019726	
20400	    0	15.173106	-7.905084	-1.749873	0.730591	2.431169	-4.308196	0.149753	-0.082222	-0.019624	0.999687	0.003653	0.012155	-0.021539	
20401	    0	15.924732	-7.343748	-1.918653	1.840445	2.258780	-4.710990	0.157227	-0.076965	-0.021667	0.999616	0.009201	0.011292	-0.023552	
20402	    0	18.536923	-6.274767	-0.903754	2.825817	2.313419	-5.081815	0.183570	-0.067271	-0.012097	0.999510	0.014127	0.011565	-0.025405	
20403	    0	20.975788	-3.810905	-0.936975	3.215820	2.306798	-5.411780	0.208496	-0.043579	-0.012451	0.999437	0.016076	0.011532	-0.027054	
20404	    0	21.884133	-4.003713	-2.720216	3.323426	2.079788	-5.515388	0.217332	-0.045560	-0.030194	0.999427	0.016614	0.010397	-0.027572	
20405	    0	21.079171	-7.359543	-4.601696	3.598723	1.656855	-5.568253	0.208252	-0.078552	-0.049133	0.999415	0.017990	0.008283	-0.027836	
20406	    0	19.546973	-10.402195	-4.873241	3.808575	1.169433	-5.568257	0.192194	-0.108436	-0.051900	0.999413	0.019039	0.005846	-0.027836	
20407	    0	18.619800	-11.155592	-4.225218	3.639896	0.770902	-5.534625	0.182861	-0.115845	-0.045044	0.999444	0.018196	0.003854	-0.027668	
20408	    0	17.513555	-8.752778	-6.211731	3.385370	0.307709	-5.498890	0.172564	-0.091225	-0.063908	0.999477	0.016924	0.001538	-0.027490	
20409	    0	16.188896	-8.140158	-8.916603	2.906671	0.019076	-5.307053	0.159668	-0.084351	-0.090393	0.999542	0.014531	0.000095	-0.026531	
20410	    0	14.620481	-7.562574	-8.210715	2.048177	0.060471	-5.084674	0.144209	-0.078463	-0.082945	0.999624	0.010240	0.000302	-0.025420	
20411	    0	14.397204	-4.681779	-6.216933	1.326319	0.094614	-4.836017	0.142761	-0.049866	-0.062561	0.999685	0.006631	0.000473	-0.024178	
20412	    0	16.174906	-0.996933	-5.482815	0.850939	0.128947	-4.373531	0.161448	-0.013268	-0.054984	0.999751	0.004254	0.000645	-0.021866	
20413	    0	17.667427	-4.058199	-4.007315	1.109379	0.039866	-3.586789	0.175903	-0.043518	-0.040344	0.999824	0.005547	0.000199	-0.017933	
20414	    0	14.472168	-7.990660	-3.712560	1.332722	-0.282109	-2.907687	0.143595	-0.081751	-0.037463	0.999870	0.006663	-0.001410	-0.014538	
20415	    0	8.644587	-7.111994	-3.332160	1.504560	-0.391971	-2.116455	0.085754	-0.071777	-0.033691	0.999913	0.007523	-0.001960	-0.010582	
20416	    0	5.447790	-4.226567	-2.561163	1.268784	-0.230220	-1.167312	0.054260	-0.042419	-0.025818	0.999962	0.006344	-0.001151	-0.005836	
20417	    0	3.589074	-1.986824	-2.285084	0.641824	0.001907	-0.258828	0.035865	-0.019841	-0.022915	0.999992	0.003209	0.000010	-0.001294	
20418	    0	0.720761	-1.390074	-2.349309	0.096703	0.202752	0.635721	0.007228	-0.013866	-0.023507	0.999994	0.000484	0.001014	0.003179	
20419	    0	-1.652891	-1.936892	-2.422550	-0.268367	0.357823	1.578539	-0.016418	-0.019531	-0.024170	0.999966	-0.001342	0.001789	0.007893	
20420	    0	-2.616613	-2.572860	-2.696233	-0.541131	0.442518	2.549627	-0.025894	-0.026133	-0.026834	0.999911	-0.002706	0.002213	0.012748	
20421	    0	-2.603892	-2.937329	-2.706131	-0.613436	0.416778	3.507420	-0.025574	-0.029907	-0.026917	0.999839	-0.003067	0.002084	0.017536	
20422	    0	-1.972441	-2.694419	-2.935238	-0.608878	0.345641	4.469681	-0.019165	-0.027466	-0.029236	0.999743	-0.003044	0.001728	0.022346	
20423	    0	-1.503064	-1.318856	-3.112456	-0.766465	0.271448	5.313941	-0.014713	-0.013701	-0.031053	0.999637	-0.003832	0.001357	0.026567	
20424	    0	-1.207822	-0.887227	-2.992157	-1.006858	0.166538	6.085789	-0.011823	-0.009385	-0.029865	0.999523	-0.005033	0.000833	0.030424	
20425	    0	-0.278805	-2.437752	-3.124099	-0.923147	-0.013736	6.790727	-0.001953	-0.024597	-0.031128	0.999413	-0.004615	-0.000069	0.033947	
20426	    0	1.761783	-3.637229	-3.244601	-0.644828	-0.199935	7.287889	0.018962	-0.035802	-0.032311	0.999330	-0.003223	-0.000999	0.036431	
20427	    0	4.562955	-4.023531	-2.807352	-0.457876	-0.389767	7.654163	0.047180	-0.038513	-0.027893	0.999263	-0.002289	-0.001948	0.038261	
20428	    0	6.616222	-3.341541	-2.429881	-0.292094	-0.610516	8.018368	0.067505	-0.030762	-0.024048	0.999190	-0.001460	-0.003052	0.040081	
20429	    0	8.202949	-3.152930	-2.180998	-0.439009	-0.775373	8.324002	0.083331	-0.028126	-0.021424	0.999123	-0.002194	-0.003876	0.041608	
20430	    0	10.109191	-4.118716	-1.571287	-0.582878	-0.966375	8.596060	0.102812	-0.036837	-0.015107	0.999060	-0.002913	-0.004830	0.042967	
20431	    0	12.147347	-5.178590	-0.997637	-0.576974	-1.208707	8.826325	0.123657	-0.046387	-0.009094	0.999003	-0.002884	-0.006042	0.044117	
20432	    0	14.104916	-5.093668	-0.011512	-0.604648	-1.393227	8.976030	0.143140	-0.044540	0.001019	0.998963	-0.003022	-0.006964	0.044865	
20433	    0	16.146759	-4.126594	0.440174	-0.479299	-1.610956	9.151708	0.163086	-0.033813	0.005798	0.998918	-0.002396	-0.008052	0.045742	
20434	    0	18.980484	-2.722079	1.796014	-0.363869	-1.725852	9.378749	0.190637	-0.018257	0.019642	0.998861	-0.001819	-0.008626	0.046876	
20435	    0	21.673196	-1.645363	3.392073	-0.083193	-1.867456	9.531334	0.216858	-0.006104	0.035950	0.998820	-0.000416	-0.009334	0.047638	
20436	    0	24.079089	-1.568167	4.813369	0.624334	-1.999130	9.576435	0.240682	-0.004308	0.050515	0.998798	0.003120	-0.009992	0.047863	
20437	    0	27.908404	-0.362478	4.357381	1.671524	-2.032352	9.575773	0.278381	0.009338	0.046448	0.998767	0.008354	-0.010158	0.047859	
20438	    0	33.281006	4.280044	2.120492	2.330208	-1.789063	9.469095	0.330086	0.058201	0.024785	0.998771	0.011646	-0.008942	0.047326	
20439	    0	38.874522	13.723180	-0.360876	2.227298	-1.427241	9.195402	0.381897	0.154907	0.000793	0.998856	0.011132	-0.007133	0.045959	
20440	    0	40.940460	24.854594	-1.776796	1.630035	-1.255487	9.065841	0.397674	0.266873	-0.013121	0.998919	0.008147	-0.006275	0.045313	
20441	    0	37.505279	24.911084	-3.540660	1.509591	-1.127041	8.681290	0.363953	0.265320	-0.031372	0.999013	0.007545	-0.005633	0.043392	
20442	    0	36.500956	24.400667	-4.568664	2.547741	-1.103881	7.430308	0.355832	0.257880	-0.040479	0.999213	0.012735	-0.005518	0.037142	
20443	    0	31.841321	32.007586	-5.120740	3.547777	-1.096555	5.682701	0.309387	0.329773	-0.043701	0.999424	0.017735	-0.005482	0.028408	
20444	    0	25.426535	41.590627	-4.980162	3.315346	-0.959314	3.895818	0.246304	0.421492	-0.041651	0.999660	0.016575	-0.004796	0.019477	
20445	    0	17.267089	48.999229	-3.747301	2.549119	-0.888682	2.394234	0.166931	0.492432	-0.030457	0.999837	0.012745	-0.004443	0.011971	
20446	    0	12.266840	57.227268	-0.065857	1.078807	-0.598913	0.916299	0.120040	0.572818	0.002792	0.999970	0.005394	-0.002995	0.004581	
20447	    0	9.118406	48.139155	-3.698649	-0.125695	-0.388337	-0.757601	0.093079	0.481018	-0.037109	0.999990	-0.000628	-0.001942	-0.003788	
20448	    0	11.189128	33.355852	-4.867226	-0.310524	-0.243193	-2.367267	0.115888	0.332127	-0.049049	0.999928	-0.001553	-0.001216	-0.011836	
20449	    0	11.456590	28.796927	-2.024046	-0.161561	-0.249495	-3.601270	0.119751	0.285828	-0.020325	0.999836	-0.000808	-0.001247	-0.018005	
20450	    0	11.314988	27.378331	-0.757480	-0.884698	-0.301385	-4.254487	0.118951	0.271257	-0.008602	0.999763	-0.004423	-0.001507	-0.021271	
20451	    0	15.494148	19.811134	-3.317400	-2.144869	-0.374455	-4.772734	0.159668	0.193970	-0.034973	0.999656	-0.010723	-0.001872	-0.023861	
20452	    0	11.354318	12.076609	-22.734552	-1.732517	-1.744917	-5.512121	0.118760	0.115571	-0.227341	0.999544	-0.008661	-0.008723	-0.027556	
20453	    0	25.456920	45.452599	-28.539438	2.658996	-0.723464	-7.603238	0.272705	0.448120	-0.278442	0.999182	0.013291	-0.003616	-0.038006	
20454	    0	72.494527	10.612939	31.766163	4.541956	0.971436	-8.861804	0.730021	0.066659	0.315936	0.998749	0.022700	0.004855	-0.044291	
20455	    0	22.126334	4.446933	10.420117	6.589952	-3.122390	-6.276835	0.220764	0.033997	0.108887	0.998842	0.032937	-0.015606	-0.031372	
20456	    0	0.164478	27.316940	19.390082	4.336463	-0.940362	-6.239698	0.009145	0.268672	0.199791	0.999266	0.021677	-0.004701	-0.031191	
20457	    0	4.807720	16.959315	-0.040048	1.306313	-1.078738	-5.161920	0.052429	0.168274	0.000977	0.999631	0.006531	-0.005393	-0.025806	
20458	    0	6.366076	20.386814	-2.096014	1.119513	-0.704059	-4.195552	0.067990	0.202584	-0.019589	0.999758	0.005597	-0.003520	-0.020976	
20459	    0	11.686320	13.515486	1.116602	-0.903174	-0.099187	-3.318950	0.119080	0.133240	0.010620	0.999851	-0.004516	-0.000496	-0.016594	
20460	    0	18.589909	2.085587	-8.196916	-0.364123	-0.112155	-2.605895	0.186194	0.018282	-0.081900	0.999913	-0.001821	-0.000561	-0.013029	
20461	    0	19.268180	7.791062	-5.552993	-0.600448	-0.350770	-2.320919	0.193665	0.075500	-0.055420	0.999927	-0.003002	-0.001754	-0.011604	
20462	    0	19.252129	5.553667	-4.020403	-0.751317	-0.248913	-1.825553	0.193067	0.053625	-0.040168	0.999950	-0.003757	-0.001245	-0.009128	
20463	    0	24.078522	7.021157	-3.002665	-1.658663	0.034524	-1.428251	0.241272	0.068237	-0.030640	0.999940	-0.008293	0.000173	-0.007141	
20464	    0	33.065976	1.256893	-2.228173	-2.191030	0.185399	-1.265560	0.330709	0.010229	-0.022709	0.999919	-0.010955	0.000927	-0.006328	
20465	    0	34.552562	-2.221890	0.653850	-2.609927	0.115208	-1.603762	0.345337	-0.024902	0.006653	0.999882	-0.013049	0.000576	-0.008018	
20466	    0	29.013156	-5.197107	1.227167	-3.574412	0.181401	-1.643096	0.289704	-0.054125	0.012963	0.999805	-0.017871	0.000907	-0.008215	
20467	    0	27.155401	-6.166954	2.573585	-4.484023	0.254846	-1.499316	0.271118	-0.063110	0.026794	0.999720	-0.022418	0.001274	-0.007496	
20468	    0	23.750682	-7.163638	4.577170	-5.249271	0.208880	-1.086365	0.237166	-0.071695	0.047405	0.999640	-0.026243	0.001044	-0.005431	
20469	    0	16.415538	-8.755939	5.684531	-6.814192	0.275475	-0.682964	0.163940	-0.086121	0.059570	0.999413	-0.034064	0.001377	-0.003414	
20470	    0	12.680332	-15.886606	3.420571	-7.492487	0.331384	-0.162926	0.126738	-0.157545	0.039915	0.999296	-0.037454	0.001657	-0.000814	
20471	    0	10.914697	-15.318195	-1.477409	-6.203503	0.212894	0.074780	0.109192	-0.153503	-0.010132	0.999517	-0.031013	0.001064	0.000374	
20472	    0	16.531109	-9.854656	0.778251	-3.972891	0.473626	-0.054554	0.165305	-0.098416	0.009347	0.999800	-0.019863	0.002368	-0.000273	
20473	    0	16.098721	6.180813	4.883300	-3.448477	0.572235	-0.618776	0.161316	0.062134	0.047302	0.999842	-0.017241	0.002861	-0.003094	
20474	    0	14.221583	12.723440	-1.333710	-4.231426	1.221759	-0.829194	0.142645	0.126311	-0.016887	0.999748	-0.021155	0.006108	-0.004146	
20475	    0	13.420452	5.758005	-3.776213	-4.188914	1.629213	-1.174269	0.134216	0.055969	-0.040039	0.999730	-0.020943	0.008145	-0.005871	
20476	    0	14.660709	8.768040	-7.489466	-2.967664	1.613922	-2.377298	0.147009	0.084799	-0.077353	0.999786	-0.014837	0.008069	-0.011886	
20477	    0	15.305639	12.449110	-9.663963	-2.751403	1.521627	-3.366386	0.154358	0.120544	-0.099487	0.999734	-0.013756	0.007607	-0.016830	
20478	    0	13.954906	5.823531	-10.019823	-2.447146	1.697113	-3.402428	0.139638	0.054619	-0.102066	0.999744	-0.012235	0.008485	-0.017011	
20479	    0	14.650796	-1.586805	-7.284230	-1.785215	1.938768	-3.200760	0.145508	-0.018860	-0.074097	0.999784	-0.008925	0.009693	-0.016003	
20480	    0	14.935967	-2.407782	-5.348882	-1.574645	2.298161	-3.434461	0.148286	-0.027060	-0.054992	0.999755	-0.007873	0.011490	-0.017171	
20481	    0	16.719677	-3.118488	-3.811105	-0.780364	2.546150	-3.706682	0.166077	-0.034424	-0.040100	0.999739	-0.003901	0.012730	-0.018532	
20482	    0	17.564921	-7.403249	-3.428831	0.042538	2.635241	-3.847471	0.173710	-0.077379	-0.036602	0.999727	0.000213	0.013175	-0.019236	
20483	    0	17.138444	-11.058399	-2.559423	0.643989	2.642528	-4.221025	0.168640	-0.114075	-0.028198	0.999684	0.003220	0.013211	-0.021103	
20484	    0	16.697181	-11.344947	-1.807380	1.593798	2.534434	-4.728744	0.163976	-0.117190	-0.021089	0.999608	0.007968	0.012671	-0.023641	
20485	    0	17.449590	-9.689718	-1.973288	2.412042	2.403839	-5.217061	0.171631	-0.101135	-0.023010	0.999515	0.012058	0.012017	-0.026081	
20486	    0	19.762631	-6.088380	-1.208023	3.024102	2.414398	-5.523966	0.195676	-0.066091	-0.015424	0.999431	0.015118	0.012070	-0.027615	
20487	    0	22.159790	-2.085679	-1.227597	3.136325	2.288716	-5.850659	0.220703	-0.027100	-0.015198	0.999383	0.015678	0.011441	-0.029247	
20488	    0	23.095751	-2.424730	-3.016046	2.764865	2.006545	-5.969843	0.229785	-0.030677	-0.032865	0.999408	0.013822	0.010031	-0.029843	
20489	    0	21.835983	-5.077890	-4.323405	2.435173	1.672667	-5.904698	0.216370	-0.056641	-0.045715	0.999454	0.012174	0.008362	-0.029518	
20490	    0	19.996681	-7.258686	-5.119857	2.124566	1.326781	-5.787092	0.197417	-0.077765	-0.053322	0.999502	0.010621	0.006633	-0.028931	
20491	    0	18.159101	-8.092362	-5.961212	1.845068	1.060838	-5.657294	0.178894	-0.085449	-0.061340	0.999543	0.009224	0.005303	-0.028282	
20492	    0	17.066692	-8.355292	-7.887751	1.720100	0.810356	-5.507294	0.167970	-0.087517	-0.080303	0.999576	0.008599	0.004051	-0.027533	
20493	    0	16.302500	-9.449513	-9.932057	1.494218	0.596695	-5.306924	0.160156	-0.098022	-0.100525	0.999615	0.007470	0.002983	-0.026531	
20494	    0	14.819593	-10.530837	-10.093392	1.457193	0.449233	-5.056397	0.145255	-0.108265	-0.102044	0.999651	0.007285	0.002246	-0.025279	
20495	    0	12.019909	-7.905243	-9.726701	1.265853	0.104725	-4.923016	0.118164	-0.081360	-0.097839	0.999677	0.006329	0.000524	-0.024612	
20496	    0	9.775492	-4.510943	-7.877121	0.646268	-0.103960	-4.590636	0.096730	-0.047083	-0.078871	0.999731	0.003231	-0.000520	-0.022951	
20497	    0	10.914306	-3.031261	-5.120693	0.371766	0.006867	-3.920236	0.108521	-0.032349	-0.051270	0.999805	0.001859	0.000034	-0.019600	
20498	    0	12.575268	-4.001575	-4.653849	0.788342	-0.190934	-3.155657	0.125147	-0.041810	-0.046581	0.999866	0.003942	-0.000955	-0.015778	
20499	    0	10.702666	-5.771199	-4.869754	0.865386	-0.343331	-2.278195	0.106445	-0.058716	-0.048767	0.999924	0.004327	-0.001717	-0.011391	
20500	    0	6.352367	-5.686291	-5.112828	1.036084	-0.410276	-1.271263	0.063267	-0.057000	-0.051293	0.999964	0.005180	-0.002051	-0.006356	
20501	    0	3.663840	-4.088396	-4.792070	0.924687	-0.406458	-0.263978	0.036682	-0.040710	-0.048035	0.999986	0.004623	-0.002032	-0.001320	
20502	    0	1.522543	-3.235215	-4.302393	0.626948	-0.295450	0.759128	0.015411	-0.032159	-0.043102	0.999987	0.003135	-0.001477	0.003796	
20503	    0	-0.709221	-2.465251	-3.840966	0.288395	-0.200465	1.766229	-0.006836	-0.024658	-0.038452	0.999959	0.001442	-0.001002	0.008831	
20504	    0	-2.612292	-2.417536	-3.155013	-0.065043	-0.100330	2.766888	-0.025769	-0.024544	-0.031555	0.999904	-0.000325	-0.000502	0.013834	
20505	    0	-3.329514	-2.712186	-2.505547	-0.250068	-0.020601	3.750068	-0.032776	-0.027771	-0.025024	0.999823	-0.001250	-0.000103	0.018749	
20506	    0	-2.828289	-2.546064	-2.280703	-0.371966	-0.059133	4.611808	-0.027678	-0.026146	-0.022767	0.999732	-0.001860	-0.000296	0.023057	
20507	    0	-1.963952	-2.315222	-2.793880	-0.492157	-0.127236	5.434329	-0.018982	-0.023743	-0.027893	0.999627	-0.002460	-0.000636	0.027168	
20508	    0	-0.855833	-2.443666	-3.453368	-0.534907	-0.237503	6.194542	-0.007753	-0.024777	-0.034477	0.999516	-0.002674	-0.001187	0.030968	
20509	    0	0.209634	-2.746997	-3.657310	-0.502878	-0.360752	6.920490	0.003113	-0.027466	-0.036499	0.999396	-0.002514	-0.001803	0.034595	
20510	    0	1.147004	-3.237110	-3.509439	-0.398730	-0.494883	7.512537	0.012763	-0.031978	-0.035000	0.999290	-0.001993	-0.002474	0.037554	
20511	    0	2.939237	-4.213273	-3.035476	-0.229515	-0.621197	7.938958	0.031128	-0.040955	-0.030212	0.999207	-0.001147	-0.003105	0.039684	
20512	    0	5.258035	-4.692348	-2.189613	-0.065441	-0.715461	8.257750	0.054535	-0.044705	-0.021688	0.999141	-0.000327	-0.003576	0.041277	
20513	    0	7.576158	-4.314543	-1.575848	-0.009921	-0.817168	8.547547	0.077576	-0.039856	-0.015442	0.999078	-0.000050	-0.004085	0.042725	
20514	    0	9.954923	-3.350266	-0.718950	-0.240594	-0.907619	8.759470	0.100920	-0.029110	-0.006697	0.999029	-0.001203	-0.004537	0.043783	
20515	    0	11.929279	-2.738774	-0.148368	-0.626394	-1.025737	8.926357	0.120361	-0.022034	-0.000793	0.998985	-0.003131	-0.005127	0.044617	
20516	    0	13.500410	-3.982254	0.887320	-0.713986	-1.215608	9.168097	0.136580	-0.033550	0.009828	0.998924	-0.003569	-0.006076	0.045824	
20517	    0	15.952754	-3.927013	0.717159	-0.546278	-1.441732	9.352561	0.161072	-0.031738	0.008423	0.998877	-0.002730	-0.007206	0.046745	
20518	    0	18.880931	-1.435095	0.756179	-0.374938	-1.645719	9.442325	0.189135	-0.005408	0.009133	0.998850	-0.001874	-0.008225	0.047194	
20519	    0	21.474905	0.405524	1.938444	-0.099030	-1.793603	9.476329	0.214050	0.014221	0.021301	0.998837	-0.000495	-0.008965	0.047363	
20520	    0	23.400278	2.351363	2.614740	0.642265	-1.997967	9.464155	0.232267	0.034446	0.028573	0.998825	0.003210	-0.009986	0.047302	
20521	    0	25.124310	3.829029	0.760549	1.846489	-2.170679	9.437568	0.248962	0.049988	0.010742	0.998785	0.009229	-0.010849	0.047169	
20522	    0	29.719572	7.190865	-0.921974	3.339880	-2.108725	9.403489	0.293442	0.085873	-0.004755	0.998699	0.016692	-0.010539	0.046997	
20523	    0	35.386763	14.723815	-3.040194	4.343847	-1.982820	9.243365	0.346802	0.163940	-0.023499	0.998647	0.021709	-0.009910	0.046196	
20524	    0	40.216850	25.989032	-5.446730	3.999826	-1.863673	8.892277	0.390512	0.278399	-0.045345	0.998768	0.019991	-0.009315	0.044443	
20525	    0	36.057626	31.024761	-4.988224	3.388682	-1.742233	8.522840	0.347290	0.325989	-0.041382	0.998910	0.016937	-0.008708	0.042599	
20526	    0	35.335646	30.221493	-3.435312	3.587501	-1.773049	7.645118	0.341705	0.315941	-0.025702	0.999069	0.017932	-0.008862	0.038214	
20527	    0	32.125785	34.768111	-1.839529	3.591188	-1.599284	6.136917	0.310486	0.357544	-0.009521	0.999335	0.017952	-0.007995	0.030678	
20528	    0	24.264191	38.616570	-2.851562	2.944550	-1.296586	4.415871	0.234186	0.391747	-0.021238	0.999626	0.014721	-0.006482	0.022077	
20529	    0	18.242633	42.532749	-8.684077	1.673969	-1.104598	2.726113	0.177063	0.428467	-0.082275	0.999856	0.008369	-0.005523	0.013630	
20530	    0	14.100914	54.397827	-1.508498	0.020409	-0.778018	1.604292	0.136697	0.545088	-0.014492	0.999960	0.000102	-0.003890	0.008021	
20531	    0	6.194478	52.949863	-4.523045	-1.377691	-0.545507	-0.183870	0.062561	0.529114	-0.048706	0.999971	-0.006888	-0.002728	-0.000919	
20532	    0	8.867457	34.655515	-5.148253	-1.843702	-0.161558	-2.047794	0.092257	0.345129	-0.054595	0.999905	-0.009218	-0.000808	-0.010239	
20533	    0	13.343760	21.977506	-5.895369	-1.441087	-0.145730	-3.475394	0.137268	0.216980	-0.060425	0.999823	-0.007205	-0.000729	-0.017376	
20534	    0	12.297873	21.526279	-2.971268	-1.684152	-0.254273	-4.363840	0.127671	0.212252	-0.031348	0.999725	-0.008420	-0.001271	-0.021817	
20535	    0	15.157032	16.887945	-4.865728	-2.668332	-0.513332	-4.748364	0.155640	0.164551	-0.050476	0.999625	-0.013340	-0.002566	-0.023739	
20536	    0	11.065133	22.865148	-37.201670	-1.863192	-2.424992	-5.229224	0.121033	0.222107	-0.372681	0.999541	-0.009315	-0.012123	-0.026142	
20537	    0	43.361685	29.753704	-11.945810	1.734461	0.587630	-8.032782	0.444774	0.280849	-0.118270	0.999151	0.008670	0.002937	-0.040153	
20538	    0	84.079721	-6.317126	41.374514	4.761551	0.146926	-8.704896	0.837006	-0.109474	0.410890	0.998769	0.023798	0.000734	-0.043507	
20539	    0	13.875885	8.359097	19.399730	7.063167	-3.136026	-6.300675	0.138062	0.072266	0.198853	0.998757	0.035301	-0.015674	-0.031490	
20540	    0	-7.533843	31.214019	17.747258	4.593340	-1.124678	-6.383858	-0.066439	0.310176	0.184222	0.999210	0.022961	-0.005622	-0.031911	
20541	    0	13.117545	15.824838	2.261301	1.732893	-1.222220	-5.587074	0.135376	0.154297	0.024780	0.999553	0.008663	-0.006110	-0.027931	
20542	    0	3.776569	18.745449	-1.037458	1.859273	-1.027970	-4.336206	0.041865	0.186661	-0.008429	0.999708	0.009295	-0.005139	-0.021679	
20543	    0	10.997394	12.222260	-3.798989	-0.474575	-0.451495	-3.615010	0.112244	0.120117	-0.038025	0.999831	-0.002373	-0.002257	-0.018074	
20544	    0	15.854125	3.326611	-12.111338	-0.289354	-0.413526	-2.689064	0.159218	0.030953	-0.120831	0.999906	-0.001447	-0.002068	-0.013445	
20545	    0	15.481808	7.707498	-10.633860	-0.715655	-0.524724	-2.241570	0.155945	0.074951	-0.106201	0.999927	-0.003578	-0.002624	-0.011208	
20546	    0	17.135177	5.797340	-5.375270	-0.791751	-0.346570	-1.612304	0.171904	0.056376	-0.053680	0.999958	-0.003959	-0.001733	-0.008061	
20547	    0	24.677264	7.536968	-2.280207	-1.576260	-0.057794	-1.277946	0.247253	0.073608	-0.023315	0.999948	-0.007881	-0.000289	-0.006390	
20548	    0	32.765334	3.541525	-2.778365	-2.274383	0.021554	-1.080542	0.327834	0.033325	-0.028206	0.999920	-0.011372	0.000108	-0.005403	
20549	    0	33.629338	-3.200038	1.299953	-2.307008	-0.025178	-1.387829	0.336060	-0.034180	0.013428	0.999908	-0.011535	-0.000126	-0.006939	
20550	    0	29.672083	-4.220697	2.495997	-3.130115	0.106435	-1.461483	0.296417	-0.043978	0.025481	0.999850	-0.015650	0.000532	-0.007307	
20551	    0	28.722639	-4.280916	3.272775	-4.083561	0.160420	-1.220796	0.286987	-0.043884	0.033386	0.999772	-0.020416	0.000802	-0.006104	
20552	    0	25.587520	-5.372017	3.745595	-5.109024	0.145356	-0.870993	0.255669	-0.053857	0.038645	0.999663	-0.025542	0.000727	-0.004354	
20553	    0	18.594063	-8.014605	3.889581	-6.741852	0.077262	-0.415881	0.185791	-0.079163	0.041504	0.999429	-0.033703	0.000386	-0.002079	
20554	    0	13.817532	-15.718895	2.165477	-7.511570	0.092910	0.086805	0.138255	-0.156170	0.027470	0.999294	-0.037549	0.000464	0.000434	
20555	    0	13.658298	-16.744425	0.010469	-6.586887	0.174936	0.304468	0.136841	-0.167114	0.005493	0.999455	-0.032928	0.000875	0.001522	
20556	    0	17.681508	-10.988124	1.300875	-5.007320	0.561392	0.160616	0.176944	-0.109376	0.015255	0.999681	-0.025034	0.002807	0.000803	
20557	    0	16.350381	4.824308	2.659927	-4.502505	0.745649	-0.656949	0.163757	0.048279	0.024902	0.999734	-0.022511	0.003728	-0.003284	
20558	    0	11.954032	16.288135	-1.974291	-4.903381	1.037140	-1.172195	0.120372	0.161618	-0.024339	0.999668	-0.024514	0.005185	-0.005860	
20559	    0	10.715027	12.659980	-3.903879	-5.154346	1.417922	-1.880897	0.108032	0.124512	-0.043030	0.999599	-0.025768	0.007089	-0.009403	
20560	    0	13.196719	12.232742	-8.828262	-4.288670	1.730767	-3.233957	0.133116	0.118235	-0.091996	0.999601	-0.021441	0.008653	-0.016168	
20561	    0	14.709822	12.518101	-11.802983	-3.625811	1.735933	-4.220415	0.148621	0.119873	-0.121521	0.999575	-0.018126	0.008678	-0.021099	
20562	    0	15.365614	4.732026	-12.596514	-2.837891	1.872279	-4.025734	0.153351	0.042424	-0.128027	0.999653	-0.014188	0.009360	-0.020126	
20563	    0	18.202661	-3.843022	-9.912270	-2.008827	2.079215	-3.908161	0.180176	-0.042969	-0.100586	0.999704	-0.010043	0.010395	-0.019539	
20564	    0	19.570412	-3.606425	-6.576527	-1.576407	2.376628	-4.288766	0.194066	-0.040767	-0.067769	0.999668	-0.007881	0.011882	-0.021441	
20565	    0	20.948905	-3.736823	-3.134146	-1.197959	2.720397	-4.477468	0.208130	-0.042236	-0.033936	0.999639	-0.005989	0.013600	-0.022385	
20566	    0	21.197978	-9.138696	-0.462557	-0.484335	2.862324	-4.548052	0.209736	-0.096189	-0.007409	0.999636	-0.002421	0.014310	-0.022738	
20567	    0	18.839042	-10.587019	-0.521100	0.392201	2.494561	-4.949825	0.185608	-0.110474	-0.007751	0.999614	0.001961	0.012471	-0.024746	
20568	    0	17.217390	-8.918330	-3.172608	1.324654	2.213415	-5.283926	0.169373	-0.093462	-0.034221	0.999567	0.006622	0.011065	-0.026416	
20569	    0	18.345205	-6.699945	-2.086927	2.297788	2.271653	-5.470433	0.181274	-0.071716	-0.023743	0.999495	0.011487	0.011356	-0.027348	
20570	    0	21.012376	-2.354866	-1.972139	2.533246	2.375669	-5.762042	0.209078	-0.029309	-0.022556	0.999434	0.012664	0.011876	-0.028805	
20571	    0	22.757381	-2.768170	-3.225418	2.415915	2.329115	-5.774236	0.226257	-0.033813	-0.035278	0.999442	0.012077	0.011643	-0.028866	
20572	    0	22.145345	-6.923679	-4.918063	2.556120	2.038944	-5.732814	0.218838	-0.074880	-0.052354	0.999455	0.012778	0.010193	-0.028659	
20573	    0	20.415761	-9.983680	-5.975866	2.839415	1.688883	-5.724614	0.200684	-0.104736	-0.062927	0.999454	0.014194	0.008443	-0.028618	
20574	    0	19.076196	-10.986814	-5.776352	3.099628	1.363623	-5.704400	0.187136	-0.114314	-0.060797	0.999450	0.015495	0.006817	-0.028517	
20575	    0	17.892043	-10.555926	-7.153529	3.003641	0.922554	-5.632232	0.175537	-0.109436	-0.073975	0.999479	0.015016	0.004612	-0.028156	
20576	    0	17.084914	-9.609301	-8.937007	2.296035	0.699913	-5.553711	0.167796	-0.099742	-0.091092	0.999542	0.011478	0.003499	-0.027764	
20577	    0	15.716930	-7.978513	-8.532777	1.722952	0.659460	-5.413030	0.154663	-0.083252	-0.086548	0.999591	0.008614	0.003297	-0.027061	
20578	    0	13.850040	-6.086203	-7.078872	1.089801	0.452287	-5.267210	0.136680	-0.064090	-0.071443	0.999636	0.005448	0.002261	-0.026333	
20579	    0	12.334858	-4.152307	-6.317518	0.389330	0.254085	-4.949698	0.122192	-0.044434	-0.063416	0.999691	0.001946	0.001270	-0.024746	
20580	    0	13.714973	-5.225282	-3.664263	0.093277	0.440634	-4.438768	0.135864	-0.055261	-0.036968	0.999751	0.000466	0.002203	-0.022192	
20581	    0	16.247044	-5.904130	-2.453519	0.592078	0.532755	-3.766102	0.161255	-0.062012	-0.025146	0.999814	0.002960	0.002664	-0.018829	
20582	    0	15.828991	-7.026076	-3.991410	1.357142	0.170716	-3.043888	0.157165	-0.072385	-0.040535	0.999861	0.006785	0.000854	-0.015219	
20583	    0	10.091798	-9.286704	-4.680062	1.761114	-0.151830	-2.227095	0.099915	-0.093567	-0.047546	0.999899	0.008805	-0.000759	-0.011135	
20584	    0	3.810488	-7.233112	-4.459344	1.859130	-0.162891	-1.139473	0.037730	-0.072128	-0.045234	0.999940	0.009295	-0.000814	-0.005697	
20585	    0	0.575064	-3.634301	-3.382811	1.600092	0.042725	-0.033570	0.005737	-0.036072	-0.034119	0.999968	0.008000	0.000214	-0.000168	
20586	    0	-1.969604	-0.768068	-2.935788	1.072321	0.280001	0.971421	-0.019700	-0.007619	-0.029371	0.999972	0.005362	0.001400	0.004857	
20587	    0	-4.538243	-0.482729	-2.728611	0.295454	0.585949	2.034798	-0.045410	-0.005249	-0.027161	0.999943	0.001477	0.002930	0.010174	
20588	    0	-5.608269	-2.015929	-2.167745	-0.365463	0.773081	3.070198	-0.055847	-0.021057	-0.021423	0.999872	-0.001827	0.003865	0.015350	
20589	    0	-5.082872	-3.525672	-2.541724	-0.631379	0.706725	4.091564	-0.050181	-0.036367	-0.025126	0.999778	-0.003157	0.003533	0.020456	
20590	    0	-3.899869	-4.006280	-3.448643	-0.662686	0.551285	5.084029	-0.038056	-0.041152	-0.034245	0.999667	-0.003313	0.002756	0.025417	
20591	    0	-2.812912	-2.858286	-3.715786	-0.749128	0.442571	5.935796	-0.027344	-0.029541	-0.036987	0.999550	-0.003745	0.002213	0.029675	
20592	    0	-1.959326	-1.981938	-3.918456	-0.865910	0.353308	6.683092	-0.018982	-0.020630	-0.039062	0.999431	-0.004329	0.001766	0.033409	
20593	    0	-1.141228	-2.169257	-4.259796	-0.800505	0.202034	7.332749	-0.010646	-0.022263	-0.042499	0.999318	-0.004002	0.001010	0.036655	
20594	    0	1.292589	-3.203538	-4.204759	-0.662209	0.003243	7.784725	0.014162	-0.031639	-0.041943	0.999237	-0.003310	0.000016	0.038914	
20595	    0	4.266073	-4.393346	-3.402445	-0.534779	-0.161788	8.154278	0.044434	-0.042236	-0.033875	0.999165	-0.002673	-0.000809	0.040760	
20596	    0	7.071985	-4.359998	-2.092923	-0.520672	-0.316334	8.486637	0.072518	-0.040602	-0.020707	0.999095	-0.002603	-0.001581	0.042420	
20597	    0	9.079546	-3.472132	-1.223873	-0.720255	-0.482332	8.723954	0.092224	-0.030762	-0.011902	0.999039	-0.003600	-0.002411	0.043606	
20598	    0	10.826986	-3.312126	-0.610535	-1.080685	-0.654059	8.888941	0.109618	-0.028299	-0.005587	0.998992	-0.005402	-0.003269	0.044430	
20599	    0	12.302245	-4.512476	0.260893	-1.144046	-0.920999	9.038650	0.124878	-0.039490	0.003418	0.998952	-0.005718	-0.004603	0.045177	
20600	    0	13.720723	-5.456732	-0.581206	-0.868157	-1.268655	9.187587	0.139552	-0.048213	-0.004713	0.998915	-0.004339	-0.006341	0.045921	
20601	    0	15.862665	-4.277143	-0.271088	-0.682894	-1.473784	9.306744	0.160400	-0.035339	-0.001404	0.998884	-0.003413	-0.007366	0.046516	
20602	    0	18.086751	-2.807182	0.138954	-0.527583	-1.677391	9.412355	0.181900	-0.019519	0.002972	0.998854	-0.002637	-0.008384	0.047044	
20603	    0	20.277548	-0.885185	1.274021	-0.108380	-1.880427	9.503839	0.202759	0.000793	0.014648	0.998826	-0.000542	-0.009398	0.047501	
20604	    0	22.336823	1.908093	1.496062	0.392688	-2.027363	9.543586	0.221953	0.029665	0.017267	0.998808	0.001963	-0.010133	0.047699	
20605	    0	25.140764	4.734478	0.905437	0.951195	-2.070685	9.542859	0.248657	0.059204	0.011902	0.998796	0.004754	-0.010349	0.047695	
20606	    0	29.675457	7.871367	-0.250236	1.432049	-2.103329	9.563533	0.292542	0.092773	0.001221	0.998775	0.007157	-0.010512	0.047798	
20607	    0	35.303157	14.566837	-2.008356	1.345400	-1.973355	9.408639	0.345828	0.162169	-0.015593	0.998821	0.006724	-0.009863	0.047025	
20608	    0	39.027381	24.480996	-2.587492	0.814173	-1.791295	9.311184	0.378523	0.262712	-0.021403	0.998868	0.004069	-0.008953	0.046538	
20609	    0	38.712751	29.161089	-0.764677	0.329706	-1.552940	9.076086	0.373413	0.308777	-0.004211	0.998939	0.001648	-0.007762	0.045364	
20610	    0	39.213090	30.237547	1.329046	0.675389	-1.436252	8.014810	0.379488	0.317701	0.017102	0.999166	0.003376	-0.007179	0.040063	
20611	    0	33.621183	33.883823	1.831679	1.556882	-1.291901	6.432035	0.324951	0.349243	0.023132	0.999432	0.007783	-0.006458	0.032154	
20612	    0	27.375241	35.905139	-3.874096	1.713732	-1.026446	4.451240	0.265851	0.365334	-0.034250	0.999702	0.008568	-0.005132	0.022254	
20613	    0	23.499222	40.059883	-6.371263	1.895999	-1.015332	2.699414	0.229858	0.404297	-0.058716	0.999850	0.009480	-0.005076	0.013496	
20614	    0	14.495404	52.384476	-1.414249	1.947452	-1.022365	1.124601	0.142057	0.524749	-0.008305	0.999923	0.009737	-0.005112	0.005623	
20615	    0	8.401767	56.622261	3.350054	0.773817	-0.752263	-0.682073	0.085815	0.565796	0.036011	0.999979	0.003869	-0.003761	-0.003410	
20616	    0	10.280066	40.977015	0.826765	0.201993	-0.529875	-2.412858	0.107711	0.408482	0.008962	0.999923	0.001010	-0.002649	-0.012064	
20617	    0	13.734003	27.555296	0.029554	0.403810	-0.355551	-3.782884	0.142517	0.272888	0.001099	0.999817	0.002019	-0.001778	-0.018913	
20618	    0	16.988799	23.294505	1.515967	0.569780	-0.457617	-4.743459	0.175311	0.228785	0.016212	0.999712	0.002849	-0.002288	-0.023715	
20619	    0	15.204986	19.226306	-1.503623	-0.041013	-0.784397	-5.338172	0.157166	0.188110	-0.014465	0.999636	-0.000205	-0.003922	-0.026688	
20620	    0	11.790282	30.872462	-37.597770	1.979677	-2.467108	-6.405094	0.132383	0.308331	-0.371350	0.999362	0.009896	-0.012333	-0.032019	
20621	    0	58.336593	16.171565	14.559648	3.453725	1.495132	-8.460206	0.590515	0.134338	0.143677	0.998928	0.017262	0.007473	-0.042286	
20622	    0	58.729480	2.491528	37.350270	5.974938	-1.457241	-7.803693	0.584637	-0.009185	0.377835	0.998766	0.029862	-0.007283	-0.039002	
20623	    0	2.114414	12.009571	2.140895	5.970488	-2.583230	-6.213185	0.024536	0.118652	0.025269	0.998988	0.029842	-0.012912	-0.031055	
20624	    0	2.800772	25.757283	11.633182	3.623268	-1.376849	-6.328127	0.035268	0.254367	0.121186	0.999311	0.018112	-0.006883	-0.031633	
