// Start Time: Unknown
// Update Rate: 100.0Hz
// Filter Profile: human (34.3)
// Firmware Version: 2.1.4
PacketCounter	SampleTimeFine	Acc_X	Acc_Y	Acc_Z	Gyr_X	Gyr_Y	Gyr_Z	VelInc_X	VelInc_Y	VelInc_Z	OriInc_q0	OriInc_q1	OriInc_q2	OriInc_q3	
28497	    0	10.432970	-3.549526	-2.101307	-0.384638	-0.608819	8.485688	0.105774	-0.031067	-0.020630	0.999093	-0.001923	-0.003043	0.042416	
28498	    0	12.676558	-3.190078	-2.312448	-0.632682	-0.783030	8.767302	0.128092	-0.026376	-0.022535	0.999026	-0.003162	-0.003914	0.043822	
28499	    0	14.922982	-3.389329	-1.757777	-1.004947	-0.940266	8.997399	0.150635	-0.027222	-0.016724	0.998964	-0.005023	-0.004700	0.044971	
28500	    0	17.312929	-3.192041	-1.187418	-1.200351	-1.140247	9.206122	0.174418	-0.023976	-0.010722	0.998906	-0.006000	-0.005699	0.046014	
28501	    0	19.163109	-1.266176	-0.253223	-1.235678	-1.451482	9.453431	0.191956	-0.003601	-0.001099	0.998837	-0.006176	-0.007255	0.047249	
28502	    0	20.091187	-0.409567	1.655425	-0.916659	-1.791720	9.612895	0.200638	0.005636	0.018342	0.998794	-0.004581	-0.008955	0.048045	
28503	    0	22.590089	0.639938	3.150454	-0.247862	-2.064566	9.507689	0.224915	0.017151	0.033813	0.998816	-0.001239	-0.010319	0.047520	
28504	    0	25.346623	4.711405	2.912692	0.562697	-2.162253	9.428279	0.250539	0.058887	0.032001	0.998826	0.002812	-0.010807	0.047123	
28505	    0	28.985233	11.425926	0.816966	1.195424	-1.966868	9.433637	0.283936	0.127686	0.011719	0.998821	0.005975	-0.009830	0.047150	
28506	    0	35.540957	20.080760	-1.506297	1.342725	-1.640006	9.443917	0.345504	0.217364	-0.010779	0.998829	0.006711	-0.008197	0.047201	
28507	    0	38.910214	26.200670	-0.671618	1.082432	-1.402792	9.164704	0.376587	0.279480	-0.002563	0.998911	0.005410	-0.007011	0.045807	
28508	    0	37.376795	25.232087	1.014576	1.539706	-1.230429	8.381571	0.362685	0.267578	0.014421	0.999073	0.007696	-0.006150	0.041895	
28509	    0	36.681300	28.677022	0.977800	2.683127	-1.083438	6.936752	0.356506	0.299072	0.015686	0.999293	0.013412	-0.005416	0.034676	
28510	    0	31.572176	36.207598	-3.050441	3.365486	-0.978627	5.134074	0.306407	0.370449	-0.022802	0.999516	0.016825	-0.004892	0.025666	
28511	    0	23.043705	43.282912	-6.257862	3.167444	-0.981994	3.334353	0.223450	0.437500	-0.054565	0.999723	0.015836	-0.004910	0.016670	
28512	    0	13.783599	49.961317	-4.986568	2.439034	-1.010558	1.905525	0.133293	0.501451	-0.043077	0.999867	0.012195	-0.005053	0.009527	
28513	    0	9.258410	52.224020	-0.155770	1.065835	-0.786406	0.487522	0.091309	0.522461	0.001587	0.999974	0.005329	-0.003932	0.002438	
28514	    0	10.035220	38.672178	0.090974	0.436596	-0.685316	-1.117334	0.102505	0.386149	0.002102	0.999975	0.002183	-0.003427	-0.005587	
28515	    0	12.197836	28.172132	1.643604	0.703453	-0.543802	-2.622307	0.125610	0.280029	0.017761	0.999904	0.003517	-0.002719	-0.013111	
28516	    0	11.436133	25.629877	3.741039	1.005424	-0.428035	-3.634671	0.118909	0.253972	0.038942	0.999820	0.005027	-0.002140	-0.018172	
28517	    0	14.843983	20.655207	2.623918	0.578543	-0.517312	-4.186565	0.152649	0.203308	0.027222	0.999773	0.002892	-0.002586	-0.020931	
28518	    0	14.987422	12.278678	-1.165078	-0.209446	-0.627193	-4.594834	0.152678	0.119288	-0.011301	0.999730	-0.001047	-0.003136	-0.022972	
28519	    0	15.406711	13.914808	-13.030310	-0.275267	-0.696656	-5.590799	0.158325	0.134583	-0.129944	0.999601	-0.001376	-0.003483	-0.027950	
28520	    0	34.517932	18.271350	-30.861684	2.828298	-1.621621	-6.695960	0.353605	0.175282	-0.303258	0.999307	0.014138	-0.008106	-0.033472	
28521	    0	62.479712	20.032879	10.229322	5.510340	-0.635816	-8.813644	0.632385	0.169617	0.109253	0.998644	0.027539	-0.003178	-0.044048	
28522	    0	20.325840	19.287836	6.697895	6.394301	-2.732237	-6.976468	0.208771	0.183329	0.075771	0.998787	0.031959	-0.013656	-0.034868	
28523	    0	10.500967	18.456551	18.481976	2.931256	-1.307953	-6.328384	0.109497	0.178406	0.188171	0.999371	0.014653	-0.006538	-0.031635	
28524	    0	10.551258	10.327451	3.620887	1.745506	-1.994073	-5.632547	0.107985	0.099929	0.038159	0.999516	0.008726	-0.009969	-0.028158	
28525	    0	4.946149	21.903243	1.711882	0.229098	-1.482554	-4.910055	0.054688	0.217712	0.017761	0.999670	0.001145	-0.007412	-0.024548	
28526	    0	6.578641	10.153286	-5.428007	-1.033477	-0.714926	-3.986840	0.067984	0.099911	-0.054559	0.999782	-0.005167	-0.003574	-0.019933	
28527	    0	9.706391	2.690224	-7.026566	-1.099446	-0.568988	-3.061815	0.097656	0.025024	-0.070129	0.999864	-0.005497	-0.002845	-0.015308	
28528	    0	16.095577	9.728829	-9.535487	-0.830678	-0.226219	-2.711197	0.162359	0.094697	-0.095569	0.999898	-0.004153	-0.001131	-0.013556	
28529	    0	20.216286	9.063992	-7.740984	-1.712088	-0.285157	-2.054658	0.203186	0.087891	-0.077881	0.999909	-0.008560	-0.001426	-0.010273	
28530	    0	27.449016	2.636436	-4.574677	-1.856474	-0.046350	-1.804021	0.274721	0.023461	-0.045910	0.999916	-0.009282	-0.000232	-0.009020	
28531	    0	31.229404	1.024752	-1.888278	-2.124095	-0.070002	-1.899784	0.312378	0.007080	-0.018860	0.999898	-0.010620	-0.000350	-0.009499	
28532	    0	31.091332	-1.419286	-0.256989	-2.497208	-0.004387	-2.026264	0.310748	-0.017372	-0.002359	0.999870	-0.012486	-0.000022	-0.010131	
28533	    0	27.222727	-4.451785	1.685386	-3.257947	0.109298	-1.940271	0.271790	-0.046875	0.017456	0.999820	-0.016289	0.000546	-0.009701	
28534	    0	24.381407	-7.120266	3.279803	-4.149787	0.214595	-1.730111	0.243226	-0.072611	0.034034	0.999746	-0.020747	0.001073	-0.008650	
28535	    0	22.186837	-4.353775	6.013554	-5.111537	0.248938	-1.491723	0.221619	-0.043640	0.060974	0.999644	-0.025555	0.001245	-0.007458	
28536	    0	18.490336	-3.351586	6.944729	-6.470706	0.290732	-1.199176	0.184809	-0.032360	0.070238	0.999457	-0.032348	0.001453	-0.005995	
28537	    0	13.424751	-10.753614	3.878472	-7.246474	0.171890	-0.695955	0.133911	-0.106506	0.042542	0.999337	-0.036224	0.000859	-0.003479	
28538	    0	11.851431	-14.231254	-1.974750	-5.903353	0.143454	-0.753132	0.117964	-0.143259	-0.015613	0.999557	-0.029512	0.000717	-0.003765	
28539	    0	17.016074	-13.067141	-2.190604	-3.443335	0.516729	-1.024684	0.169434	-0.131897	-0.020081	0.999835	-0.017216	0.002584	-0.005123	
28540	    0	17.902555	-1.304889	-3.174873	-2.117788	0.426113	-1.400796	0.178859	-0.014640	-0.031981	0.999917	-0.010589	0.002131	-0.007004	
28541	    0	15.876956	-0.836955	-3.179807	-1.621091	0.405130	-1.586949	0.158630	-0.009888	-0.032043	0.999933	-0.008105	0.002026	-0.007935	
28542	    0	12.416522	-0.339787	-5.225099	-1.536987	0.787758	-2.017462	0.123913	-0.005053	-0.052705	0.999911	-0.007685	0.003939	-0.010087	
28543	    0	11.349182	2.096866	-5.835241	-1.360198	1.266542	-2.903891	0.113403	0.018921	-0.059204	0.999851	-0.006801	0.006332	-0.014519	
28544	    0	12.080667	7.475207	-6.043049	-1.379871	1.375866	-3.576717	0.121691	0.072158	-0.061769	0.999792	-0.006899	0.006879	-0.017882	
28545	    0	13.817636	9.411322	-8.709851	-1.042069	1.328385	-4.076716	0.139465	0.090820	-0.088501	0.999756	-0.005210	0.006641	-0.020382	
28546	    0	15.452425	1.586278	-9.177793	-0.300811	1.422033	-3.948121	0.154138	0.012678	-0.092896	0.999779	-0.001504	0.007110	-0.019739	
28547	    0	14.900204	-4.268324	-9.238714	0.457036	1.539920	-3.974456	0.147400	-0.045410	-0.093628	0.999770	0.002285	0.007699	-0.019871	
28548	    0	16.155876	-8.233541	-7.829023	0.963682	1.716965	-4.302045	0.159061	-0.085392	-0.080070	0.999720	0.004818	0.008584	-0.021508	
28549	    0	18.434550	-8.764183	-5.288978	1.623150	1.701551	-4.699485	0.181763	-0.091492	-0.055176	0.999655	0.008115	0.008507	-0.023495	
28550	    0	21.125655	-8.573108	-0.920914	2.195471	1.632344	-5.072533	0.208904	-0.090929	-0.011900	0.999584	0.010976	0.008161	-0.025359	
28551	    0	22.335659	-6.808132	1.085062	2.552436	1.191327	-5.474192	0.221436	-0.074280	0.008606	0.999526	0.012760	0.005956	-0.027367	
28552	    0	22.489084	-7.015410	0.528941	2.263612	0.945238	-5.599322	0.222828	-0.076458	0.003391	0.999533	0.011316	0.004725	-0.027992	
28553	    0	21.419951	-6.072035	-0.172221	1.408009	0.821036	-5.527498	0.212402	-0.066589	-0.003052	0.999584	0.007039	0.004105	-0.027634	
28554	    0	20.522646	-8.819250	-0.773747	0.396583	0.750246	-5.184197	0.202818	-0.093454	-0.008683	0.999655	0.001983	0.003751	-0.025918	
28555	    0	17.556429	-9.869484	-2.446009	0.145927	0.493671	-4.863461	0.173035	-0.102905	-0.024963	0.999701	0.000730	0.002468	-0.024315	
28556	    0	14.307995	-9.072948	-5.489243	0.124179	0.101861	-4.571360	0.140929	-0.093933	-0.055022	0.999738	0.000621	0.000509	-0.022855	
28557	    0	12.600105	-10.673166	-7.500716	0.029757	-0.115784	-4.065985	0.123840	-0.109253	-0.074951	0.999793	0.000149	-0.000579	-0.020329	
28558	    0	11.593780	-10.510215	-6.671931	-0.265898	-0.022889	-3.549954	0.114055	-0.107226	-0.066565	0.999841	-0.001329	-0.000114	-0.017749	
28559	    0	12.929346	-8.358954	-5.068965	-0.331892	0.267230	-3.051116	0.127930	-0.085632	-0.050720	0.999881	-0.001659	0.001336	-0.015255	
28560	    0	15.631881	-8.230744	-4.036773	-0.138859	0.435459	-2.424683	0.155217	-0.084222	-0.040648	0.999924	-0.000694	0.002177	-0.012123	
28561	    0	15.810612	-10.342365	-3.822132	0.174906	0.254825	-1.709769	0.157166	-0.104736	-0.038513	0.999962	0.000875	0.001274	-0.008549	
28562	    0	11.689036	-11.670624	-4.005778	0.481226	-0.011253	-0.979238	0.116320	-0.117180	-0.040333	0.999985	0.002406	-0.000056	-0.004896	
28563	    0	7.583382	-9.834107	-3.854847	0.459481	-0.045013	-0.199127	0.075745	-0.098328	-0.038757	0.999996	0.002297	-0.000225	-0.000996	
28564	    0	4.707715	-6.886792	-3.545551	0.209237	0.027466	0.663568	0.047300	-0.068674	-0.035534	0.999993	0.001046	0.000137	0.003318	
28565	    0	3.304468	-5.810176	-3.424366	0.167276	0.057984	1.635761	0.033508	-0.057800	-0.034302	0.999966	0.000836	0.000290	0.008179	
28566	    0	3.266315	-5.114964	-3.317681	0.365268	0.082209	2.614097	0.033314	-0.050656	-0.033283	0.999912	0.001826	0.000411	0.013070	
28567	    0	2.942058	-3.450137	-3.769574	0.496701	0.002480	3.574565	0.030029	-0.033875	-0.037781	0.999837	0.002483	0.000012	0.017872	
28568	    0	3.093335	-3.274101	-4.487260	0.152409	-0.055318	4.404997	0.031656	-0.032015	-0.044888	0.999757	0.000762	-0.000277	0.022023	
28569	    0	3.351708	-3.906742	-4.405419	-0.120558	-0.144021	5.180176	0.034546	-0.038208	-0.044006	0.999663	-0.000603	-0.000720	0.025898	
28570	    0	3.756280	-3.585165	-4.230790	-0.249327	-0.269548	5.894182	0.038655	-0.034776	-0.042212	0.999563	-0.001246	-0.001348	0.029467	
28571	    0	4.453605	-3.023509	-4.244036	-0.264788	-0.460708	6.553304	0.045593	-0.028809	-0.042297	0.999459	-0.001324	-0.002303	0.032761	
28572	    0	5.511744	-3.117134	-3.961820	-0.254113	-0.644250	7.135775	0.056311	-0.029226	-0.039400	0.999357	-0.001270	-0.003221	0.035671	
28573	    0	6.642950	-3.267843	-3.418334	-0.272246	-0.792126	7.645011	0.067749	-0.030151	-0.033875	0.999260	-0.001361	-0.003960	0.038216	
28574	    0	7.780269	-3.576339	-2.916485	-0.344562	-0.945542	8.068018	0.079298	-0.032634	-0.028734	0.999173	-0.001722	-0.004726	0.040329	
28575	    0	9.945048	-3.767842	-2.918002	-0.473928	-1.059852	8.429972	0.101074	-0.033508	-0.028564	0.999095	-0.002369	-0.005298	0.042137	
28576	    0	12.747858	-3.637693	-2.295376	-0.775209	-1.176456	8.745191	0.129040	-0.030843	-0.022071	0.999019	-0.003875	-0.005880	0.043712	
28577	    0	15.893529	-3.673240	-0.592674	-1.073636	-1.319579	8.950086	0.160400	-0.029602	-0.004700	0.998962	-0.005366	-0.006596	0.044735	
28578	    0	18.798302	-2.224544	0.564223	-1.140252	-1.571854	9.209981	0.188687	-0.013527	0.007217	0.998893	-0.005699	-0.007856	0.046033	
28579	    0	21.041145	-0.768058	2.633359	-1.014913	-1.826424	9.433601	0.210205	0.002380	0.028259	0.998833	-0.005073	-0.009129	0.047150	
28580	    0	22.770634	-0.127912	4.946835	-0.551818	-2.022762	9.399040	0.226912	0.009541	0.051750	0.998840	-0.002758	-0.010110	0.046977	
28581	    0	24.781110	2.632746	4.760799	0.325325	-2.084371	9.259461	0.245728	0.037659	0.050232	0.998873	0.001626	-0.010418	0.046280	
28582	    0	26.924471	8.433284	3.503225	1.118508	-1.935161	9.234277	0.264619	0.096417	0.038125	0.998872	0.005590	-0.009672	0.046154	
28583	    0	31.274695	16.273866	1.204719	1.473979	-1.581402	9.228918	0.304688	0.176819	0.015747	0.998877	0.007367	-0.007904	0.046127	
28584	    0	36.402740	24.773727	-0.802667	1.314625	-1.236206	9.004514	0.352422	0.263818	-0.004125	0.998945	0.006571	-0.006179	0.045007	
28585	    0	35.865353	26.996806	-1.685969	1.306742	-1.087521	8.393373	0.346985	0.284790	-0.013123	0.999083	0.006532	-0.005436	0.041954	
28586	    0	34.096191	28.121601	-2.434610	2.200078	-1.034029	7.156931	0.330715	0.293406	-0.019435	0.999286	0.010998	-0.005169	0.035776	
28587	    0	30.349751	37.466475	-3.132617	2.946958	-0.963561	5.474994	0.293213	0.383179	-0.024292	0.999505	0.014732	-0.004817	0.027370	
28588	    0	24.348763	45.189299	-4.596300	2.561807	-0.948994	3.846716	0.234926	0.456996	-0.039002	0.999722	0.012808	-0.004745	0.019232	
28589	    0	16.684200	47.074758	-2.496527	1.716876	-0.944559	2.487287	0.161072	0.472961	-0.020142	0.999874	0.008584	-0.004723	0.012436	
28590	    0	12.896130	48.443323	0.731602	0.799950	-0.760659	1.128971	0.126190	0.485115	0.009739	0.999969	0.004000	-0.003803	0.005645	
28591	    0	10.854604	43.165599	0.343435	0.126839	-0.588227	-0.247956	0.109070	0.431519	0.004028	0.999994	0.000634	-0.002941	-0.001240	
28592	    0	11.502488	32.817005	-0.742484	0.298314	-0.567826	-1.798085	0.117989	0.327128	-0.006604	0.999954	0.001492	-0.002839	-0.008990	
28593	    0	16.383117	26.436560	0.291004	0.708994	-0.664551	-3.161002	0.167969	0.261719	0.004395	0.999863	0.003545	-0.003323	-0.015804	
28594	    0	12.926659	24.530932	0.618830	0.675635	-0.753079	-4.162344	0.134307	0.242525	0.007510	0.999770	0.003378	-0.003765	-0.020810	
28595	    0	18.929361	29.666528	-3.139615	0.700464	-0.411847	-5.351911	0.197205	0.291565	-0.029968	0.999633	0.003502	-0.002059	-0.026756	
28596	    0	34.381390	5.556580	-11.488322	-0.101489	-0.288251	-6.453492	0.345531	0.044375	-0.114410	0.999477	-0.000507	-0.001441	-0.032262	
28597	    0	51.287574	19.625318	-3.707632	4.273831	-1.370488	-7.536443	0.520020	0.177429	-0.029602	0.999038	0.021362	-0.006850	-0.037670	
28598	    0	37.573431	17.002734	13.432039	4.993143	-1.606881	-8.801304	0.381510	0.149848	0.141281	0.998688	0.024955	-0.008031	-0.043987	
28599	    0	15.861930	4.749844	8.136405	5.294414	-1.958336	-6.764120	0.159241	0.039917	0.084045	0.999029	0.026464	-0.009789	-0.033810	
28600	    0	11.627666	18.825857	12.160506	3.151142	-1.744890	-6.780382	0.121440	0.182241	0.125553	0.999261	0.015752	-0.008722	-0.033894	
28601	    0	6.083971	15.828126	-2.944755	1.498678	-1.934966	-6.037445	0.065857	0.156555	-0.027649	0.999469	0.007492	-0.009673	-0.030182	
28602	    0	-1.509678	21.652299	-5.115954	-0.168436	-1.470527	-4.756084	-0.009566	0.216751	-0.051426	0.999689	-0.000842	-0.007352	-0.023778	
28603	    0	0.822581	3.423770	-10.372659	-1.422224	-0.517120	-3.930192	0.009155	0.033325	-0.103943	0.999778	-0.007111	-0.002585	-0.019650	
28604	    0	8.856444	6.003676	-9.476540	-1.047372	-0.129324	-3.118656	0.089542	0.058148	-0.095016	0.999864	-0.005237	-0.000647	-0.015593	
28605	    0	19.278050	10.027306	-6.636966	-1.107068	0.043680	-2.824510	0.194153	0.097168	-0.066956	0.999885	-0.005535	0.000218	-0.014122	
28606	    0	24.053396	7.393827	-4.129783	-1.644758	-0.113491	-2.179023	0.241342	0.070970	-0.041753	0.999907	-0.008224	-0.000567	-0.010895	
28607	    0	26.925796	2.099770	-1.899866	-1.630259	-0.127415	-2.106538	0.269470	0.018005	-0.018982	0.999910	-0.008151	-0.000637	-0.010532	
28608	    0	28.446980	2.184981	-1.316829	-1.843518	0.005722	-2.278219	0.284693	0.018485	-0.013357	0.999892	-0.009217	0.000029	-0.011391	
28609	    0	29.203462	-0.204336	0.932566	-2.296548	0.107770	-2.268318	0.291992	-0.005249	0.009216	0.999869	-0.011482	0.000539	-0.011341	
28610	    0	25.173082	-5.673005	2.752718	-3.058994	0.114257	-2.153522	0.251120	-0.059008	0.028275	0.999825	-0.015294	0.000571	-0.010767	
28611	    0	23.095516	-4.615793	4.338730	-3.809650	0.188651	-1.980743	0.230530	-0.047607	0.044067	0.999768	-0.019047	0.000943	-0.009903	
28612	    0	21.343122	-1.514241	6.826499	-5.016532	0.236730	-1.689918	0.213384	-0.015231	0.068394	0.999649	-0.025080	0.001184	-0.008449	
28613	    0	16.478399	-4.868835	6.511859	-6.511163	0.183139	-1.225505	0.164551	-0.047546	0.066528	0.999451	-0.032550	0.000916	-0.006126	
28614	    0	12.349465	-10.029021	2.576806	-6.690337	0.054942	-0.786930	0.123109	-0.099839	0.029079	0.999433	-0.033445	0.000275	-0.003934	
28615	    0	13.167554	-12.523962	-0.781031	-5.115891	0.159472	-0.805754	0.131165	-0.125916	-0.004700	0.999664	-0.025577	0.000797	-0.004028	
28616	    0	16.825393	-9.313786	-0.495936	-2.989320	0.342002	-0.914993	0.167818	-0.093969	-0.003846	0.999876	-0.014946	0.001710	-0.004575	
28617	    0	18.492192	0.234267	-3.121898	-2.473527	0.345050	-1.123082	0.184875	0.000916	-0.031555	0.999906	-0.012367	0.001725	-0.005615	
28618	    0	16.529181	-0.097856	-2.681958	-2.117208	0.366220	-1.094272	0.165233	-0.002169	-0.027103	0.999927	-0.010586	0.001831	-0.005471	
28619	    0	12.960811	-1.578310	-3.012282	-2.026228	0.773640	-1.166564	0.129395	-0.016846	-0.030457	0.999924	-0.010131	0.003868	-0.005833	
28620	    0	11.206123	-1.019737	-2.942022	-1.616912	1.248973	-1.918856	0.111769	-0.011512	-0.030029	0.999902	-0.008084	0.006245	-0.009594	
28621	    0	14.588402	10.825884	-4.615172	-1.046039	1.390332	-2.884810	0.147095	0.105896	-0.047729	0.999858	-0.005230	0.006951	-0.014423	
28622	    0	14.651671	12.769920	-8.298570	-1.496033	1.412867	-3.433075	0.148077	0.124536	-0.084968	0.999800	-0.007480	0.007064	-0.017164	
28623	    0	14.135559	3.392261	-6.984572	-1.334470	1.826789	-3.286961	0.141235	0.031128	-0.071350	0.999801	-0.006672	0.009133	-0.016434	
28624	    0	14.478627	-1.857891	-6.872726	-0.379013	2.042895	-3.217894	0.143749	-0.021029	-0.070161	0.999816	-0.001895	0.010214	-0.016088	
28625	    0	15.267093	-7.488801	-8.447850	1.057701	2.122651	-3.428898	0.150452	-0.077026	-0.086487	0.999783	0.005288	0.010612	-0.017143	
28626	    0	16.365574	-11.950921	-8.545792	2.280467	2.123667	-3.829964	0.160411	-0.121604	-0.088552	0.999695	0.011401	0.010617	-0.019148	
28627	    0	17.981652	-10.741922	-6.017237	3.405691	2.034296	-4.429516	0.176758	-0.110291	-0.063843	0.999557	0.017026	0.010170	-0.022144	
28628	    0	20.406632	-10.813896	-3.140403	3.657600	1.767659	-5.051353	0.200959	-0.112620	-0.035222	0.999475	0.018285	0.008837	-0.025252	
28629	    0	23.217848	-7.586536	-0.009118	3.551407	1.597332	-5.591902	0.229919	-0.082275	-0.003357	0.999419	0.017754	0.007985	-0.027954	
28630	    0	25.477540	-2.243954	0.709410	2.878154	1.146340	-5.934679	0.253992	-0.030069	0.005240	0.999439	0.014388	0.005731	-0.029668	
28631	    0	26.166082	-4.645495	-1.775607	1.499586	0.785942	-5.674810	0.260132	-0.053711	-0.019165	0.999561	0.007497	0.003929	-0.028370	
28632	    0	20.996888	-6.248692	-3.792664	0.462205	0.676044	-5.268721	0.208097	-0.067897	-0.038785	0.999644	0.002311	0.003380	-0.026340	
28633	    0	18.375989	-10.208912	-5.396132	-0.528771	0.567113	-4.899336	0.181030	-0.106689	-0.054199	0.999692	-0.002644	0.002835	-0.024494	
28634	    0	15.537113	-9.072751	-8.700258	-0.346597	0.138295	-4.655498	0.153141	-0.094460	-0.086947	0.999727	-0.001733	0.000691	-0.023275	
28635	    0	14.137853	-8.788791	-11.110306	-0.224894	-0.231188	-4.266683	0.139587	-0.091003	-0.110840	0.999771	-0.001124	-0.001156	-0.021332	
28636	    0	14.519672	-9.061283	-8.971478	-0.413918	0.015832	-3.652778	0.143500	-0.093430	-0.089535	0.999830	-0.002069	0.000079	-0.018263	
28637	    0	16.486698	-7.561941	-6.022446	-0.088504	0.211533	-3.022119	0.163635	-0.078125	-0.060364	0.999885	-0.000443	0.001058	-0.015110	
28638	    0	16.504974	-8.765593	-4.529360	0.317390	-0.050737	-2.366885	0.164009	-0.089529	-0.045393	0.999928	0.001587	-0.000254	-0.011834	
28639	    0	12.517513	-10.542933	-3.763656	0.522620	-0.311092	-1.592274	0.124390	-0.106323	-0.037720	0.999963	0.002613	-0.001555	-0.007961	
28640	    0	7.789447	-9.410114	-2.861087	0.603297	-0.408937	-0.639346	0.077652	-0.094263	-0.028736	0.999988	0.003016	-0.002045	-0.003197	
28641	    0	4.396295	-7.426915	-2.853030	0.344849	-0.425530	0.282288	0.044128	-0.074158	-0.028564	0.999995	0.001724	-0.002128	0.001411	
28642	    0	1.567159	-6.274820	-3.467062	0.218012	-0.422100	1.307117	0.016154	-0.062606	-0.034705	0.999975	0.001090	-0.002110	0.006536	
28643	    0	0.426687	-5.636065	-3.517913	0.171856	-0.429545	2.352962	0.005005	-0.056274	-0.035217	0.999928	0.000859	-0.002148	0.011765	
28644	    0	0.281151	-4.553252	-3.286821	0.180063	-0.548771	3.394295	0.003674	-0.045445	-0.032900	0.999851	0.000900	-0.002744	0.016971	
28645	    0	0.396522	-3.781065	-3.322624	-0.039676	-0.682693	4.260584	0.004883	-0.037720	-0.033203	0.999766	-0.000198	-0.003413	0.021301	
28646	    0	0.818630	-2.969104	-3.476360	-0.284798	-0.806324	5.044534	0.009072	-0.029519	-0.034686	0.999672	-0.001424	-0.004031	0.025220	
28647	    0	1.631870	-2.316278	-3.645229	-0.509527	-0.924816	5.799179	0.017151	-0.022766	-0.036316	0.999565	-0.002547	-0.004623	0.028992	
28648	    0	2.883574	-2.737856	-3.282959	-0.660445	-1.074988	6.519180	0.029885	-0.026524	-0.032582	0.999449	-0.003302	-0.005374	0.032590	
28649	    0	3.939673	-3.651012	-2.721624	-0.629373	-1.232418	7.129710	0.040833	-0.035156	-0.026855	0.999340	-0.003146	-0.006161	0.035641	
28650	    0	4.858992	-4.102529	-2.128644	-0.621378	-1.330707	7.589322	0.050241	-0.039205	-0.020832	0.999252	-0.003106	-0.006652	0.037937	
28651	    0	6.527234	-4.741199	-1.572249	-0.560914	-1.375003	7.977194	0.067200	-0.044800	-0.015137	0.999177	-0.002804	-0.006873	0.039875	
28652	    0	9.176402	-4.534661	-0.723478	-0.547000	-1.403845	8.317753	0.093591	-0.041497	-0.006465	0.999106	-0.002734	-0.007017	0.041576	
28653	    0	11.620991	-3.749539	-0.087847	-0.802105	-1.473514	8.575115	0.117676	-0.032471	0.000122	0.999045	-0.004009	-0.007365	0.042862	
28654	    0	13.836759	-3.957233	1.388996	-1.167496	-1.525052	8.739526	0.139805	-0.033397	0.015160	0.998999	-0.005836	-0.007623	0.043683	
28655	    0	16.581020	-5.031086	3.345445	-1.098062	-1.667605	8.931034	0.167542	-0.042664	0.035095	0.998953	-0.005488	-0.008335	0.044640	
28656	    0	20.293397	-3.188920	4.712698	-0.812255	-1.805393	9.156523	0.203667	-0.022377	0.049067	0.998902	-0.004060	-0.009024	0.045766	
28657	    0	21.828053	0.902723	7.193423	-0.605048	-1.865325	9.291516	0.216858	0.019348	0.073914	0.998873	-0.003024	-0.009323	0.046440	
28658	    0	20.820456	3.037577	7.617539	-0.083764	-2.017789	9.343080	0.205701	0.040059	0.078244	0.998857	-0.000419	-0.010085	0.046698	
28659	    0	24.167208	3.158197	5.789806	0.939544	-1.952167	9.412227	0.239258	0.042603	0.060425	0.998834	0.004696	-0.009757	0.047043	
28660	    0	29.973187	9.096733	2.979649	1.719763	-1.566161	9.381131	0.294787	0.104601	0.032979	0.998832	0.008595	-0.007828	0.046887	
28661	    0	36.173385	19.400768	-0.311094	1.959199	-1.101143	9.212130	0.352295	0.210388	0.000854	0.998876	0.009792	-0.005504	0.046043	
28662	    0	38.646420	27.007229	-3.170760	1.946546	-0.997886	8.814216	0.374204	0.287026	-0.027081	0.998969	0.009729	-0.004988	0.044056	
28663	    0	34.925406	27.373098	-5.185711	2.477983	-1.039998	7.901005	0.338318	0.287842	-0.046570	0.999129	0.012386	-0.005198	0.039494	
28664	    0	32.859253	34.439385	-4.154926	3.346996	-1.073885	6.402294	0.317530	0.355289	-0.033938	0.999332	0.016731	-0.005368	0.032004	
28665	    0	28.107641	44.876072	-4.035880	3.158995	-1.064253	4.608776	0.270813	0.455627	-0.031738	0.999595	0.015793	-0.005321	0.023041	
28666	    0	20.993289	48.519929	-3.199020	2.272746	-1.046245	2.912510	0.202979	0.488503	-0.025377	0.999815	0.011363	-0.005231	0.014562	
28667	    0	14.732907	51.120664	-0.322414	1.594006	-0.924703	1.379425	0.143799	0.512207	0.001526	0.999933	0.007970	-0.004623	0.006897	
28668	    0	11.054219	52.039620	1.061589	0.549509	-0.595476	-0.041390	0.110615	0.520341	0.012375	0.999991	0.002748	-0.002977	-0.000207	
28669	    0	10.913303	37.791702	-2.663583	0.282482	-0.512701	-1.580829	0.112183	0.377075	-0.025818	0.999964	0.001412	-0.002563	-0.007904	
28670	    0	12.646498	27.903846	-1.919120	0.756679	-0.496123	-3.134485	0.130863	0.277080	-0.017819	0.999866	0.003783	-0.002481	-0.015672	
28671	    0	17.502091	25.941866	-0.164663	0.873831	-0.723329	-4.393382	0.180664	0.255493	0.000122	0.999743	0.004369	-0.003616	-0.021965	
28672	    0	13.741134	22.202352	-2.239901	0.446557	-0.687481	-4.968024	0.142944	0.218567	-0.021423	0.999682	0.002233	-0.003437	-0.024837	
28673	    0	22.760565	17.006668	-13.749029	-0.343945	-0.544055	-5.889228	0.232849	0.163025	-0.137146	0.999561	-0.001719	-0.002720	-0.029442	
28674	    0	45.845498	8.237583	-9.895902	2.289942	-0.940740	-7.190911	0.461503	0.066927	-0.095967	0.999277	0.011447	-0.004703	-0.035946	
28675	    0	52.620077	13.570712	18.678508	5.391777	-1.292798	-8.654016	0.530029	0.107666	0.193359	0.998679	0.026947	-0.006461	-0.043251	
28676	    0	14.761577	5.845267	3.614894	6.577726	-2.674252	-6.971565	0.148987	0.052002	0.039917	0.998762	0.032875	-0.013366	-0.034843	
28677	    0	6.580361	28.818842	12.906640	3.852293	-1.484102	-6.608918	0.074232	0.283264	0.135085	0.999240	0.019257	-0.007419	-0.033036	
28678	    0	9.973056	14.804002	-0.806465	1.954783	-1.871990	-5.681212	0.103943	0.145190	-0.005676	0.999504	0.009772	-0.009358	-0.028401	
28679	    0	0.649277	24.643172	-1.819993	0.199337	-1.381050	-4.539153	0.012207	0.246216	-0.017883	0.999718	0.000997	-0.006905	-0.022694	
28680	    0	6.118617	6.232631	-8.144675	-1.288501	-0.462373	-3.786343	0.062533	0.060625	-0.081697	0.999797	-0.006442	-0.002312	-0.018930	
28681	    0	12.359237	1.699614	-9.047649	-1.093148	-0.172432	-2.993902	0.123901	0.014648	-0.090454	0.999872	-0.005466	-0.000862	-0.014969	
28682	    0	18.408007	10.814317	-9.138204	-1.089323	0.023080	-2.595224	0.185448	0.105243	-0.091982	0.999901	-0.005446	0.000115	-0.012976	
28683	    0	23.569747	8.811471	-5.285974	-1.724294	-0.012017	-2.021849	0.236572	0.085266	-0.053589	0.999911	-0.008621	-0.000060	-0.010109	
28684	    0	27.938122	2.069284	-2.010191	-1.972640	0.129513	-1.846370	0.279542	0.017912	-0.020469	0.999908	-0.009863	0.000648	-0.009232	
28685	    0	30.900320	0.450615	-0.848922	-2.279558	0.136571	-1.944043	0.309021	0.001404	-0.008728	0.999887	-0.011397	0.000683	-0.009720	
28686	    0	29.861097	-1.188263	1.372830	-2.678429	0.199137	-2.100665	0.298479	-0.014835	0.013617	0.999854	-0.013391	0.000996	-0.010503	
28687	    0	26.575478	-4.675090	3.598989	-3.519490	0.254076	-2.000564	0.265320	-0.048767	0.036499	0.999794	-0.017596	0.001270	-0.010002	
28688	    0	23.888579	-5.777755	5.578969	-4.583247	0.337635	-1.723653	0.238479	-0.058541	0.056723	0.999698	-0.022914	0.001688	-0.008617	
28689	    0	21.254333	-3.757112	8.253656	-5.995366	0.425215	-1.389533	0.212463	-0.036560	0.083191	0.999524	-0.029972	0.002126	-0.006947	
28690	    0	16.968933	-4.772770	7.707500	-7.809752	0.576359	-0.882377	0.169710	-0.045432	0.078390	0.999224	-0.039039	0.002881	-0.004411	
28691	    0	11.716046	-12.941292	3.031545	-8.054057	0.270917	-0.408283	0.116943	-0.128296	0.035339	0.999186	-0.040259	0.001354	-0.002041	
28692	    0	11.032546	-15.970973	-1.657146	-5.915942	0.295110	-0.550924	0.109864	-0.160413	-0.011995	0.999557	-0.029575	0.001475	-0.002754	
28693	    0	18.065067	-8.405503	1.052155	-2.916833	0.646426	-0.775177	0.180359	-0.084595	0.011169	0.999881	-0.014584	0.003232	-0.003876	
28694	    0	16.935207	2.421873	0.739819	-1.946306	0.555433	-1.307710	0.169525	0.023178	0.006699	0.999927	-0.009731	0.002777	-0.006538	
28695	    0	14.708950	3.737639	-4.847312	-1.863145	0.768490	-1.400792	0.147156	0.035889	-0.049377	0.999925	-0.009315	0.003842	-0.007004	
28696	    0	13.591817	-0.264134	-6.559558	-1.667456	1.403661	-1.640943	0.135423	-0.004306	-0.066516	0.999907	-0.008337	0.007018	-0.008204	
28697	    0	14.475413	2.502937	-6.363740	-0.849952	1.664998	-2.666591	0.144531	0.022827	-0.064941	0.999867	-0.004250	0.008325	-0.013332	
28698	    0	15.434995	11.181178	-9.744148	-0.385116	1.307946	-3.506867	0.155634	0.108901	-0.098668	0.999823	-0.001925	0.006539	-0.017533	
28699	    0	14.011045	6.776005	-9.610333	-1.034620	1.466665	-3.733330	0.140625	0.064636	-0.097473	0.999785	-0.005173	0.007333	-0.018665	
28700	    0	14.124121	0.618929	-7.094763	-0.759559	1.871048	-3.535515	0.140646	0.003427	-0.072282	0.999792	-0.003798	0.009355	-0.017676	
28701	    0	13.925990	-2.338432	-6.805889	0.196090	2.161758	-3.612786	0.138062	-0.025818	-0.069580	0.999778	0.000980	0.010808	-0.018063	
28702	    0	14.795561	-5.722730	-7.739965	1.208412	2.170945	-3.875502	0.145962	-0.059593	-0.079347	0.999735	0.006042	0.010854	-0.019376	
28703	    0	16.443021	-10.351586	-6.183289	1.745214	2.167736	-4.137849	0.161560	-0.106323	-0.064514	0.999689	0.008725	0.010838	-0.020687	
28704	    0	18.049383	-11.648093	-3.456516	2.505826	2.194315	-4.558215	0.177380	-0.120086	-0.038013	0.999601	0.012527	0.010970	-0.022788	
28705	    0	19.242038	-7.484818	-2.403997	3.483616	1.848924	-5.123268	0.190186	-0.079285	-0.027161	0.999477	0.017415	0.009243	-0.025612	
28706	    0	21.886155	-2.873271	0.023398	3.347090	1.738121	-5.668972	0.217918	-0.034896	-0.002213	0.999420	0.016732	0.008689	-0.028339	
28707	    0	23.781770	0.242229	-0.134956	2.224359	1.513366	-5.911531	0.237732	-0.004578	-0.003174	0.999473	0.011120	0.007565	-0.029552	
28708	    0	24.067892	-2.118720	-1.902424	1.101844	1.331713	-5.635696	0.239822	-0.027843	-0.020764	0.999565	0.005508	0.006658	-0.028174	
28709	    0	22.030063	-7.914202	-3.454127	0.396776	1.025703	-5.216835	0.217957	-0.084778	-0.035828	0.999644	0.001984	0.005128	-0.026081	
28710	    0	19.126726	-13.019124	-5.723055	0.453233	0.674126	-4.894186	0.187813	-0.134685	-0.058169	0.999692	0.002266	0.003370	-0.024468	
28711	    0	15.891988	-13.813290	-7.107662	0.755572	0.295286	-4.695574	0.155518	-0.141541	-0.071838	0.999716	0.003778	0.001476	-0.023476	
28712	    0	13.957470	-11.662265	-8.691112	0.796385	-0.024035	-4.406153	0.136976	-0.119312	-0.087366	0.999749	0.003982	-0.000120	-0.022029	
28713	    0	14.129335	-10.470198	-7.674201	0.467141	0.051120	-3.971364	0.139160	-0.107300	-0.077026	0.999800	0.002336	0.000256	-0.019855	
28714	    0	15.435972	-7.973292	-6.218981	0.338190	0.162705	-3.486240	0.152889	-0.082301	-0.062452	0.999846	0.001691	0.000813	-0.017430	
28715	    0	16.338366	-7.725208	-6.015100	0.572224	-0.015069	-2.786349	0.162292	-0.079346	-0.060364	0.999898	0.002861	-0.000075	-0.013931	
28716	    0	13.701629	-9.112000	-5.879001	0.636113	-0.310904	-2.070278	0.136156	-0.092345	-0.058870	0.999940	0.003181	-0.001554	-0.010351	
28717	    0	9.674787	-9.326056	-5.428514	0.544935	-0.453953	-1.322186	0.096252	-0.093750	-0.054321	0.999971	0.002725	-0.002270	-0.006611	
28718	    0	5.814184	-7.781111	-4.208337	0.283051	-0.417710	-0.507737	0.058032	-0.077899	-0.042072	0.999993	0.001415	-0.002089	-0.002539	
28719	    0	3.017451	-7.108181	-3.136401	0.183296	-0.376130	0.456239	0.030396	-0.070984	-0.031372	0.999994	0.000916	-0.001881	0.002281	
28720	    0	1.908414	-7.034064	-2.928979	0.325206	-0.394825	1.445403	0.019650	-0.070152	-0.029366	0.999970	0.001626	-0.001974	0.007227	
28721	    0	0.833682	-5.055767	-3.142378	0.605219	-0.481428	2.461311	0.009033	-0.050354	-0.031555	0.999916	0.003026	-0.002407	0.012306	
28722	    0	0.455201	-3.667921	-3.800725	0.454353	-0.515391	3.385521	0.005269	-0.036508	-0.038077	0.999850	0.002272	-0.002577	0.016927	
28723	    0	0.775780	-2.998287	-3.668437	0.129900	-0.524942	4.219373	0.008484	-0.029785	-0.036682	0.999773	0.000649	-0.002625	0.021095	
28724	    0	1.283326	-2.231644	-3.512832	-0.094615	-0.571312	5.014570	0.013488	-0.022000	-0.035080	0.999681	-0.000473	-0.002856	0.025070	
28725	    0	2.167867	-1.932370	-3.531685	-0.286142	-0.655266	5.753369	0.022339	-0.018738	-0.035217	0.999579	-0.001431	-0.003276	0.028763	
28726	    0	3.390867	-2.994977	-3.327631	-0.338996	-0.780816	6.452937	0.034982	-0.028889	-0.033092	0.999470	-0.001695	-0.003903	0.032259	
28727	    0	4.716038	-4.139282	-2.937589	-0.253158	-0.876038	7.037304	0.048706	-0.039734	-0.029114	0.999371	-0.001266	-0.004379	0.035179	
28728	    0	5.952578	-3.855855	-2.578632	-0.156631	-0.934060	7.499955	0.061035	-0.036308	-0.025475	0.999286	-0.000783	-0.004669	0.037491	
28729	    0	7.625418	-3.378936	-2.646314	-0.102261	-0.997233	7.879421	0.077637	-0.030762	-0.026062	0.999211	-0.000511	-0.004985	0.039387	
28730	    0	9.861363	-3.967992	-2.640590	-0.138323	-1.108681	8.263121	0.100285	-0.035577	-0.025827	0.999130	-0.000691	-0.005542	0.041304	
28731	    0	12.282100	-4.876513	-1.943053	-0.344194	-1.186553	8.598742	0.124878	-0.043457	-0.018616	0.999057	-0.001720	-0.005931	0.042980	
28732	    0	14.781074	-4.776027	-0.500798	-0.695078	-1.243241	8.812970	0.149750	-0.041203	-0.003930	0.999003	-0.003474	-0.006214	0.044050	
28733	    0	16.876373	-3.995473	1.339467	-0.846392	-1.375101	8.960767	0.170227	-0.032288	0.014709	0.998963	-0.004230	-0.006873	0.044788	
28734	    0	19.270453	-2.078054	2.271487	-0.811496	-1.573574	9.264756	0.193201	-0.011740	0.024294	0.998888	-0.004056	-0.007865	0.046307	
28735	    0	21.273341	-0.341307	3.981836	-0.682144	-1.712707	9.516818	0.212219	0.006836	0.041626	0.998825	-0.003409	-0.008560	0.047565	
28736	    0	22.581433	0.080933	5.625813	-0.226110	-1.799721	9.561688	0.224912	0.011644	0.058276	0.998815	-0.001130	-0.008995	0.047790	
28737	    0	25.940065	1.320779	4.750390	0.537512	-1.830249	9.528285	0.257935	0.025391	0.049927	0.998819	0.002687	-0.009148	0.047623	
28738	    0	30.899465	7.237635	3.103980	1.083986	-1.646872	9.450195	0.304852	0.086671	0.034006	0.998835	0.005418	-0.008231	0.047233	
28739	    0	35.852080	18.785739	0.668095	1.167170	-1.369235	9.389256	0.349121	0.204346	0.010254	0.998857	0.005834	-0.006844	0.046928	
28740	    0	38.479778	27.395256	-1.148967	0.980729	-1.172486	9.150162	0.371788	0.291209	-0.007884	0.998924	0.004902	-0.005860	0.045734	
28741	    0	35.953980	25.816020	-2.384700	1.647126	-1.127212	8.404102	0.348389	0.273132	-0.019653	0.999067	0.008233	-0.005634	0.042007	
28742	    0	35.734969	28.918314	-1.649240	3.004016	-1.084010	6.792900	0.347319	0.301279	-0.010126	0.999295	0.015017	-0.005419	0.033957	
28743	    0	30.746073	42.332950	-2.751414	3.429352	-1.032411	4.794264	0.297302	0.430908	-0.018616	0.999552	0.017144	-0.005161	0.023968	
28744	    0	21.360459	51.292938	-4.607855	2.765297	-1.063620	3.123906	0.205769	0.516746	-0.037843	0.999768	0.013825	-0.005318	0.015618	
28745	    0	14.752338	55.703597	-2.391526	1.787809	-0.938442	1.653337	0.143005	0.558411	-0.018250	0.999914	0.008939	-0.004692	0.008266	
28746	    0	12.126076	53.738881	-0.933936	0.625422	-0.691798	0.195504	0.120763	0.537532	-0.007240	0.999989	0.003127	-0.003459	0.000978	
28747	    0	12.370587	40.726980	-2.647925	0.343517	-0.620277	-1.497667	0.126831	0.406372	-0.025391	0.999966	0.001718	-0.003101	-0.007488	
28748	    0	15.473938	33.291502	-2.289610	0.680382	-0.664550	-3.157759	0.160043	0.330490	-0.021243	0.999864	0.003402	-0.003323	-0.015788	
28749	    0	14.912429	30.957090	-2.105763	0.393710	-0.881079	-4.420085	0.156006	0.306213	-0.019775	0.999743	0.001968	-0.004405	-0.022099	
28750	    0	17.787609	29.574135	-0.073509	0.035672	-0.396967	-5.351327	0.185703	0.290842	-0.000319	0.999640	0.000178	-0.001985	-0.026753	
28751	    0	32.635651	1.088712	-2.630693	-0.835561	0.026898	-6.340344	0.326477	0.000427	-0.026367	0.999488	-0.004177	0.000134	-0.031696	
28752	    0	42.094370	5.567417	-5.329494	3.115564	-1.302508	-7.425078	0.422975	0.040788	-0.049831	0.999168	0.015574	-0.006511	-0.037115	
28753	    0	42.164647	25.059181	12.145552	6.053773	-1.631755	-8.698625	0.430847	0.228088	0.132080	0.998563	0.030254	-0.008155	-0.043472	
28754	    0	16.052447	13.672206	4.137702	6.415960	-2.134201	-6.915308	0.164605	0.129621	0.047355	0.998831	0.032067	-0.010667	-0.034563	
28755	    0	9.458922	22.133334	13.824967	3.887416	-1.820652	-6.591971	0.100464	0.215332	0.143372	0.999227	0.019432	-0.009101	-0.032951	
28756	    0	4.003696	19.398066	-4.887687	1.861688	-1.949250	-5.681593	0.045995	0.193172	-0.046647	0.999505	0.009307	-0.009745	-0.028403	
28757	    0	0.202845	24.576464	-4.273344	-0.420226	-1.254385	-4.439942	0.007751	0.245544	-0.043213	0.999731	-0.002101	-0.006271	-0.022198	
28758	    0	4.304402	3.489339	-11.558086	-1.768234	-0.400571	-3.641189	0.043889	0.033076	-0.115791	0.999793	-0.008841	-0.002003	-0.018205	
28759	    0	11.479575	1.250985	-9.020582	-1.183367	-0.212678	-2.890133	0.115051	0.010315	-0.090149	0.999877	-0.005917	-0.001063	-0.014450	
28760	    0	19.072439	9.105649	-7.461127	-1.004250	0.031663	-2.526361	0.191839	0.088262	-0.075089	0.999907	-0.005021	0.000158	-0.012631	
28761	    0	24.854307	9.286605	-2.200076	-1.687670	-0.051691	-1.979884	0.249451	0.090210	-0.022705	0.999915	-0.008438	-0.000258	-0.009899	
28762	    0	30.232179	1.655203	-1.145176	-1.867541	0.034524	-1.939832	0.302461	0.013511	-0.011640	0.999908	-0.009337	0.000173	-0.009699	
28763	    0	31.608627	-0.219439	-0.520222	-1.942321	-0.058748	-2.133253	0.316040	-0.005615	-0.005066	0.999895	-0.009711	-0.000294	-0.010666	
28764	    0	29.645231	-3.926718	1.673244	-2.090159	-0.016976	-2.347089	0.295964	-0.042564	0.017191	0.999876	-0.010450	-0.000085	-0.011735	
28765	    0	25.738416	-4.840646	2.682111	-2.778773	0.087170	-2.237057	0.256836	-0.050903	0.027405	0.999841	-0.013893	0.000436	-0.011185	
28766	    0	23.661402	-3.920621	3.450279	-3.877760	0.123034	-2.042743	0.236223	-0.040943	0.035140	0.999760	-0.019387	0.000615	-0.010213	
28767	    0	20.970991	-3.721205	5.704875	-5.134447	0.083361	-1.722165	0.209412	-0.037537	0.057922	0.999633	-0.025669	0.000417	-0.008610	
28768	    0	16.069836	-5.556091	7.065493	-6.766510	0.138501	-1.245363	0.160408	-0.054131	0.072392	0.999408	-0.033826	0.000692	-0.006226	
28769	    0	11.832074	-12.581791	2.581038	-7.790832	-0.013546	-0.636454	0.117920	-0.125061	0.030701	0.999236	-0.038944	-0.000068	-0.003181	
28770	    0	11.390717	-15.269350	-1.836896	-5.970135	0.018313	-0.650694	0.113407	-0.153521	-0.013804	0.999549	-0.029846	0.000092	-0.003253	
28771	    0	17.203273	-11.493859	-0.367040	-3.151081	0.402278	-0.792729	0.171570	-0.115662	-0.002197	0.999866	-0.015755	0.002011	-0.003963	
28772	    0	18.693976	1.682650	3.483331	-2.093178	0.420963	-1.282725	0.187117	0.015987	0.034269	0.999922	-0.010466	0.002105	-0.006413	
28773	    0	14.895339	7.235701	-1.793178	-2.837488	0.455684	-1.236775	0.149353	0.071167	-0.019287	0.999877	-0.014187	0.002278	-0.006184	
28774	    0	12.976678	0.227111	-4.427383	-2.862291	1.023909	-1.078843	0.129545	0.000932	-0.044957	0.999869	-0.014311	0.005119	-0.005394	
28775	    0	9.727841	-0.111761	-4.075398	-2.101791	1.336723	-1.835706	0.096985	-0.002441	-0.041382	0.999880	-0.010509	0.006683	-0.009178	
28776	    0	13.815339	9.379344	-7.263192	-1.353140	1.368590	-2.857350	0.138966	0.091313	-0.074204	0.999851	-0.006765	0.006843	-0.014286	
28777	    0	13.208440	12.432927	-10.694083	-1.796847	1.367473	-3.402946	0.133423	0.121094	-0.108948	0.999791	-0.008984	0.006837	-0.017014	
28778	    0	13.615037	3.449280	-8.517580	-1.960323	1.750118	-3.205338	0.135917	0.031468	-0.086684	0.999784	-0.009801	0.008750	-0.016026	
28779	    0	14.522920	-2.514934	-7.475517	-0.972806	2.057962	-3.035918	0.144043	-0.027710	-0.076111	0.999820	-0.004864	0.010289	-0.015179	
28780	    0	13.835701	-6.172169	-8.540897	0.691650	2.163648	-3.269030	0.136391	-0.063663	-0.087110	0.999802	0.003458	0.010818	-0.016344	
28781	    0	14.270371	-11.328287	-7.077355	1.703220	2.294358	-3.562474	0.139832	-0.115173	-0.073364	0.999739	0.008515	0.011471	-0.017811	
28782	    0	15.104636	-8.986202	-4.294991	3.037076	2.300745	-3.996975	0.148702	-0.092166	-0.046058	0.999619	0.015183	0.011502	-0.019982	
28783	    0	18.704054	-8.405357	-0.268047	3.716137	2.343570	-4.565430	0.184998	-0.088196	-0.006470	0.999497	0.018578	0.011716	-0.022823	
28784	    0	21.654300	-5.505961	-0.088842	3.681117	2.034954	-5.266805	0.214963	-0.060678	-0.004164	0.999432	0.018402	0.010173	-0.026329	
28785	    0	24.138220	-1.199157	1.483270	3.454696	1.786392	-5.658307	0.241028	-0.019043	0.012390	0.999411	0.017270	0.008930	-0.028286	
28786	    0	23.781719	-0.397188	-0.653669	2.126447	1.308451	-5.521093	0.237538	-0.010451	-0.008180	0.999540	0.010631	0.006541	-0.027601	
28787	    0	21.968864	-4.540245	-4.647755	0.929558	1.048399	-5.064212	0.218201	-0.050720	-0.047852	0.999655	0.004647	0.005241	-0.025318	
28788	    0	19.814400	-10.830020	-7.140723	0.318367	0.767208	-4.695956	0.195254	-0.112793	-0.072337	0.999715	0.001592	0.003836	-0.023478	
28789	    0	16.746217	-14.965752	-8.611648	0.362427	0.410687	-4.479598	0.163879	-0.153198	-0.086731	0.999745	0.001812	0.002053	-0.022396	
28790	    0	14.069617	-12.966619	-9.463406	0.849599	0.025942	-4.219190	0.137913	-0.132192	-0.095210	0.999768	0.004248	0.000130	-0.021094	
28791	    0	14.304954	-11.120231	-8.440843	0.747918	-0.074010	-3.813411	0.140930	-0.113586	-0.084778	0.999811	0.003739	-0.000370	-0.019066	
28792	    0	15.889291	-8.281350	-6.117729	0.485635	0.109678	-3.390287	0.157427	-0.085341	-0.061469	0.999853	0.002428	0.000548	-0.016951	
28793	    0	17.059385	-6.923877	-5.488761	0.521104	0.050546	-2.725307	0.169617	-0.071411	-0.055115	0.999904	0.002605	0.000253	-0.013626	
28794	    0	14.730073	-7.848958	-5.746762	0.530252	-0.262074	-1.954303	0.146601	-0.079772	-0.057486	0.999948	0.002651	-0.001310	-0.009771	
28795	    0	10.601089	-8.965707	-5.411528	0.277903	-0.424197	-1.187905	0.105591	-0.090210	-0.054016	0.999979	0.001390	-0.002121	-0.005939	
28796	    0	6.651239	-8.076799	-3.919250	0.051689	-0.471116	-0.327683	0.066472	-0.080867	-0.039057	0.999995	0.000258	-0.002356	-0.001638	
28797	    0	3.313365	-7.147640	-3.336839	0.109101	-0.492670	0.648500	0.033447	-0.071350	-0.033325	0.999991	0.000546	-0.002463	0.003242	
28798	    0	2.031941	-6.557132	-2.926971	0.325779	-0.444418	1.624509	0.020916	-0.065355	-0.029330	0.999963	0.001629	-0.002222	0.008122	
28799	    0	1.426048	-4.281750	-2.921193	0.571650	-0.502793	2.620015	0.014893	-0.042542	-0.029297	0.999907	0.002858	-0.002514	0.013100	
28800	    0	1.567413	-3.217942	-3.492327	0.359936	-0.520734	3.546907	0.016332	-0.031831	-0.034939	0.999837	0.001800	-0.002604	0.017734	
28801	    0	2.017609	-2.485734	-3.808359	-0.019838	-0.546117	4.339946	0.020813	-0.024414	-0.038025	0.999761	-0.000099	-0.002730	0.021698	
28802	    0	2.473414	-2.300355	-4.072838	-0.327528	-0.620148	5.128670	0.025440	-0.022424	-0.040613	0.999664	-0.001637	-0.003100	0.025640	
28803	    0	3.169087	-2.862631	-3.827305	-0.496747	-0.726234	5.876261	0.032654	-0.027771	-0.038086	0.999558	-0.002483	-0.003631	0.029377	
28804	    0	4.252483	-3.780719	-3.520038	-0.476161	-0.856746	6.530613	0.043880	-0.036472	-0.034926	0.999454	-0.002380	-0.004283	0.032647	
28805	    0	5.650008	-4.600249	-3.031463	-0.309629	-0.961509	7.085405	0.058228	-0.044006	-0.029968	0.999359	-0.001548	-0.004807	0.035419	
28806	    0	7.021790	-4.325646	-2.471380	-0.155486	-1.006369	7.531834	0.071903	-0.040588	-0.024323	0.999277	-0.000777	-0.005031	0.037650	
28807	    0	8.849206	-3.772837	-2.435985	-0.109130	-1.062869	7.956543	0.090027	-0.034180	-0.023865	0.999194	-0.000546	-0.005313	0.039772	
28808	    0	10.890474	-3.296738	-2.330298	-0.292101	-1.137495	8.315432	0.110280	-0.028434	-0.022635	0.999118	-0.001460	-0.005686	0.041565	
28809	    0	13.050869	-3.607417	-1.951568	-0.565518	-1.229295	8.622426	0.132019	-0.030457	-0.018616	0.999047	-0.002827	-0.006145	0.043098	
28810	    0	15.510313	-4.249800	-0.669690	-0.832458	-1.373947	8.873704	0.156825	-0.035588	-0.005466	0.998983	-0.004161	-0.006867	0.044353	
28811	    0	18.182259	-3.152246	0.252339	-0.896590	-1.587492	9.170057	0.182983	-0.023132	0.004089	0.998907	-0.004481	-0.007935	0.045834	
28812	    0	20.309039	-1.389295	3.502594	-0.994306	-1.717282	9.459362	0.203128	-0.004104	0.036807	0.998832	-0.004970	-0.008583	0.047278	
28813	    0	21.422225	-0.934175	6.252641	-0.783657	-1.849332	9.525245	0.213745	0.001099	0.064514	0.998816	-0.003917	-0.009243	0.047607	
28814	    0	23.212479	0.606429	6.286395	-0.058006	-1.968386	9.455541	0.230859	0.017020	0.065137	0.998834	-0.000290	-0.009838	0.047259	
28815	    0	26.430745	5.015300	4.734025	0.665539	-1.871257	9.401505	0.261108	0.062317	0.049988	0.998845	0.003326	-0.009353	0.046989	
28816	    0	31.269303	12.174374	2.345350	1.097332	-1.614610	9.335432	0.306358	0.136005	0.026665	0.998862	0.005485	-0.008070	0.046659	
28817	    0	37.034660	22.521110	-0.251025	1.088347	-1.312542	9.179970	0.359497	0.241882	0.001160	0.998910	0.005440	-0.006560	0.045883	
28818	    0	37.590773	26.658654	-0.656601	1.198019	-1.183900	8.729567	0.363825	0.282670	-0.002727	0.999012	0.005988	-0.005918	0.043633	
28819	    0	35.946375	26.830956	-0.605590	2.313280	-1.096638	7.601678	0.348938	0.281738	-0.000916	0.999195	0.011563	-0.005482	0.037998	
28820	    0	33.856241	37.744336	-0.254081	3.352989	-0.991055	5.752505	0.327509	0.386923	0.005535	0.999434	0.016762	-0.004954	0.028757	
28821	    0	26.677170	47.684300	-3.214966	3.214816	-0.991933	3.960101	0.257385	0.482422	-0.023132	0.999662	0.016072	-0.004959	0.019798	
28822	    0	17.652281	51.602093	-3.462742	2.474154	-0.949338	2.398619	0.170456	0.518458	-0.027405	0.999840	0.012370	-0.004746	0.011992	
28823	    0	13.496480	55.658691	-0.873506	1.486419	-0.759136	0.933852	0.132385	0.557251	-0.004089	0.999954	0.007432	-0.003796	0.004669	
28824	    0	11.524296	49.410492	-0.470338	0.516893	-0.583842	-0.505068	0.116501	0.493821	-0.003088	0.999989	0.002584	-0.002919	-0.002525	
28825	    0	12.561765	37.167293	-1.256937	0.512897	-0.509655	-2.185870	0.129700	0.370300	-0.011292	0.999933	0.002564	-0.002548	-0.010929	
28826	    0	16.174723	31.041357	-0.316525	0.783392	-0.527030	-3.535468	0.167206	0.307498	-0.001521	0.999832	0.003917	-0.002635	-0.017676	
28827	    0	14.990072	27.322349	-1.677472	0.419655	-0.754425	-4.597892	0.156189	0.269714	-0.015625	0.999726	0.002098	-0.003772	-0.022987	
28828	    0	17.887933	25.069604	-4.362355	-0.127617	-0.336115	-5.373078	0.185599	0.245742	-0.043473	0.999637	-0.000638	-0.001680	-0.026862	
28829	    0	32.507551	-10.096460	-7.947642	-0.773734	-0.125713	-5.886943	0.321960	-0.110779	-0.078857	0.999558	-0.003868	-0.000628	-0.029430	
28830	    0	44.751993	11.534455	-3.602242	3.743911	-1.263234	-7.500415	0.451647	0.099070	-0.031221	0.999102	0.018714	-0.006314	-0.037491	
28831	    0	38.822886	23.804735	9.288063	5.984285	-1.828680	-8.646682	0.397034	0.218018	0.103210	0.998576	0.029907	-0.009139	-0.043213	
28832	    0	14.344498	12.939943	5.026952	5.835975	-1.887004	-6.581618	0.147058	0.123034	0.055299	0.998988	0.029170	-0.009432	-0.032897	
28833	    0	10.760464	20.146263	14.447731	3.467600	-1.738188	-6.368205	0.112610	0.195374	0.148865	0.999305	0.017334	-0.008689	-0.031834	
28834	    0	4.312780	18.274349	-4.969552	1.475362	-1.777149	-5.490352	0.048559	0.181818	-0.047936	0.999557	0.007376	-0.008884	-0.027448	
28835	    0	2.162626	22.904548	-2.935572	-0.346404	-1.196199	-4.312496	0.026733	0.228455	-0.029602	0.999747	-0.001732	-0.005980	-0.021561	
28836	    0	4.861664	4.264812	-10.753091	-1.624783	-0.382448	-3.529964	0.049555	0.040904	-0.107774	0.999809	-0.008123	-0.001912	-0.017649	
28837	    0	11.224890	4.238052	-8.162874	-1.172679	-0.146299	-2.655886	0.112854	0.040405	-0.081787	0.999894	-0.005863	-0.000731	-0.013279	
28838	    0	17.894907	9.993877	-8.239722	-1.252781	0.008393	-2.238144	0.180045	0.097409	-0.083020	0.999917	-0.006264	0.000042	-0.011190	
28839	    0	24.151349	9.019194	-3.756572	-1.869060	-0.002289	-1.657911	0.242249	0.087830	-0.038391	0.999922	-0.009345	-0.000011	-0.008289	
28840	    0	28.433854	1.484406	-1.013701	-2.038249	0.074961	-1.588103	0.284440	0.012481	-0.010379	0.999916	-0.010191	0.000375	-0.007940	
28841	    0	30.340899	0.906251	-0.593848	-2.258187	0.175482	-1.743376	0.303467	0.006348	-0.006287	0.999897	-0.011291	0.000877	-0.008717	
28842	    0	29.034386	-3.357396	2.129882	-2.583232	0.227556	-1.870044	0.290039	-0.036011	0.021423	0.999872	-0.012916	0.001138	-0.009350	
28843	    0	24.895060	-6.044858	2.706062	-3.140812	0.297753	-1.780798	0.248443	-0.062231	0.027658	0.999835	-0.015703	0.001489	-0.008904	
28844	    0	23.157833	-4.326043	4.444660	-4.095220	0.344877	-1.630916	0.231297	-0.044230	0.044947	0.999755	-0.020474	0.001724	-0.008154	
28845	    0	20.828789	-2.668408	5.369708	-5.309009	0.315134	-1.364307	0.208191	-0.026672	0.054077	0.999622	-0.026542	0.001575	-0.006821	
28846	    0	16.315351	-6.314489	5.275965	-6.728139	0.438012	-0.985145	0.162964	-0.062134	0.054504	0.999419	-0.033634	0.002190	-0.004925	
28847	    0	11.986412	-11.417179	1.581908	-7.138258	0.379644	-0.639480	0.119534	-0.113898	0.019661	0.999355	-0.035684	0.001898	-0.003197	
28848	    0	12.134873	-12.859598	-2.779370	-5.631448	0.440276	-0.818554	0.120763	-0.129810	-0.024416	0.999593	-0.028153	0.002201	-0.004092	
28849	    0	16.763603	-10.118376	-1.479540	-3.392977	0.724260	-1.043758	0.167053	-0.102295	-0.013672	0.999835	-0.016964	0.003621	-0.005219	
28850	    0	15.921969	-0.733385	-2.820447	-2.266957	0.632306	-1.477289	0.159068	-0.008832	-0.028613	0.999903	-0.011334	0.003161	-0.007386	
28851	    0	15.724190	0.732430	-4.244847	-1.741071	0.593010	-1.622813	0.157166	0.005676	-0.042969	0.999925	-0.008705	0.002965	-0.008114	
28852	    0	12.779735	0.819423	-5.706982	-1.579523	0.982314	-1.945173	0.127584	0.006498	-0.057753	0.999909	-0.007897	0.004911	-0.009726	
28853	    0	12.765159	1.527850	-7.156110	-1.258910	1.448318	-2.765786	0.127319	0.013062	-0.072571	0.999858	-0.006294	0.007241	-0.013828	
28854	    0	14.667579	5.997154	-8.599087	-1.202662	1.438044	-3.489913	0.147061	0.056885	-0.087396	0.999804	-0.006013	0.007190	-0.017448	
28855	    0	13.282913	10.474647	-10.058212	-1.203064	1.456572	-4.030179	0.134155	0.101440	-0.102173	0.999752	-0.006015	0.007282	-0.020149	
28856	    0	15.299853	3.150485	-9.814837	-0.542299	1.627852	-3.849314	0.152758	0.028295	-0.099472	0.999778	-0.002711	0.008139	-0.019245	
28857	    0	14.709382	-1.987537	-9.761779	0.340297	1.755083	-3.848555	0.145813	-0.022522	-0.098938	0.999774	0.001701	0.008775	-0.019241	
28858	    0	15.761488	-6.441540	-8.374800	0.930871	1.941096	-4.165459	0.155409	-0.067272	-0.085572	0.999724	0.004654	0.009705	-0.020825	
28859	    0	17.473188	-8.843602	-5.465289	1.541501	1.983101	-4.527788	0.172119	-0.091919	-0.057068	0.999664	0.007707	0.009914	-0.022636	
28860	    0	19.143122	-9.091190	-2.965390	2.398060	1.812232	-4.914773	0.188841	-0.095196	-0.032497	0.999585	0.011989	0.009060	-0.024570	
28861	    0	20.801990	-5.424441	-0.440136	3.133165	1.594244	-5.356751	0.206421	-0.059692	-0.006958	0.999486	0.015663	0.007970	-0.026779	
28862	    0	23.406632	-3.106695	1.079268	2.844751	1.422757	-5.753790	0.233108	-0.037916	0.008625	0.999459	0.014221	0.007113	-0.028764	
28863	    0	25.386608	-2.395810	-0.497561	1.991025	1.242268	-5.806155	0.252991	-0.031250	-0.006836	0.999510	0.009953	0.006210	-0.029026	
28864	    0	25.733501	-6.251785	-2.211114	1.057201	1.068456	-5.606294	0.255326	-0.069571	-0.023834	0.999578	0.005285	0.005342	-0.028028	
28865	    0	22.392631	-10.078922	-3.240751	0.524967	0.744148	-5.338940	0.221008	-0.106628	-0.033508	0.999633	0.002625	0.003720	-0.026691	
28866	    0	18.438703	-11.875757	-4.921106	0.617095	0.330198	-5.074102	0.181216	-0.123229	-0.049888	0.999672	0.003085	0.001651	-0.025368	
28867	    0	16.134283	-11.142201	-6.698009	0.904170	-0.063139	-4.700156	0.158691	-0.114868	-0.067444	0.999713	0.004520	-0.000316	-0.023499	
28868	    0	15.201714	-11.936308	-6.777333	0.577018	-0.178542	-4.291298	0.149473	-0.122393	-0.067989	0.999764	0.002885	-0.000893	-0.021455	
28869	    0	15.830106	-9.532458	-5.038613	0.132760	0.032236	-3.945416	0.156372	-0.098389	-0.050476	0.999804	0.000664	0.000161	-0.019726	
28870	    0	16.820674	-7.674168	-5.037624	0.295080	0.005913	-3.293378	0.166912	-0.079423	-0.050497	0.999863	0.001475	0.000030	-0.016466	
28871	    0	15.201862	-9.332112	-5.012736	0.308427	-0.215918	-2.525398	0.150879	-0.095154	-0.050110	0.999918	0.001542	-0.001080	-0.012627	
28872	    0	11.537697	-10.985041	-4.564289	0.184634	-0.333981	-1.744103	0.114490	-0.110809	-0.045553	0.999960	0.000923	-0.001670	-0.008720	
28873	    0	8.133351	-9.814034	-3.733726	0.073433	-0.350191	-0.947575	0.080933	-0.098511	-0.037231	0.999987	0.000367	-0.001751	-0.004738	
28874	    0	4.722926	-8.041365	-2.720036	-0.110817	-0.306511	-0.078392	0.047239	-0.080447	-0.027083	0.999998	-0.000554	-0.001533	-0.000392	
28875	    0	2.676676	-7.640785	-2.583254	-0.110627	-0.247766	0.948338	0.027161	-0.076294	-0.025757	0.999988	-0.000553	-0.001239	0.004742	
28876	    0	2.034015	-7.206479	-2.640535	0.172809	-0.266843	2.026021	0.021104	-0.071831	-0.026440	0.999947	0.000864	-0.001334	0.010130	
28877	    0	1.230793	-5.655156	-3.230130	0.460072	-0.329413	3.134288	0.013245	-0.056274	-0.032410	0.999873	0.002300	-0.001647	0.015671	
28878	    0	1.793469	-4.618305	-3.503923	0.268954	-0.287648	4.023063	0.018909	-0.045762	-0.035074	0.999795	0.001345	-0.001438	0.020114	
28879	    0	2.379185	-3.936191	-3.456366	0.091752	-0.291471	4.815378	0.024780	-0.038757	-0.034546	0.999708	0.000459	-0.001457	0.024075	
28880	    0	3.139802	-3.568027	-3.412030	-0.007058	-0.347183	5.625707	0.032444	-0.034779	-0.034063	0.999602	-0.000035	-0.001736	0.028125	
28881	    0	4.228360	-4.325106	-3.176632	0.009157	-0.421024	6.381550	0.043701	-0.041870	-0.031677	0.999488	0.000046	-0.002105	0.031902	
28882	    0	5.596282	-4.539380	-3.154960	0.140028	-0.513182	6.983277	0.057582	-0.043380	-0.031434	0.999387	0.000700	-0.002565	0.034909	
28883	    0	6.849080	-4.322953	-2.932855	0.236567	-0.582832	7.490777	0.070129	-0.040588	-0.029175	0.999293	0.001183	-0.002913	0.037445	
28884	    0	8.267992	-4.214434	-2.594675	0.350282	-0.645045	7.931899	0.084346	-0.038775	-0.025746	0.999207	0.001751	-0.003224	0.039649	
28885	    0	10.326417	-3.781476	-2.339283	0.309843	-0.720233	8.305478	0.104797	-0.033447	-0.023071	0.999129	0.001549	-0.003600	0.041515	
28886	    0	12.440921	-3.256553	-1.921358	0.074792	-0.790273	8.666103	0.125738	-0.027128	-0.018729	0.999053	0.000374	-0.003950	0.043317	
28887	    0	14.551427	-3.150201	-1.386799	-0.338860	-0.872144	8.963757	0.146790	-0.024963	-0.013184	0.998984	-0.001694	-0.004359	0.044804	
28888	    0	16.917646	-3.352201	-0.287559	-0.668386	-1.008207	9.232232	0.170494	-0.025678	-0.001924	0.998916	-0.003341	-0.005039	0.046144	
28889	    0	19.047249	-1.297963	0.997047	-0.903671	-1.224802	9.528996	0.190735	-0.003845	0.011169	0.998836	-0.004517	-0.006122	0.047626	
28890	    0	20.019001	-0.105883	3.463274	-0.879835	-1.454561	9.711765	0.199663	0.008804	0.036062	0.998785	-0.004397	-0.007270	0.048539	
28891	    0	21.523413	0.302251	4.598993	-0.253969	-1.689059	9.636719	0.214355	0.013428	0.047791	0.998802	-0.001269	-0.008442	0.048164	
28892	    0	24.463150	3.893382	3.148148	0.569186	-1.781783	9.532480	0.242116	0.050423	0.033779	0.998820	0.002845	-0.008905	0.047644	
28893	    0	28.523205	9.969057	1.225786	1.135126	-1.605853	9.486284	0.279968	0.112976	0.015137	0.998827	0.005673	-0.008026	0.047413	
28894	    0	34.193087	19.923306	-1.848979	1.361414	-1.347294	9.390992	0.332185	0.215096	-0.014801	0.998852	0.006804	-0.006734	0.046937	
28895	    0	38.416854	28.311911	-3.275377	1.260825	-1.209499	9.079925	0.370972	0.300354	-0.028625	0.998931	0.006302	-0.006045	0.045383	
28896	    0	36.468975	29.090598	-2.437542	1.744995	-1.160977	8.307327	0.352312	0.305900	-0.019680	0.999083	0.008722	-0.005803	0.041524	
28897	    0	35.719468	34.647280	-0.741644	2.698358	-1.054428	6.735212	0.345276	0.358276	-0.000793	0.999328	0.013489	-0.005271	0.033669	
28898	    0	30.577805	45.267815	-2.386746	2.811249	-0.966206	4.935757	0.294570	0.460302	-0.015991	0.999584	0.014054	-0.004830	0.024675	
28899	    0	21.457561	47.852591	-5.367885	2.230419	-0.964423	3.310627	0.206848	0.482544	-0.047302	0.999788	0.011151	-0.004822	0.016552	
28900	    0	15.061721	49.785368	-4.141934	1.562161	-0.862336	1.831486	0.146214	0.499506	-0.036885	0.999918	0.007811	-0.004312	0.009157	
28901	    0	12.173635	50.024319	-1.384731	0.580027	-0.715640	0.445559	0.120667	0.500549	-0.011963	0.999987	0.002900	-0.003578	0.002228	
28902	    0	11.316864	40.214415	-0.614871	0.125314	-0.641827	-1.014906	0.115226	0.401567	-0.005529	0.999981	0.000627	-0.003209	-0.005075	
28903	    0	11.917729	32.895610	0.922451	0.197797	-0.556198	-2.450626	0.123169	0.327454	0.009888	0.999920	0.000989	-0.002781	-0.012253	
28904	    0	14.207603	26.962827	2.897762	0.039293	-0.514819	-3.400970	0.146558	0.267156	0.029404	0.999851	0.000196	-0.002574	-0.017004	
28905	    0	15.291539	19.482589	1.346649	-0.541729	-0.699479	-4.207172	0.156921	0.191589	0.013489	0.999768	-0.002708	-0.003497	-0.021034	
28906	    0	14.827824	21.702392	-1.637168	-0.595732	-0.333251	-5.162632	0.153840	0.213051	-0.016757	0.999660	-0.002978	-0.001666	-0.025810	
28907	    0	24.267679	4.952204	-24.574727	0.368557	-1.245884	-5.976273	0.245544	0.042664	-0.244141	0.999532	0.001842	-0.006228	-0.029877	
28908	    0	50.785067	19.228276	-2.860040	4.882209	-0.668757	-7.652826	0.514807	0.173267	-0.022501	0.998964	0.024403	-0.003343	-0.038251	
28909	    0	40.741710	25.950274	11.503181	6.365728	-1.742370	-7.906784	0.416077	0.239258	0.126465	0.998673	0.031815	-0.008708	-0.039516	
28910	    0	13.277012	18.288870	11.747294	4.572493	-1.366196	-6.133860	0.137413	0.175959	0.122478	0.999245	0.022857	-0.006829	-0.030662	
28911	    0	13.954896	12.050594	12.061488	2.632060	-1.529216	-5.961196	0.142090	0.114685	0.123230	0.999439	0.013158	-0.007645	-0.029800	
28912	    0	6.555006	18.280579	-1.762913	0.841249	-1.433175	-5.296815	0.070481	0.181053	-0.016372	0.999615	0.004206	-0.007165	-0.026481	
28913	    0	6.155283	15.760271	-5.209032	-0.363952	-0.976452	-4.314014	0.065186	0.156128	-0.052063	0.999753	-0.001820	-0.004882	-0.021568	
28914	    0	5.464226	4.801533	-6.930207	-1.622676	-0.502234	-3.331951	0.055600	0.046531	-0.069545	0.999825	-0.008113	-0.002511	-0.016659	
28915	    0	12.937813	2.461193	-8.035224	-0.855282	-0.199706	-2.600179	0.129761	0.022583	-0.080322	0.999906	-0.004276	-0.000998	-0.013000	
28916	    0	18.482893	11.492981	-6.202798	-1.467748	-0.072481	-2.218121	0.186108	0.112411	-0.062792	0.999911	-0.007339	-0.000362	-0.011090	
28917	    0	25.764668	4.983958	-3.291563	-1.866199	-0.031091	-1.680037	0.258057	0.047363	-0.033325	0.999921	-0.009331	-0.000155	-0.008400	
28918	    0	28.595390	3.236837	-1.404542	-2.077357	-0.007439	-1.732116	0.286220	0.029742	-0.014353	0.999908	-0.010386	-0.000037	-0.008660	
28919	    0	30.366044	0.689547	0.746619	-2.303211	0.055697	-1.944043	0.303711	0.004028	0.007324	0.999886	-0.011516	0.000278	-0.009720	
28920	    0	28.455072	-1.991820	1.856153	-2.782767	0.168236	-1.996138	0.284350	-0.022498	0.018623	0.999852	-0.013913	0.000841	-0.009980	
28921	    0	24.872050	-5.715868	3.166404	-3.677437	0.262470	-1.828132	0.248230	-0.058838	0.032410	0.999788	-0.018386	0.001312	-0.009140	
28922	    0	22.520303	-6.634933	4.395748	-4.622347	0.325808	-1.546823	0.224759	-0.067055	0.045135	0.999701	-0.023109	0.001629	-0.007733	
28923	    0	19.105276	-4.050372	5.533953	-5.751110	0.424447	-1.259033	0.190918	-0.040100	0.056091	0.999564	-0.028751	0.002122	-0.006294	
28924	    0	15.443137	-7.252271	4.558597	-7.011161	0.510513	-0.840935	0.154249	-0.071524	0.047711	0.999373	-0.035048	0.002552	-0.004204	
28925	    0	12.136746	-12.381436	-0.090380	-6.740336	0.371813	-0.643281	0.120972	-0.124146	0.003052	0.999425	-0.033695	0.001859	-0.003216	
28926	    0	15.525108	-14.008330	-2.856981	-4.716185	0.585994	-0.783233	0.154621	-0.141318	-0.025701	0.999709	-0.023579	0.002930	-0.003916	
28927	    0	17.844807	-6.821532	-2.196255	-2.650358	0.696589	-1.139873	0.177979	-0.069519	-0.021667	0.999889	-0.013251	0.003483	-0.005699	
28928	    0	17.451420	-1.085582	-2.455065	-1.509507	0.651373	-1.503785	0.174344	-0.012355	-0.025029	0.999937	-0.007547	0.003257	-0.007519	
28929	    0	13.577345	0.230493	-4.348702	-0.910016	0.756852	-1.934093	0.135620	0.000793	-0.044006	0.999935	-0.004550	0.003784	-0.009670	
28930	    0	10.774951	0.986879	-5.735083	-0.416581	1.329855	-2.721320	0.107485	0.008285	-0.058084	0.999883	-0.002083	0.006649	-0.013606	
28931	    0	13.146624	4.831568	-7.938017	-0.211347	1.449102	-3.544071	0.131714	0.045898	-0.080383	0.999816	-0.001057	0.007245	-0.017719	
28932	    0	13.303459	9.938468	-10.099105	-0.385698	1.451803	-4.192699	0.134337	0.096381	-0.102151	0.999752	-0.001928	0.007258	-0.020962	
28933	    0	14.605524	6.291165	-9.614733	-0.072295	1.614515	-4.183548	0.146545	0.059814	-0.097351	0.999748	-0.000361	0.008072	-0.020916	
28934	    0	15.640342	0.182078	-9.623808	0.537345	1.672314	-4.141966	0.155588	-0.001146	-0.097542	0.999746	0.002687	0.008361	-0.020708	
28935	    0	17.083393	-4.819289	-9.170826	1.217964	1.831237	-4.369027	0.168884	-0.051331	-0.093567	0.999701	0.006089	0.009155	-0.021843	
28936	    0	19.623771	-7.519097	-6.231013	1.722548	1.889843	-4.799099	0.193763	-0.079309	-0.064820	0.999630	0.008612	0.009448	-0.023993	
28937	    0	22.129150	-8.910446	-1.864018	2.028948	1.844481	-5.200181	0.218689	-0.094604	-0.021606	0.999568	0.010143	0.009221	-0.025997	
28938	    0	23.148752	-5.991125	0.574949	2.474050	1.391260	-5.630854	0.229707	-0.066447	0.003352	0.999502	0.012368	0.006955	-0.028150	
28939	    0	24.041141	-4.007453	-0.142055	2.025372	1.136207	-5.903853	0.239075	-0.047119	-0.003235	0.999496	0.010125	0.005680	-0.029514	
28940	    0	24.170350	-5.116226	-1.440609	0.760954	1.097651	-5.804729	0.240000	-0.058086	-0.015939	0.999557	0.003804	0.005487	-0.029019	
28941	    0	23.025445	-8.794467	-3.019949	-0.108351	0.963143	-5.440451	0.227600	-0.094177	-0.031250	0.999618	-0.000542	0.004815	-0.027199	
28942	    0	20.110278	-13.289107	-4.672683	-0.438357	0.698548	-5.087271	0.197471	-0.138048	-0.047122	0.999667	-0.002192	0.003492	-0.025434	
28943	    0	16.812934	-14.387880	-6.893802	-0.260951	0.342784	-4.803932	0.164490	-0.147949	-0.069031	0.999709	-0.001305	0.001714	-0.024017	
28944	    0	14.515457	-13.927688	-7.977529	-0.121508	0.072867	-4.435713	0.141989	-0.142498	-0.079741	0.999753	-0.000607	0.000364	-0.022177	
28945	    0	14.116320	-12.544873	-6.887537	-0.343918	0.186933	-4.001887	0.138550	-0.128357	-0.068787	0.999798	-0.001719	0.000935	-0.020008	
28946	    0	15.891859	-9.752782	-5.154160	-0.308625	0.398657	-3.505318	0.157073	-0.100371	-0.051702	0.999843	-0.001543	0.001993	-0.017526	
28947	    0	17.776697	-9.806755	-5.500247	0.134282	0.327503	-2.822208	0.176270	-0.100525	-0.055359	0.999898	0.000671	0.001637	-0.014111	
28948	    0	16.121482	-11.843842	-6.366146	0.612080	0.062944	-2.055589	0.159967	-0.119891	-0.064077	0.999942	0.003060	0.000315	-0.010278	
28949	    0	11.577308	-13.306779	-6.140703	0.936900	-0.140955	-1.330581	0.114929	-0.133545	-0.061951	0.999967	0.004684	-0.000705	-0.006653	
28950	    0	7.815579	-11.472201	-4.138926	0.919346	-0.097275	-0.504687	0.077887	-0.114727	-0.041879	0.999986	0.004597	-0.000486	-0.002523	
28951	    0	4.788655	-8.962801	-2.466778	0.814250	-0.032044	0.458528	0.048096	-0.089417	-0.025024	0.999989	0.004071	-0.000160	0.002293	
28952	    0	3.105657	-8.207317	-2.222347	0.774583	-0.002670	1.478403	0.031662	-0.081754	-0.022540	0.999965	0.003873	-0.000013	0.007392	
28953	    0	2.477371	-6.836834	-2.686985	0.878932	-0.066187	2.503278	0.025635	-0.067932	-0.027161	0.999911	0.004395	-0.000331	0.012516	
28954	    0	1.685742	-4.731009	-3.846757	0.914626	-0.180255	3.577245	0.017733	-0.046822	-0.038667	0.999828	0.004573	-0.000901	0.017885	
28955	    0	1.838358	-3.354971	-4.767058	0.451698	-0.169959	4.463571	0.019165	-0.033020	-0.047729	0.999747	0.002258	-0.000850	0.022316	
28956	    0	2.157225	-3.369427	-5.293801	0.104726	-0.204492	5.300953	0.022509	-0.033078	-0.052933	0.999648	0.000524	-0.001022	0.026502	
28957	    0	3.070944	-4.215491	-4.784188	-0.032048	-0.282904	6.099886	0.032043	-0.041199	-0.047791	0.999534	-0.000160	-0.001414	0.030495	
28958	    0	4.604773	-4.560367	-4.040300	0.028997	-0.406344	6.811701	0.047647	-0.043993	-0.040314	0.999417	0.000145	-0.002031	0.034052	
28959	    0	6.233746	-3.822121	-3.459488	-0.008394	-0.535515	7.373200	0.063782	-0.035889	-0.034424	0.999316	-0.000042	-0.002677	0.036858	
28960	    0	7.372147	-3.386970	-3.199349	-0.131069	-0.671180	7.882457	0.075087	-0.030949	-0.031722	0.999217	-0.000655	-0.003355	0.039402	
28961	    0	8.983525	-3.773450	-3.281796	-0.301449	-0.781287	8.330680	0.091431	-0.033997	-0.032410	0.999124	-0.001507	-0.003905	0.041641	
28962	    0	11.159211	-4.060330	-2.888878	-0.567808	-0.900937	8.683112	0.113344	-0.035788	-0.028275	0.999043	-0.002838	-0.004503	0.043402	
28963	    0	13.536051	-3.318291	-2.348756	-0.938733	-1.036232	8.902701	0.136780	-0.027222	-0.022644	0.998984	-0.004692	-0.005179	0.044498	
28964	    0	16.068158	-2.821804	-1.229246	-1.282003	-1.225335	9.067327	0.161813	-0.020971	-0.011153	0.998933	-0.006408	-0.006124	0.045321	
28965	    0	18.721030	-2.360251	-0.220569	-1.417892	-1.499749	9.348815	0.188049	-0.014832	-0.000671	0.998854	-0.007087	-0.007496	0.046726	
28966	    0	20.998596	-1.970255	2.718282	-1.411436	-1.719407	9.597081	0.210358	-0.009411	0.029081	0.998787	-0.007054	-0.008594	0.047966	
28967	    0	23.156920	-1.632111	5.574592	-0.998326	-1.894949	9.580262	0.231445	-0.004944	0.057983	0.998796	-0.004990	-0.009471	0.047882	
28968	    0	26.273025	1.454985	5.252225	-0.232596	-2.005780	9.414494	0.261112	0.026933	0.055120	0.998841	-0.001163	-0.010025	0.047054	
28969	    0	29.688098	7.582755	3.503409	0.423593	-1.911704	9.378587	0.292542	0.089539	0.038025	0.998853	0.002117	-0.009555	0.046875	
28970	    0	34.258762	15.637902	1.961697	0.796432	-1.687886	9.394422	0.334561	0.172136	0.023129	0.998853	0.003981	-0.008436	0.046954	
28971	    0	38.300482	25.061591	0.449376	0.757110	-1.403364	9.189885	0.370911	0.267822	0.008118	0.998912	0.003784	-0.007014	0.045933	
28972	    0	36.180642	25.861836	-0.758070	1.175491	-1.234828	8.561182	0.350331	0.273811	-0.003814	0.999047	0.005876	-0.006172	0.042792	
28973	    0	35.268247	28.074546	-1.261140	2.565633	-1.159762	7.143631	0.342407	0.293213	-0.006897	0.999263	0.012825	-0.005797	0.035709	
28974	    0	30.696270	40.746091	-1.727624	3.496007	-1.114846	5.267475	0.296151	0.415555	-0.008388	0.999484	0.017477	-0.005573	0.026333	
28975	    0	22.796854	48.696672	-4.015527	3.115584	-1.089586	3.614405	0.219299	0.491516	-0.031311	0.999701	0.015576	-0.005447	0.018070	
28976	    0	15.003388	50.106489	-2.113459	2.331079	-1.010179	2.169328	0.144670	0.502849	-0.014541	0.999860	0.011655	-0.005051	0.010846	
28977	    0	12.213975	51.562742	0.180373	1.369684	-0.763712	0.753794	0.120178	0.516052	0.005798	0.999962	0.006848	-0.003819	0.003769	
28978	    0	10.959601	44.025523	-1.160024	0.611499	-0.607303	-0.622371	0.110997	0.439943	-0.009919	0.999986	0.003057	-0.003036	-0.003112	
28979	    0	11.266490	34.200628	-1.891009	0.581562	-0.590527	-2.047008	0.116211	0.340881	-0.017578	0.999939	0.002908	-0.002953	-0.010235	
28980	    0	11.284299	28.562895	0.505708	0.625637	-0.529312	-3.106060	0.117245	0.283813	0.006253	0.999870	0.003128	-0.002646	-0.015530	
28981	    0	16.910211	22.477472	-0.582347	0.094611	-0.758222	-3.955346	0.173523	0.221375	-0.005066	0.999797	0.000473	-0.003791	-0.019775	
28982	    0	13.330344	18.089001	-3.268125	-0.260376	-0.629289	-4.496390	0.137426	0.177789	-0.032486	0.999741	-0.001302	-0.003146	-0.022480	
28983	    0	24.376237	18.143442	-14.175560	-0.413576	-0.468325	-6.007535	0.249390	0.173706	-0.141541	0.999543	-0.002068	-0.002341	-0.030033	
28984	    0	45.155244	8.397850	-16.085498	3.358013	-1.277499	-7.113622	0.455230	0.070482	-0.156695	0.999206	0.016786	-0.006386	-0.035559	
28985	    0	50.471594	20.968436	11.800122	6.640945	-1.558523	-8.679791	0.512085	0.183411	0.128357	0.998477	0.033188	-0.007789	-0.043377	
28986	    0	15.211762	22.237965	5.545755	6.302065	-1.893730	-6.606970	0.158731	0.215284	0.063800	0.998913	0.031499	-0.009465	-0.033023	
28987	    0	14.777382	20.294712	16.506679	3.236316	-1.214668	-6.262016	0.152954	0.195496	0.169189	0.999360	0.016178	-0.006072	-0.031303	
28988	    0	9.674934	11.080382	0.063516	1.767811	-1.697419	-5.548756	0.099757	0.108047	0.002437	0.999539	0.008838	-0.008486	-0.027740	
28989	    0	5.109643	24.220592	1.039065	0.208303	-1.255732	-4.700935	0.056702	0.240906	0.010986	0.999703	0.001041	-0.006278	-0.023502	
28990	    0	3.800103	7.589774	-6.844028	-1.344392	-0.766426	-3.761360	0.039677	0.074700	-0.068795	0.999793	-0.006721	-0.003832	-0.018806	
28991	    0	8.220106	4.487926	-7.035980	-1.047366	-0.521871	-2.842061	0.083008	0.043335	-0.070374	0.999882	-0.005237	-0.002609	-0.014210	
28992	    0	14.724159	10.272916	-6.714978	-0.995475	-0.282296	-2.480772	0.148593	0.100556	-0.067445	0.999909	-0.004977	-0.001411	-0.012403	
28993	    0	20.038504	9.683201	-4.599090	-1.794292	-0.214392	-1.802112	0.201294	0.094604	-0.046631	0.999918	-0.008971	-0.001072	-0.009010	
28994	    0	27.772265	4.380166	-2.843879	-2.056940	-0.071718	-1.499598	0.278049	0.041423	-0.028773	0.999919	-0.010284	-0.000359	-0.007498	
28995	    0	30.343374	1.982891	-1.873309	-2.191802	-0.086978	-1.628926	0.303589	0.017151	-0.018799	0.999907	-0.010959	-0.000435	-0.008144	
28996	    0	30.430932	-0.763042	0.104922	-2.532870	0.003433	-1.788402	0.304225	-0.010337	0.001163	0.999879	-0.012664	0.000017	-0.008942	
28997	    0	26.886330	-4.917642	2.237850	-3.176293	0.172625	-1.782325	0.268433	-0.051208	0.022949	0.999833	-0.015881	0.000863	-0.008911	
28998	    0	24.015510	-4.281260	2.798111	-3.999450	0.300049	-1.628431	0.239841	-0.044200	0.028496	0.999765	-0.019996	0.001500	-0.008142	
28999	    0	22.926584	-2.860019	4.466127	-5.199876	0.322763	-1.467312	0.229126	-0.029114	0.045044	0.999634	-0.025996	0.001614	-0.007336	
29000	    0	18.909241	-5.298435	5.623446	-6.557725	0.444113	-1.108375	0.188929	-0.052159	0.057534	0.999444	-0.032783	0.002220	-0.005541	
29001	    0	14.093520	-10.595254	3.473592	-7.292283	0.438216	-0.627277	0.140686	-0.105042	0.038269	0.999328	-0.036453	0.002191	-0.003136	
29002	    0	11.510085	-13.341501	-2.030106	-6.174512	0.376381	-0.687329	0.114607	-0.134356	-0.016378	0.999516	-0.030868	0.001882	-0.003436	
29003	    0	16.147066	-12.816128	-4.061799	-3.878288	0.725033	-0.963659	0.160706	-0.129700	-0.038696	0.999793	-0.019390	0.003625	-0.004818	
29004	    0	18.119308	-6.052249	-2.149801	-1.858757	0.737018	-1.369319	0.180693	-0.061961	-0.021593	0.999927	-0.009294	0.003685	-0.006846	
29005	    0	16.734475	-1.187999	-3.758030	-0.973529	0.607502	-1.776919	0.167114	-0.013550	-0.038025	0.999944	-0.004868	0.003037	-0.008884	
29006	    0	12.344490	2.130622	-5.859999	-0.517668	0.774785	-2.288495	0.123448	0.019741	-0.059131	0.999923	-0.002588	0.003874	-0.011442	
29007	    0	10.795723	3.318341	-7.086094	-0.235568	1.174980	-3.085468	0.108032	0.031433	-0.071533	0.999863	-0.001178	0.005875	-0.015427	
29008	    0	12.908593	6.261845	-8.558922	-0.657506	1.241002	-3.692676	0.129674	0.059944	-0.086593	0.999804	-0.003287	0.006205	-0.018462	
29009	    0	12.757206	7.760873	-9.608438	-0.952988	1.319420	-4.092738	0.128479	0.074524	-0.097290	0.999757	-0.004765	0.006597	-0.020462	
29010	    0	14.456926	3.926371	-9.221127	-0.662285	1.505783	-4.091213	0.144628	0.035997	-0.093423	0.999757	-0.003311	0.007528	-0.020454	
29011	    0	15.571992	-0.230028	-9.319587	-0.068670	1.660485	-4.153026	0.154846	-0.005554	-0.094482	0.999749	-0.000343	0.008302	-0.020763	
29012	    0	17.511667	-5.119976	-8.582489	0.687665	1.819404	-4.392474	0.173149	-0.054718	-0.087590	0.999711	0.003438	0.009096	-0.021960	
29013	    0	20.046461	-8.439340	-5.350321	1.078156	1.884865	-4.739154	0.197876	-0.088806	-0.055847	0.999660	0.005390	0.009423	-0.023693	
29014	    0	22.115216	-9.511246	-1.718488	1.576825	1.747365	-5.151102	0.218442	-0.100613	-0.019880	0.999599	0.007883	0.008736	-0.025752	
29015	    0	22.950331	-6.546525	-0.216917	2.248927	1.317041	-5.568046	0.227539	-0.071777	-0.004456	0.999527	0.011243	0.006584	-0.027836	
29016	    0	23.868659	-5.899227	-0.779183	1.839361	1.156611	-5.816440	0.236786	-0.065814	-0.009749	0.999517	0.009195	0.005782	-0.029078	
29017	    0	24.173538	-7.984230	-0.962548	0.931875	1.111002	-5.728983	0.239258	-0.086670	-0.011353	0.999563	0.004659	0.005554	-0.028641	
29018	    0	22.608239	-11.613296	-2.369738	0.533552	0.875392	-5.393515	0.222735	-0.122105	-0.024998	0.999622	0.002667	0.004376	-0.026964	
29019	    0	19.099913	-14.403424	-4.095754	0.417374	0.577799	-5.089366	0.187134	-0.148743	-0.041809	0.999669	0.002087	0.002889	-0.025444	
29020	    0	16.254284	-13.943940	-6.320345	0.507403	0.293950	-4.729146	0.159095	-0.143067	-0.063799	0.999716	0.002537	0.001470	-0.023643	
29021	    0	15.307975	-13.194600	-7.354156	0.464665	0.161183	-4.199532	0.150208	-0.134949	-0.073975	0.999776	0.002323	0.000806	-0.020996	
29022	    0	16.290871	-11.906345	-6.369704	0.169764	0.379584	-3.663080	0.160571	-0.121964	-0.064106	0.999829	0.000849	0.001898	-0.018314	
29023	    0	17.900102	-11.161447	-6.029255	0.339522	0.412958	-3.090031	0.177124	-0.114258	-0.060852	0.999877	0.001698	0.002065	-0.015450	
29024	    0	17.709942	-12.066626	-6.042753	0.811980	0.218970	-2.401989	0.175569	-0.122534	-0.061115	0.999919	0.004060	0.001095	-0.012010	
29025	    0	13.767360	-13.646773	-5.798805	1.206229	-0.054742	-1.684600	0.136536	-0.137268	-0.058777	0.999946	0.006031	-0.000274	-0.008423	
29026	    0	9.472766	-11.749149	-4.262491	1.235784	-0.102044	-0.950632	0.094191	-0.117674	-0.043303	0.999969	0.006179	-0.000510	-0.004753	
29027	    0	6.102368	-7.878801	-2.950513	1.052861	-0.040245	-0.141144	0.060974	-0.078674	-0.029907	0.999986	0.005264	-0.000201	-0.000706	
29028	    0	4.051131	-6.640716	-2.951480	0.788121	0.013542	0.849538	0.040791	-0.066117	-0.029778	0.999983	0.003941	0.000068	0.004248	
29029	    0	3.511146	-7.374422	-3.336327	0.556192	0.010109	1.954685	0.035828	-0.073303	-0.033569	0.999948	0.002781	0.000051	0.009773	
29030	    0	2.524404	-5.865227	-3.609490	0.547240	-0.137144	3.043487	0.026156	-0.058160	-0.036237	0.999880	0.002736	-0.000686	0.015217	
29031	    0	1.988523	-3.901708	-4.747073	0.174915	-0.188458	3.930155	0.020691	-0.038574	-0.047485	0.999805	0.000875	-0.000942	0.019650	
29032	    0	2.337166	-3.225845	-5.060508	-0.313598	-0.213453	4.781228	0.024189	-0.031766	-0.050529	0.999712	-0.001568	-0.001067	0.023904	
29033	    0	3.051581	-3.712675	-4.544081	-0.581438	-0.295870	5.641933	0.031616	-0.036377	-0.045288	0.999597	-0.002907	-0.001479	0.028206	
29034	    0	4.244336	-3.587085	-4.015915	-0.709465	-0.438956	6.360000	0.043646	-0.034637	-0.039940	0.999485	-0.003547	-0.002194	0.031795	
29035	    0	5.597001	-3.130400	-3.764398	-0.749359	-0.626310	6.922797	0.057129	-0.029480	-0.037354	0.999389	-0.003746	-0.003131	0.034607	
29036	    0	6.941208	-3.585097	-3.471850	-0.696536	-0.810813	7.428196	0.070822	-0.033358	-0.034314	0.999295	-0.003482	-0.004053	0.037132	
29037	    0	8.474182	-4.284511	-2.983944	-0.653059	-0.953927	7.892412	0.086487	-0.039551	-0.029297	0.999205	-0.003264	-0.004768	0.039452	
29038	    0	10.481884	-4.836197	-2.319302	-0.633422	-1.080634	8.222088	0.106812	-0.044069	-0.022475	0.999135	-0.003166	-0.005402	0.041099	
29039	    0	12.885554	-4.516105	-1.916915	-0.718150	-1.184260	8.536901	0.130737	-0.039673	-0.018250	0.999064	-0.003590	-0.005919	0.042671	
29040	    0	15.412094	-4.279884	-0.925529	-0.965249	-1.309258	8.785118	0.155858	-0.036017	-0.008054	0.999002	-0.004825	-0.006544	0.043911	
29041	    0	18.148704	-3.936272	1.129017	-1.219608	-1.447617	9.009682	0.182922	-0.031067	0.012817	0.998940	-0.006096	-0.007236	0.045033	
29042	    0	20.676712	-2.363615	3.495528	-1.343090	-1.613654	9.285427	0.207268	-0.013776	0.036741	0.998867	-0.006713	-0.008065	0.046410	
29043	    0	22.159556	-0.786653	6.182957	-1.219465	-1.760792	9.464162	0.221069	0.002991	0.063782	0.998823	-0.006095	-0.008801	0.047302	
29044	    0	23.328809	0.341084	7.310652	-0.643595	-1.864192	9.373242	0.232085	0.014549	0.075239	0.998853	-0.003217	-0.009317	0.046848	
29045	    0	25.758858	4.009044	5.657235	0.186418	-1.831742	9.307537	0.254822	0.051941	0.058960	0.998875	0.000932	-0.009155	0.046520	
29046	    0	28.756522	9.607367	3.763439	0.849281	-1.606021	9.336748	0.282354	0.109172	0.040361	0.998869	0.004245	-0.008027	0.046666	
29047	    0	33.722551	18.696944	0.288595	1.230504	-1.247104	9.258644	0.328064	0.202271	0.006165	0.998890	0.006150	-0.006233	0.046276	
29048	    0	37.511621	26.304837	-2.105044	1.456567	-1.032800	8.873344	0.363052	0.279472	-0.017159	0.998976	0.007280	-0.005162	0.044352	
29049	    0	35.648499	28.601472	-2.659856	2.457386	-1.025501	7.955213	0.344849	0.300171	-0.021179	0.999120	0.012283	-0.005126	0.039764	
29050	    0	33.789151	36.628655	-1.240057	3.612581	-0.984035	6.390315	0.325993	0.376954	-0.004031	0.999314	0.018059	-0.004919	0.031944	
29051	    0	28.882198	46.693741	-3.480580	3.623154	-0.965259	4.563041	0.278198	0.473877	-0.024902	0.999563	0.018113	-0.004826	0.022812	
29052	    0	20.068134	50.700136	-5.005887	2.920180	-0.972821	2.928000	0.193440	0.510518	-0.041669	0.999774	0.014600	-0.004864	0.014639	
29053	    0	14.560440	54.494835	-3.309709	2.064765	-0.847650	1.422161	0.141846	0.546265	-0.026855	0.999912	0.010324	-0.004238	0.007111	
29054	    0	11.959026	51.449399	-2.187226	0.907903	-0.670627	0.051880	0.119524	0.514616	-0.019135	0.999984	0.004539	-0.003353	0.000259	
29055	    0	12.173283	39.370153	-2.989770	0.577743	-0.614937	-1.554891	0.124878	0.392822	-0.028381	0.999960	0.002889	-0.003075	-0.007774	
29056	    0	16.802178	33.057770	-3.238612	0.713002	-0.835651	-3.261918	0.173514	0.327888	-0.030497	0.999851	0.003565	-0.004178	-0.016309	
29057	    0	13.235705	29.954944	-3.783392	0.521319	-0.728664	-4.233881	0.138794	0.296753	-0.036560	0.999765	0.002606	-0.003643	-0.021168	
29058	    0	25.981888	38.233565	-4.978677	-0.178937	-0.156045	-6.061148	0.271281	0.374185	-0.049915	0.999539	-0.000895	-0.000780	-0.030301	
29059	    0	36.656797	-6.259915	-8.456799	0.054942	-0.831576	-6.809807	0.364502	-0.075012	-0.083069	0.999412	0.000275	-0.004157	-0.034042	
29060	    0	45.520076	24.296424	2.183128	4.681266	-1.269441	-8.220550	0.464478	0.223354	0.030143	0.998861	0.023397	-0.006345	-0.041087	
29061	    0	30.568282	20.387386	9.836224	5.913813	-1.993470	-8.055548	0.312439	0.188293	0.107178	0.998702	0.029556	-0.009963	-0.040260	
29062	    0	13.667418	12.340658	9.739267	4.803344	-1.633931	-6.661072	0.139812	0.116381	0.101378	0.999124	0.024010	-0.008167	-0.033296	
29063	    0	9.686808	15.871161	8.719891	3.257145	-2.183258	-6.188823	0.100708	0.154175	0.090820	0.999329	0.016282	-0.010914	-0.030937	
29064	    0	-0.260926	25.384049	-6.858184	0.655832	-1.685745	-5.303504	0.004699	0.254004	-0.067730	0.999607	0.003279	-0.008428	-0.026514	
29065	    0	1.458718	15.968890	-4.077826	-0.801911	-1.140492	-4.072122	0.018066	0.159180	-0.041321	0.999768	-0.004009	-0.005702	-0.020359	
29066	    0	4.869264	2.418175	-9.911120	-1.509751	-0.275246	-3.338048	0.049215	0.022614	-0.099218	0.999830	-0.007548	-0.001376	-0.016689	
29067	    0	14.156522	8.522276	-8.756048	-1.015505	-0.133328	-2.571951	0.142700	0.082947	-0.087891	0.999904	-0.005077	-0.000667	-0.012859	
29068	    0	18.633730	10.206901	-7.723624	-1.585242	-0.093081	-2.066098	0.187410	0.099521	-0.077945	0.999915	-0.007926	-0.000465	-0.010330	
29069	    0	24.179530	6.665280	-4.222207	-1.930096	-0.003052	-1.577800	0.242310	0.064331	-0.042847	0.999922	-0.009650	-0.000015	-0.007889	
29070	    0	29.058470	0.424165	-1.271923	-1.904157	0.108531	-1.651045	0.290599	0.001720	-0.012901	0.999920	-0.009521	0.000543	-0.008255	
29071	    0	30.267090	-0.332982	-1.478915	-2.047791	0.184065	-1.731925	0.302612	-0.006104	-0.015015	0.999909	-0.010239	0.000920	-0.008659	
29072	    0	27.865496	-4.322790	0.888374	-2.396484	0.278674	-1.820443	0.278259	-0.045654	0.009033	0.999886	-0.011982	0.001393	-0.009102	
29073	    0	24.569228	-4.928630	2.173963	-2.903700	0.367755	-1.801007	0.245277	-0.051178	0.022022	0.999851	-0.014518	0.001839	-0.009005	
29074	    0	24.058379	-2.168830	4.034461	-3.803342	0.431665	-1.729139	0.240476	-0.023002	0.040255	0.999779	-0.019015	0.002158	-0.008645	
29075	    0	21.669529	-2.321319	5.900693	-5.123749	0.312270	-1.494013	0.216614	-0.023315	0.059265	0.999642	-0.025616	0.001561	-0.007469	
29076	    0	16.345567	-7.669553	5.043021	-6.474136	0.368948	-1.099212	0.163133	-0.075913	0.052595	0.999459	-0.032365	0.001844	-0.005495	
29077	    0	12.436163	-12.228003	1.288744	-6.707325	0.328126	-0.794371	0.123901	-0.122253	0.016785	0.999428	-0.033530	0.001640	-0.003971	
29078	    0	13.872880	-13.514429	-2.958659	-5.255375	0.438361	-0.972292	0.138007	-0.136537	-0.026314	0.999640	-0.026274	0.002192	-0.004861	
29079	    0	17.451731	-10.934207	-2.583210	-3.080705	0.673708	-1.207028	0.173767	-0.110779	-0.024719	0.999857	-0.015403	0.003368	-0.006035	
29080	    0	17.036166	-2.131851	-3.568711	-1.981789	0.544944	-1.512378	0.170094	-0.022961	-0.035929	0.999918	-0.009909	0.002725	-0.007562	
29081	    0	15.791176	-2.306977	-2.357497	-1.140424	0.463876	-1.687653	0.157654	-0.024536	-0.023804	0.999945	-0.005702	0.002319	-0.008438	
29082	    0	12.208041	-0.614676	-4.618303	-0.844215	0.729771	-2.273239	0.121829	-0.007729	-0.046597	0.999919	-0.004221	0.003649	-0.011366	
29083	    0	11.877080	3.179396	-6.170005	-0.579101	1.198068	-3.282337	0.118896	0.029663	-0.062500	0.999843	-0.002895	0.005990	-0.016411	
29084	    0	12.802889	6.011731	-7.854789	-0.692417	1.351453	-3.843390	0.128613	0.057375	-0.079618	0.999786	-0.003462	0.006757	-0.019216	
29085	    0	14.058632	7.394695	-9.209235	-0.312641	1.497778	-4.252223	0.141418	0.070801	-0.093262	0.999744	-0.001563	0.007488	-0.021259	
29086	    0	16.025508	1.383198	-8.695420	0.233670	1.612417	-4.177634	0.159791	0.010593	-0.088230	0.999748	0.001168	0.008061	-0.020886	
29087	    0	16.619257	-3.477451	-8.316679	0.986000	1.730508	-4.290409	0.164673	-0.037903	-0.084778	0.999720	0.004930	0.008652	-0.021450	
29088	    0	18.237071	-7.150213	-6.645086	1.468248	1.772885	-4.595309	0.180070	-0.075159	-0.068597	0.999669	0.007340	0.008863	-0.022974	
29089	    0	20.177359	-8.854431	-3.191097	1.728277	1.720074	-4.944474	0.199219	-0.093201	-0.034424	0.999619	0.008640	0.008599	-0.024719	
29090	    0	21.953502	-8.529155	-0.090738	2.163822	1.486996	-5.310072	0.217149	-0.091050	-0.003492	0.999561	0.010818	0.007434	-0.026546	
29091	    0	22.930217	-6.061777	0.300000	2.470801	1.070769	-5.645909	0.227478	-0.067078	0.000977	0.999511	0.012352	0.005353	-0.028225	
29092	    0	22.344656	-5.905372	-1.185014	1.656397	0.874077	-5.676733	0.221597	-0.065255	-0.013345	0.999553	0.008281	0.004370	-0.028379	
29093	    0	21.230347	-7.548358	-1.890788	0.640950	0.813587	-5.402292	0.210083	-0.081116	-0.020020	0.999621	0.003204	0.004067	-0.027008	
29094	    0	19.606618	-10.031158	-3.114192	-0.171489	0.646470	-5.030981	0.193358	-0.105226	-0.031681	0.999678	-0.000857	0.003232	-0.025152	
29095	    0	16.839039	-10.579750	-5.538309	-0.408019	0.309782	-4.670382	0.165771	-0.109802	-0.055420	0.999723	-0.002040	0.001549	-0.023350	
29096	    0	14.499796	-10.946300	-7.077536	-0.490035	0.048450	-4.259054	0.142604	-0.112690	-0.070537	0.999770	-0.002450	0.000242	-0.021294	
29097	    0	13.234472	-10.787771	-6.840199	-0.655978	0.018312	-3.809594	0.130249	-0.110596	-0.068054	0.999813	-0.003280	0.000092	-0.019047	
29098	    0	13.734395	-9.356348	-5.119105	-0.770417	0.226795	-3.394299	0.135670	-0.096072	-0.050979	0.999847	-0.003852	0.001134	-0.016971	
29099	    0	15.553074	-8.885476	-4.543415	-0.343335	0.327503	-2.835944	0.154175	-0.091125	-0.045532	0.999896	-0.001717	0.001637	-0.014179	
29100	    0	16.361956	-10.904381	-4.299500	0.208668	0.257688	-2.102319	0.162406	-0.110710	-0.043320	0.999943	0.001043	0.001288	-0.010511	
29101	    0	13.188028	-11.715226	-4.318727	0.750168	0.017548	-1.417557	0.131042	-0.117920	-0.043640	0.999968	0.003751	0.000088	-0.007088	
29102	    0	9.270176	-10.002743	-4.136248	0.848584	-0.035668	-0.785832	0.092316	-0.100214	-0.041771	0.999983	0.004243	-0.000178	-0.003929	
29103	    0	6.116829	-6.998086	-2.873703	0.688936	0.045204	-0.012970	0.061157	-0.069885	-0.028992	0.999993	0.003445	0.000226	-0.000065	
29104	    0	4.253059	-6.184778	-2.510470	0.623897	0.080872	0.922208	0.042805	-0.061572	-0.025314	0.999984	0.003119	0.000404	0.004611	
29105	    0	3.768187	-6.249879	-2.871738	0.847832	0.056459	1.915013	0.038269	-0.062012	-0.028992	0.999945	0.004239	0.000282	0.009575	
29106	    0	2.857594	-4.373178	-3.453822	1.157619	-0.071147	2.968151	0.029231	-0.043100	-0.034779	0.999872	0.005788	-0.000356	0.014840	
29107	    0	2.680274	-3.091615	-4.395271	0.829559	-0.085455	3.830964	0.027405	-0.030212	-0.044067	0.999807	0.004148	-0.000427	0.019154	
29108	    0	2.838242	-2.901864	-4.723744	0.414885	-0.093087	4.573843	0.029057	-0.028261	-0.047283	0.999736	0.002074	-0.000465	0.022867	
29109	    0	3.239856	-3.187358	-4.607104	0.216128	-0.141161	5.330528	0.033264	-0.030945	-0.046082	0.999643	0.001081	-0.000706	0.026649	
29110	    0	4.053965	-3.175975	-4.238877	0.131055	-0.259630	6.042830	0.041529	-0.030487	-0.042356	0.999542	0.000655	-0.001298	0.030210	
29111	    0	5.307647	-2.705010	-3.893126	-0.012972	-0.414162	6.643377	0.054016	-0.025269	-0.038818	0.999446	-0.000065	-0.002070	0.033211	
29112	    0	6.414083	-2.958401	-3.566374	-0.143273	-0.561645	7.171652	0.065247	-0.027283	-0.035461	0.999352	-0.000716	-0.002808	0.035851	
29113	    0	7.512283	-3.553795	-3.123143	-0.212912	-0.682044	7.628017	0.076511	-0.032670	-0.030936	0.999265	-0.001064	-0.003409	0.038131	
29114	    0	9.162835	-4.047655	-2.875068	-0.309455	-0.797105	7.990507	0.093262	-0.036816	-0.028322	0.999192	-0.001547	-0.003984	0.039942	
29115	    0	11.387277	-4.059960	-2.455504	-0.472969	-0.940215	8.291751	0.115540	-0.035889	-0.023926	0.999126	-0.002364	-0.004700	0.041447	
29116	    0	13.727537	-3.495911	-1.890173	-0.767568	-1.092492	8.589015	0.138709	-0.029092	-0.018027	0.999055	-0.003837	-0.005461	0.042932	
29117	    0	16.342036	-3.789625	-0.586358	-1.088893	-1.270724	8.858438	0.164917	-0.030640	-0.004639	0.998983	-0.005443	-0.006351	0.044277	
29118	    0	19.276171	-2.420631	0.579452	-1.279344	-1.488084	9.147738	0.193547	-0.015320	0.007350	0.998905	-0.006394	-0.007438	0.045722	
29119	    0	20.669223	-0.637399	2.930520	-1.280709	-1.707167	9.409930	0.206421	0.003540	0.031067	0.998836	-0.006401	-0.008533	0.047031	
29120	    0	22.165853	-0.217609	4.839590	-0.954809	-1.875844	9.431694	0.220959	0.008495	0.050447	0.998833	-0.004772	-0.009376	0.047140	
29121	    0	24.501301	2.610154	4.534325	-0.294414	-1.998889	9.277013	0.242981	0.037476	0.047729	0.998873	-0.001472	-0.009991	0.046368	
29122	    0	26.532799	8.090702	3.346788	0.365202	-1.920270	9.246834	0.260876	0.092976	0.036150	0.998883	0.001825	-0.009598	0.046217	
29123	    0	31.056902	15.326965	0.690574	0.837250	-1.705601	9.164722	0.303040	0.167236	0.010193	0.998904	0.004185	-0.008525	0.045807	
29124	    0	36.925754	24.426996	-0.514281	0.973273	-1.398185	8.918583	0.357901	0.260415	-0.001372	0.998969	0.004865	-0.006989	0.044578	
29125	    0	37.389257	28.155262	1.021978	1.630131	-1.221644	8.268184	0.361755	0.296570	0.014832	0.999093	0.008148	-0.006106	0.041328	
29126	    0	36.054223	32.346496	1.680631	2.937829	-1.025445	6.911788	0.348979	0.335348	0.023484	0.999281	0.014686	-0.005126	0.034551	
29127	    0	32.110955	42.454432	-1.950838	3.500174	-0.867413	5.109475	0.310181	0.432800	-0.010620	0.999511	0.017498	-0.004336	0.025543	
29128	    0	23.060472	48.153515	-6.535801	3.112318	-0.910080	3.423627	0.222578	0.486320	-0.056789	0.999722	0.015560	-0.004550	0.017117	
29129	    0	15.463386	52.080075	-5.989498	2.390580	-0.890388	1.883013	0.149963	0.522888	-0.052979	0.999874	0.011952	-0.004452	0.009415	
29130	    0	12.783186	51.603904	-2.858376	1.399057	-0.815783	0.447660	0.126781	0.516504	-0.024453	0.999964	0.006995	-0.004079	0.002238	
29131	    0	12.749468	42.336150	-0.484116	0.776680	-0.700957	-1.094829	0.129822	0.422668	-0.002747	0.999970	0.003883	-0.003505	-0.005474	
29132	    0	17.216252	34.843740	-0.461709	0.752095	-0.752286	-2.784069	0.177003	0.346008	-0.002653	0.999888	0.003760	-0.003761	-0.013920	
29133	    0	13.278238	32.006107	-3.020467	0.563851	-0.727703	-3.940088	0.139160	0.317444	-0.028809	0.999795	0.002819	-0.003638	-0.019699	
29134	    0	23.674299	38.903637	-3.552102	0.156424	-0.236925	-5.685048	0.247713	0.382126	-0.034931	0.999595	0.000782	-0.001184	-0.028421	
29135	    0	31.825669	-0.188481	-2.934724	-0.682953	-0.166160	-6.503693	0.317993	-0.012329	-0.029053	0.999465	-0.003414	-0.000831	-0.032513	
29136	    0	31.907224	-4.943863	-9.156388	2.396736	-1.600622	-6.718606	0.317919	-0.059051	-0.089685	0.999331	0.011981	-0.008001	-0.033586	
29137	    0	32.063490	34.619921	-0.147535	6.146935	-1.761529	-8.696390	0.335205	0.331604	0.011780	0.998544	0.030720	-0.008803	-0.043461	
29138	    0	22.146277	24.293115	4.764477	5.168512	-1.573888	-7.037373	0.229377	0.233583	0.055548	0.999016	0.025834	-0.007867	-0.035175	
29139	    0	11.938351	13.118780	14.493812	3.201420	-1.813139	-6.228470	0.122009	0.125061	0.148071	0.999346	0.016004	-0.009064	-0.031136	
29140	    0	0.733392	13.342196	-4.342065	2.075542	-2.122661	-5.591182	0.011518	0.133579	-0.041927	0.999498	0.010376	-0.010612	-0.027951	
29141	    0	-1.718009	25.314352	-6.635439	-0.267627	-1.220059	-4.665828	-0.010864	0.253357	-0.066772	0.999708	-0.001338	-0.006100	-0.023327	
29142	    0	1.567383	7.452529	-8.120455	-1.051968	-0.609435	-3.649364	0.017273	0.073792	-0.081543	0.999815	-0.005260	-0.003047	-0.018246	
29143	    0	10.965494	5.917868	-5.854994	-1.390518	0.023080	-2.934013	0.110497	0.057153	-0.058965	0.999867	-0.006952	0.000115	-0.014669	
29144	    0	18.814640	8.509990	-6.129329	-1.303902	-0.041009	-2.328942	0.189130	0.082500	-0.061798	0.999910	-0.006519	-0.000205	-0.011644	
29145	    0	22.708746	7.420088	-5.338116	-1.688241	-0.193792	-1.946313	0.227844	0.071533	-0.053772	0.999916	-0.008441	-0.000969	-0.009731	
29146	    0	24.037124	5.770718	-4.213255	-1.925714	-0.150303	-1.774457	0.240900	0.055163	-0.042491	0.999913	-0.009628	-0.000751	-0.008872	
29147	    0	31.015480	1.237858	-2.240521	-2.032342	0.046541	-1.773125	0.310242	0.009399	-0.022583	0.999908	-0.010161	0.000233	-0.008865	
29148	    0	30.856934	-1.509246	-0.031961	-2.227289	0.016404	-1.865453	0.308411	-0.017972	-0.000155	0.999894	-0.011136	0.000082	-0.009327	
29149	    0	26.643454	-4.692252	2.103104	-2.855631	0.132758	-1.890657	0.265991	-0.049133	0.021545	0.999853	-0.014277	0.000664	-0.009453	
29150	    0	25.197037	-3.858289	2.860640	-3.354285	0.296230	-1.972514	0.251619	-0.040583	0.028903	0.999809	-0.016770	0.001481	-0.009862	
29151	    0	24.742344	-1.410965	4.966334	-4.325512	0.394668	-1.943390	0.247375	-0.015442	0.049500	0.999717	-0.021626	0.001973	-0.009716	
29152	    0	21.418262	-3.810493	7.399698	-5.861432	0.387443	-1.687885	0.214007	-0.037729	0.074692	0.999533	-0.029303	0.001937	-0.008438	
29153	    0	15.629547	-8.598383	5.196684	-7.149553	0.423715	-1.231655	0.155884	-0.085022	0.054688	0.999339	-0.035740	0.002118	-0.006157	
29154	    0	13.337677	-11.703731	-0.368921	-6.918227	0.355603	-1.099240	0.132729	-0.117807	0.000141	0.999385	-0.034584	0.001778	-0.005495	
29155	    0	14.963674	-13.562281	-4.242634	-5.060212	0.547854	-1.410839	0.148560	-0.137695	-0.039368	0.999651	-0.025298	0.002739	-0.007053	
29156	    0	16.290242	-8.685359	-4.923896	-2.745171	0.461025	-1.514880	0.162123	-0.088752	-0.048404	0.999874	-0.013725	0.002305	-0.007574	
29157	    0	17.721866	-3.700525	-2.833452	-1.618993	0.263411	-1.583134	0.176880	-0.038635	-0.028259	0.999934	-0.008095	0.001317	-0.007915	
29158	    0	16.095653	-5.918692	-2.079939	-1.388205	0.514235	-2.056558	0.160282	-0.060982	-0.020793	0.999919	-0.006941	0.002571	-0.010283	
29159	    0	14.013153	-1.772152	-6.754595	-0.588249	0.982895	-2.828326	0.139526	-0.019897	-0.068176	0.999883	-0.002941	0.004914	-0.014141	
29160	    0	14.366647	1.591876	-8.762668	0.313779	1.241766	-3.758105	0.143386	0.013361	-0.088495	0.999803	0.001569	0.006208	-0.018789	
29161	    0	12.960416	1.985261	-11.320667	0.475538	1.030810	-4.119423	0.129395	0.017456	-0.113831	0.999771	0.002378	0.005154	-0.020596	
29162	    0	13.839146	1.901261	-12.371224	1.098164	1.193540	-4.460753	0.138039	0.016613	-0.124441	0.999718	0.005490	0.005967	-0.022302	
29163	    0	15.634618	-1.477514	-9.888553	1.785662	1.525280	-4.512510	0.155212	-0.017395	-0.100220	0.999676	0.008927	0.007626	-0.022560	
29164	    0	17.978023	-4.502432	-5.884968	2.029099	1.816784	-4.729476	0.178111	-0.048638	-0.060954	0.999627	0.010144	0.009083	-0.023644	
29165	    0	20.771142	-3.944388	-2.018894	2.115359	1.699307	-5.163543	0.206421	-0.044556	-0.022400	0.999575	0.010575	0.008495	-0.025814	
29166	    0	22.868999	-4.971956	-0.707237	2.259019	1.344881	-5.373230	0.227189	-0.055741	-0.009211	0.999553	0.011293	0.006723	-0.026862	
29167	    0	22.933800	-7.606411	0.795552	2.045920	1.065977	-5.336750	0.227234	-0.082214	0.005920	0.999577	0.010228	0.005329	-0.026680	
29168	    0	22.015977	-9.689665	0.278003	1.547432	0.894466	-5.135024	0.217583	-0.102518	0.001024	0.999630	0.007736	0.004472	-0.025672	
29169	    0	21.345484	-12.629201	-1.329162	0.863164	0.696635	-4.842112	0.210266	-0.131348	-0.014587	0.999691	0.004315	0.003483	-0.024208	
29170	    0	19.310358	-14.112155	-3.576341	0.424041	0.425948	-4.532255	0.189764	-0.145370	-0.036475	0.999739	0.002120	0.002130	-0.022659	
29171	    0	15.926471	-13.448440	-4.697174	0.079542	0.118264	-4.104140	0.156433	-0.137695	-0.047119	0.999788	0.000398	0.000591	-0.020519	
29172	    0	14.537865	-11.664208	-5.741054	-0.404572	0.000000	-3.663270	0.143209	-0.119394	-0.057171	0.999829	-0.002023	0.000000	-0.018315	
29173	    0	14.467760	-10.263631	-5.010297	-0.815620	0.177201	-3.238066	0.142944	-0.105164	-0.049805	0.999860	-0.004078	0.000886	-0.016190	
29174	    0	15.953598	-9.745149	-4.484268	-0.637075	0.355541	-2.699940	0.158120	-0.099735	-0.044809	0.999902	-0.003185	0.001778	-0.013499	
29175	    0	16.816437	-11.077540	-5.037139	-0.018120	0.283055	-1.967653	0.166992	-0.112427	-0.050598	0.999950	-0.000091	0.001415	-0.009838	
29176	    0	14.933766	-12.407062	-4.998171	0.454906	0.165559	-1.272211	0.148503	-0.124903	-0.050388	0.999976	0.002275	0.000828	-0.006361	
29177	    0	11.371573	-11.263922	-4.494770	0.614168	0.097084	-0.623324	0.113342	-0.112854	-0.045349	0.999990	0.003071	0.000485	-0.003117	
29178	    0	8.296273	-8.026588	-3.418047	0.419617	0.123596	0.124931	0.082992	-0.080142	-0.034400	0.999997	0.002098	0.000618	0.000625	
29179	    0	5.994935	-6.045006	-2.903405	0.107575	0.157357	1.046758	0.060242	-0.060120	-0.029114	0.999986	0.000538	0.000787	0.005234	
29180	    0	5.366275	-6.601717	-3.224222	-0.125124	0.196270	2.035367	0.054299	-0.065487	-0.032254	0.999947	-0.000626	0.000981	0.010177	
29181	    0	4.137903	-5.652098	-3.583801	0.136762	0.058749	3.095369	0.042236	-0.055847	-0.035889	0.999880	0.000684	0.000294	0.015476	
29182	    0	3.535389	-4.405848	-4.391646	0.089079	-0.048259	4.017528	0.036240	-0.043317	-0.043927	0.999798	0.000445	-0.000241	0.020086	
29183	    0	3.432190	-3.962279	-4.118614	-0.164620	-0.093088	4.795535	0.035278	-0.038818	-0.041138	0.999712	-0.000823	-0.000465	0.023975	
29184	    0	3.557782	-3.932542	-3.370006	-0.322956	-0.176262	5.559878	0.036683	-0.038370	-0.033606	0.999612	-0.001615	-0.000881	0.027796	
29185	    0	4.422323	-3.742272	-2.986149	-0.351772	-0.324874	6.234231	0.045410	-0.036072	-0.029724	0.999511	-0.001759	-0.001624	0.031166	
29186	    0	5.719413	-3.286108	-2.790061	-0.396233	-0.474831	6.801974	0.058334	-0.030945	-0.027700	0.999416	-0.001981	-0.002374	0.034003	
29187	    0	6.982848	-3.114696	-2.579669	-0.412080	-0.632428	7.291519	0.070984	-0.028625	-0.025513	0.999328	-0.002060	-0.003161	0.036449	
29188	    0	8.024053	-3.719141	-2.379155	-0.371645	-0.755692	7.744649	0.081690	-0.034090	-0.023419	0.999241	-0.001858	-0.003778	0.038713	
29189	    0	9.964053	-4.588643	-2.417321	-0.302781	-0.844811	8.153531	0.101501	-0.041809	-0.023682	0.999159	-0.001513	-0.004223	0.040756	
29190	    0	12.460735	-4.248664	-1.750844	-0.388073	-0.906268	8.514340	0.126343	-0.037165	-0.016863	0.999082	-0.001940	-0.004530	0.042559	
29191	    0	15.241237	-2.647129	-1.152654	-0.648715	-1.011042	8.871370	0.153442	-0.019714	-0.010681	0.998998	-0.003242	-0.005054	0.044342	
29192	    0	17.251377	-1.645373	0.586108	-0.948684	-1.154181	9.294699	0.172991	-0.008389	0.006911	0.998892	-0.004742	-0.005769	0.046456	
29193	    0	20.330128	-1.090387	2.024774	-1.146394	-1.311827	9.642071	0.203369	-0.000977	0.021606	0.998799	-0.005730	-0.006557	0.048191	
29194	    0	22.663362	-0.905542	4.357465	-1.069885	-1.451510	9.713690	0.226385	0.002186	0.045227	0.998779	-0.005347	-0.007255	0.048549	
29195	    0	25.259357	1.511396	4.849869	-0.444013	-1.563872	9.534355	0.251099	0.027222	0.050415	0.998831	-0.002219	-0.007816	0.047653	
29196	    0	26.839500	7.808098	3.336798	0.481979	-1.516727	9.407751	0.264068	0.090489	0.035590	0.998861	0.002409	-0.007581	0.047021	
29197	    0	29.810411	15.928197	0.018281	1.273057	-1.310264	9.273165	0.290283	0.172852	0.003174	0.998883	0.006363	-0.006549	0.046349	
29198	    0	35.892369	24.430105	-3.303060	1.502378	-1.013161	9.034492	0.347555	0.260406	-0.029334	0.998939	0.007509	-0.005064	0.045156	
29199	    0	39.144607	28.779839	-3.362206	1.827049	-0.991941	8.413277	0.379028	0.304199	-0.028992	0.999061	0.009132	-0.004958	0.042053	
29200	    0	35.460978	32.115589	-2.406797	2.968600	-1.039964	7.212019	0.342821	0.333953	-0.017370	0.999226	0.014839	-0.005198	0.036051	
29201	    0	32.163799	43.068574	-4.445250	3.843635	-0.923899	5.353771	0.310120	0.439819	-0.034607	0.999446	0.019215	-0.004619	0.026764	
29202	    0	24.727789	50.436425	-8.482659	3.675694	-0.997086	3.634109	0.238430	0.510180	-0.074282	0.999653	0.018376	-0.004985	0.018168	
29203	    0	16.667532	52.247865	-8.458363	2.969540	-1.064937	2.134071	0.161499	0.525391	-0.075928	0.999818	0.014847	-0.005324	0.010670	
29204	    0	13.105442	52.382527	-5.113801	1.765285	-0.952167	0.774780	0.129250	0.524749	-0.045891	0.999942	0.008826	-0.004761	0.003874	
29205	    0	12.311704	44.628738	-3.714025	0.875861	-0.835234	-0.640874	0.124695	0.446045	-0.034668	0.999976	0.004379	-0.004176	-0.003204	
29206	    0	12.228886	37.960529	-3.200402	0.673310	-0.752657	-2.125980	0.126431	0.378380	-0.030258	0.999930	0.003366	-0.003763	-0.010630	
29207	    0	15.634218	31.236922	-2.204940	0.262655	-0.807231	-3.383045	0.161682	0.309692	-0.020996	0.999847	0.001313	-0.004036	-0.016914	
29208	    0	13.721212	24.783192	-1.798144	-0.478972	-0.644351	-4.186757	0.142417	0.244843	-0.018117	0.999772	-0.002395	-0.003222	-0.020932	
29209	    0	25.099484	19.782574	5.705476	-0.945406	-0.008966	-5.540433	0.256348	0.191040	0.056152	0.999604	-0.004726	-0.000045	-0.027699	
29210	    0	29.318358	-11.933183	5.866771	-0.812836	0.247418	-5.766731	0.289659	-0.127480	0.058815	0.999575	-0.004064	0.001237	-0.028830	
29211	    0	27.280318	-10.435085	-11.676423	2.045828	-1.502322	-6.248132	0.270264	-0.111633	-0.115845	0.999431	0.010227	-0.007510	-0.031235	
29212	    0	27.051744	40.398176	-18.116017	6.519098	-2.718851	-7.835970	0.288516	0.398449	-0.164267	0.998609	0.032580	-0.013588	-0.039162	
29213	    0	26.880079	38.467152	1.942117	4.309520	-0.983512	-6.879816	0.281677	0.374573	0.028931	0.999164	0.021542	-0.004916	-0.034389	
29214	    0	15.616250	5.892077	15.423967	2.850276	-1.884986	-5.566824	0.156213	0.052353	0.156489	0.999466	0.014249	-0.009423	-0.027829	
29215	    0	5.113970	9.339027	-0.009514	1.900000	-1.889126	-5.314658	0.053589	0.091980	0.001282	0.999557	0.009499	-0.009444	-0.026569	
29216	    0	2.389447	23.272484	-3.886620	0.348122	-1.310848	-4.444141	0.029310	0.232181	-0.038281	0.999730	0.001740	-0.006554	-0.022219	
29217	    0	3.543261	11.727603	-6.279141	-0.979478	-0.705758	-3.434943	0.037659	0.116333	-0.063232	0.999834	-0.004897	-0.003529	-0.017174	
29218	    0	8.585767	5.296083	-8.273097	-1.752738	-0.087933	-2.698443	0.086592	0.051068	-0.083146	0.999870	-0.008763	-0.000440	-0.013492	
29219	    0	17.106779	4.538017	-6.931247	-1.365507	-0.108340	-2.117976	0.171570	0.043091	-0.069519	0.999920	-0.006827	-0.000542	-0.010590	
29220	    0	24.861322	8.890817	-4.075825	-1.648944	-0.037385	-1.807258	0.249409	0.086317	-0.041430	0.999925	-0.008245	-0.000187	-0.009036	
29221	    0	27.879699	6.547426	-4.011324	-2.590085	-0.119786	-1.492365	0.279297	0.062866	-0.040771	0.999887	-0.012950	-0.000599	-0.007462	
29222	    0	32.100961	-0.015666	-1.040308	-2.752611	0.061228	-1.607200	0.320991	-0.002880	-0.010474	0.999872	-0.013762	0.000306	-0.008036	
29223	    0	30.350483	-5.630209	1.958368	-2.991448	0.042727	-1.831149	0.302979	-0.058777	0.020386	0.999846	-0.014956	0.000214	-0.009155	
29224	    0	27.094822	-5.027168	4.094739	-3.435355	0.177586	-1.882674	0.270500	-0.052109	0.041592	0.999807	-0.017176	0.000888	-0.009413	
29225	    0	25.061720	-2.380497	6.305034	-4.497780	0.292235	-1.815212	0.250488	-0.024658	0.063232	0.999704	-0.022487	0.001461	-0.009075	
29226	    0	23.533063	-2.896556	8.604691	-6.194977	0.299505	-1.523849	0.235244	-0.028082	0.086574	0.999490	-0.030970	0.001497	-0.007618	
29227	    0	18.413215	-9.037483	8.162197	-7.657255	0.405413	-1.179800	0.183777	-0.088257	0.084656	0.999248	-0.038277	0.002027	-0.005898	
29228	    0	13.826784	-14.219807	3.049100	-7.567918	0.465316	-1.044719	0.137606	-0.141637	0.035538	0.999268	-0.037830	0.002326	-0.005222	
29229	    0	13.561591	-16.098174	-2.869631	-5.699032	0.681404	-1.391804	0.134399	-0.162659	-0.024536	0.999563	-0.028491	0.003407	-0.006958	
29230	    0	17.719712	-11.133663	-3.922844	-2.664492	0.778041	-1.667286	0.176107	-0.113323	-0.038414	0.999868	-0.013322	0.003890	-0.008336	
29231	    0	17.637957	-6.564658	-3.257075	-0.300603	0.486191	-1.918062	0.175659	-0.067383	-0.032898	0.999949	-0.001503	0.002431	-0.009590	
29232	    0	15.140865	-5.437133	-5.315681	0.554100	0.442136	-2.495454	0.150598	-0.056106	-0.053644	0.999915	0.002770	0.002211	-0.012477	
29233	    0	12.905863	-0.706521	-7.408586	0.804374	1.007899	-3.428842	0.128540	-0.008972	-0.074768	0.999832	0.004022	0.005039	-0.017143	
29234	    0	15.330020	2.748543	-9.103635	1.378180	1.198873	-4.201494	0.153293	0.024896	-0.091778	0.999737	0.006890	0.005994	-0.021006	
29235	    0	14.518542	4.537624	-11.530377	1.330891	0.975134	-4.618535	0.145630	0.042786	-0.115723	0.999699	0.006654	0.004875	-0.023090	
29236	    0	15.587923	1.877038	-10.604422	1.101234	1.256318	-4.862749	0.155614	0.015572	-0.106931	0.999669	0.005506	0.006281	-0.024311	
29237	    0	17.128354	0.667815	-7.494169	1.114026	1.608662	-5.022275	0.170776	0.002808	-0.076294	0.999637	0.005569	0.008042	-0.025108	
29238	    0	19.734853	-3.132579	-3.336113	0.959521	1.792378	-5.211747	0.196136	-0.036282	-0.035289	0.999608	0.004797	0.008961	-0.026055	
29239	    0	21.760756	-8.350081	-1.592804	1.117092	1.472097	-5.341287	0.215149	-0.089172	-0.018005	0.999600	0.005585	0.007360	-0.026703	
29240	    0	21.662153	-12.534918	-1.374758	1.427646	1.036397	-5.303501	0.213120	-0.130924	-0.015779	0.999609	0.007137	0.005181	-0.026514	
29241	    0	19.330414	-13.188265	-0.965958	1.375181	0.799662	-5.271815	0.189697	-0.136841	-0.011353	0.999620	0.006875	0.003998	-0.026356	
29242	    0	17.913624	-12.709394	-0.645045	0.650289	0.770466	-5.136313	0.175767	-0.131614	-0.007555	0.999657	0.003251	0.003852	-0.025679	
29243	    0	17.191882	-13.138163	-1.638339	0.187892	0.611935	-4.723805	0.168701	-0.135376	-0.017029	0.999716	0.000939	0.003059	-0.023617	
29244	    0	15.348552	-13.367031	-3.551100	-0.115976	0.355748	-4.258289	0.150530	-0.136917	-0.035702	0.999771	-0.000580	0.001779	-0.021290	
29245	    0	13.142341	-12.327415	-5.441264	-0.468473	0.122268	-3.779068	0.129028	-0.125854	-0.054199	0.999818	-0.002342	0.000611	-0.018894	
29246	    0	11.882689	-10.825848	-5.608641	-0.910422	0.064662	-3.297776	0.117000	-0.110452	-0.055625	0.999853	-0.004552	0.000323	-0.016488	
29247	    0	11.349617	-9.740397	-4.807501	-1.264054	0.169380	-2.950414	0.112000	-0.099365	-0.047546	0.999870	-0.006320	0.000847	-0.014751	
29248	    0	11.871015	-9.240381	-4.526006	-1.129378	0.188452	-2.550208	0.117475	-0.094161	-0.044843	0.999902	-0.005647	0.000942	-0.012751	
29249	    0	13.344788	-10.149638	-4.586381	-0.719465	0.239758	-1.966894	0.132385	-0.102966	-0.045654	0.999944	-0.003597	0.001199	-0.009834	
29250	    0	14.647313	-11.395233	-5.172989	-0.125123	0.228121	-1.411069	0.145605	-0.115014	-0.051825	0.999974	-0.000626	0.001141	-0.007055	
29251	    0	13.484708	-10.986509	-5.997140	0.492289	-0.001526	-1.034552	0.134277	-0.110413	-0.060242	0.999983	0.002461	-0.000008	-0.005173	
29252	    0	10.393970	-8.179374	-6.027624	0.855640	-0.105095	-0.531580	0.103754	-0.081811	-0.060572	0.999987	0.004278	-0.000525	-0.002658	
29253	    0	7.606103	-5.360534	-5.305839	0.749972	-0.094414	0.321198	0.076172	-0.053284	-0.053223	0.999991	0.003750	-0.000472	0.001606	
29254	    0	6.376201	-4.273171	-3.712997	0.414661	0.012589	1.314174	0.064038	-0.042234	-0.037222	0.999976	0.002073	0.000063	0.006571	
29255	    0	5.069812	-3.236069	-2.775944	0.603691	-0.093081	2.352963	0.051086	-0.031677	-0.027832	0.999926	0.003018	-0.000465	0.011765	
29256	    0	4.135626	-2.408972	-4.143646	0.647575	-0.216303	3.270874	0.041786	-0.023274	-0.041468	0.999860	0.003238	-0.001081	0.016354	
29257	    0	3.940670	-3.205228	-4.843275	0.499760	-0.247782	4.029361	0.040100	-0.031128	-0.048462	0.999793	0.002499	-0.001239	0.020145	
29258	    0	3.767351	-3.012405	-4.597053	0.355181	-0.242256	4.685453	0.038420	-0.029148	-0.045977	0.999722	0.001776	-0.001211	0.023425	
29259	    0	3.865419	-3.003466	-3.864606	0.315322	-0.290714	5.319845	0.039490	-0.028931	-0.038635	0.999643	0.001576	-0.001453	0.026596	
29260	    0	4.563950	-2.294630	-3.511580	0.271456	-0.429598	5.933494	0.046368	-0.021530	-0.035047	0.999557	0.001357	-0.002148	0.029663	
29261	    0	5.422308	-1.238653	-3.525245	0.045975	-0.586040	6.447965	0.054688	-0.010620	-0.035095	0.999475	0.000230	-0.002930	0.032234	
29262	    0	6.164110	-1.059374	-3.832870	-0.255827	-0.754890	6.915917	0.062103	-0.008500	-0.038083	0.999393	-0.001279	-0.003774	0.034573	
29263	    0	7.112664	-2.287082	-3.877243	-0.518919	-0.909443	7.373225	0.072083	-0.020325	-0.038391	0.999307	-0.002594	-0.004546	0.036858	
29264	    0	8.909605	-3.451089	-3.140925	-0.691209	-1.048546	7.721963	0.090505	-0.031141	-0.030826	0.999234	-0.003455	-0.005241	0.038600	
29265	    0	11.488635	-2.954197	-2.289221	-0.844811	-1.184987	8.077218	0.116089	-0.024963	-0.022095	0.999158	-0.004223	-0.005923	0.040375	
29266	    0	14.532258	-2.630644	-1.368798	-1.169950	-1.302743	8.460578	0.146348	-0.020205	-0.012607	0.999066	-0.005848	-0.006512	0.042290	
29267	    0	17.833114	-1.407790	0.934980	-1.637832	-1.342282	8.837116	0.178650	-0.006104	0.010620	0.998967	-0.008186	-0.006709	0.044170	
29268	    0	19.889326	-0.113027	2.937043	-1.859598	-1.520917	9.169578	0.198427	0.008259	0.030833	0.998877	-0.009295	-0.007602	0.045831	
29269	    0	21.028545	-0.594521	5.330518	-1.621665	-1.729470	9.193822	0.209778	0.004150	0.055115	0.998873	-0.008105	-0.008644	0.045952	
29270	    0	23.382841	1.413777	5.759072	-0.887801	-1.848298	8.953381	0.232331	0.024825	0.059649	0.998945	-0.004437	-0.009238	0.044751	
29271	    0	23.913448	7.353423	5.246937	0.081662	-1.796373	8.804231	0.235107	0.083923	0.054626	0.998990	0.000408	-0.008979	0.044006	
29272	    0	25.829790	13.722030	2.526415	1.002262	-1.540121	8.720232	0.251787	0.148160	0.027945	0.999007	0.005010	-0.007698	0.043587	
29273	    0	31.810958	19.022366	0.359762	1.688348	-1.153167	8.483526	0.309631	0.203430	0.007080	0.999048	0.008439	-0.005764	0.042404	
29274	    0	36.446400	23.434621	0.645954	2.565174	-0.997642	7.872765	0.354822	0.248318	0.011372	0.999130	0.012822	-0.004987	0.039352	
29275	    0	34.462673	28.512157	0.331286	3.665511	-0.932547	6.787291	0.334656	0.296448	0.010254	0.999245	0.018323	-0.004662	0.033928	
29276	    0	30.539735	35.353744	-3.232043	4.311649	-0.810020	5.297751	0.295988	0.362030	-0.023364	0.999408	0.021554	-0.004049	0.026484	
29277	    0	24.090454	39.792010	-8.075892	4.177844	-0.909546	3.721354	0.233765	0.403870	-0.071289	0.999598	0.020886	-0.004547	0.018604	
29278	    0	16.547309	43.875699	-8.587051	3.435208	-1.013834	2.371017	0.160652	0.442060	-0.077474	0.999769	0.017175	-0.005069	0.011854	
29279	    0	13.222764	44.096939	-5.712300	2.269818	-1.003107	1.237527	0.129761	0.442383	-0.051453	0.999904	0.011349	-0.005015	0.006187	
29280	    0	11.715214	38.240564	-3.127130	1.349082	-0.884638	0.050545	0.117185	0.382632	-0.028172	0.999967	0.006745	-0.004423	0.000253	
29281	    0	14.524948	31.132467	-2.384823	1.136990	-0.897232	-1.398492	0.147522	0.310425	-0.021423	0.999949	0.005685	-0.004486	-0.006992	
29282	    0	11.989760	30.231993	-1.230451	0.926817	-0.927198	-2.749740	0.124090	0.300684	-0.010340	0.999884	0.004634	-0.004636	-0.013748	
29283	    0	14.027077	32.468033	-0.842230	0.569379	-0.585974	-3.797388	0.146423	0.321960	-0.007080	0.999811	0.002847	-0.002930	-0.018986	
29284	    0	30.001298	45.187869	2.274073	-0.114839	0.078404	-5.946273	0.313276	0.442708	0.022364	0.999557	-0.000574	0.000392	-0.029727	
29285	    0	36.861500	4.774198	3.221650	-0.614091	-0.038154	-6.699872	0.369934	0.035461	0.032166	0.999434	-0.003070	-0.000191	-0.033493	
29286	    0	30.109346	2.453944	-10.108988	2.379196	-2.150643	-6.655299	0.302775	0.015656	-0.097618	0.999317	0.011893	-0.010751	-0.033269	
29287	    0	25.597627	20.070664	-9.068684	5.226219	-2.574470	-8.141675	0.265015	0.192261	-0.082214	0.998747	0.026120	-0.012867	-0.040691	
29288	    0	19.799750	15.978261	3.094887	4.318748	-1.710824	-7.012718	0.203125	0.151978	0.036011	0.999115	0.021587	-0.008552	-0.035053	
29289	    0	11.086156	12.473175	9.998776	3.176064	-2.286087	-6.190730	0.113450	0.119624	0.103202	0.999328	0.015877	-0.011428	-0.030947	
29290	    0	2.587096	14.412129	-3.386221	1.723751	-2.167089	-5.481055	0.030168	0.143617	-0.032311	0.999528	0.008617	-0.010834	-0.027401	
29291	    0	-1.657906	22.863786	-5.022572	0.293951	-1.532893	-4.551373	-0.010986	0.229004	-0.049988	0.999710	0.001470	-0.007664	-0.022755	
29292	    0	1.534089	10.425703	-8.972514	-0.833561	-0.718160	-3.621699	0.017544	0.103578	-0.090097	0.999821	-0.004168	-0.003591	-0.018107	
29293	    0	10.488642	7.777897	-9.427595	-1.623418	-0.087742	-2.858863	0.106018	0.075500	-0.094849	0.999865	-0.008117	-0.000439	-0.014294	
29294	    0	19.216892	7.787463	-9.312398	-1.588685	0.013543	-2.388845	0.193069	0.074829	-0.093740	0.999897	-0.007943	0.000068	-0.011944	
29295	    0	27.289646	5.793030	-5.064386	-1.702741	-0.112918	-2.056183	0.273499	0.054688	-0.050964	0.999910	-0.008513	-0.000565	-0.010281	
29296	    0	28.712532	2.099038	-1.983018	-1.685001	-0.140576	-2.031767	0.287332	0.017905	-0.019788	0.999912	-0.008425	-0.000703	-0.010159	
29297	    0	30.113625	-0.257386	-0.845000	-2.073553	0.014496	-2.083663	0.301086	-0.005798	-0.008423	0.999891	-0.010367	0.000072	-0.010418	
29298	    0	28.926635	-3.158858	1.715948	-2.491489	0.039675	-2.093980	0.288919	-0.034398	0.017519	0.999867	-0.012457	0.000198	-0.010469	
29299	    0	26.472210	-5.343411	3.615327	-3.088369	0.103003	-2.114992	0.264160	-0.055664	0.036865	0.999825	-0.015441	0.000515	-0.010574	
29300	    0	25.489900	-3.269303	6.188224	-4.062240	0.137532	-2.048860	0.254598	-0.034039	0.062389	0.999741	-0.020309	0.000688	-0.010243	
29301	    0	22.753288	-1.559907	8.272172	-5.421234	0.064096	-1.838935	0.227417	-0.015442	0.083069	0.999590	-0.027102	0.000320	-0.009193	
29302	    0	17.684481	-6.746428	6.715858	-6.756983	-0.055515	-1.451590	0.176341	-0.066424	0.069464	0.999403	-0.033778	-0.000278	-0.007257	
29303	    0	13.274286	-12.499273	1.800831	-6.576239	-0.144032	-1.230851	0.131958	-0.125122	0.022217	0.999440	-0.032875	-0.000720	-0.006153	
29304	    0	14.297606	-14.166165	-1.756902	-4.714112	0.091944	-1.500283	0.141899	-0.143091	-0.014273	0.999694	-0.023568	0.000460	-0.007501	
29305	    0	16.290468	-10.622642	-4.711361	-2.899880	0.274671	-1.700673	0.161926	-0.108276	-0.045776	0.999857	-0.014499	0.001373	-0.008503	
29306	    0	18.871133	-3.036265	-5.426913	-1.822140	0.242431	-1.776362	0.188363	-0.032531	-0.054208	0.999918	-0.009110	0.001212	-0.008882	
29307	    0	16.589487	-3.419624	-2.178056	-1.527253	0.263221	-1.916552	0.165527	-0.035950	-0.021729	0.999924	-0.007636	0.001316	-0.009583	
29308	    0	15.809216	-1.426539	-3.557244	-1.592503	0.619529	-2.405826	0.157792	-0.016450	-0.035936	0.999890	-0.007962	0.003098	-0.012029	
29309	    0	15.167720	2.179945	-5.323360	-1.546568	0.989781	-3.245732	0.151733	0.018921	-0.054138	0.999825	-0.007732	0.004949	-0.016228	
29310	    0	12.287911	8.435893	-6.980400	-1.514745	1.171777	-3.903506	0.124073	0.081409	-0.071153	0.999763	-0.007573	0.005858	-0.019516	
29311	    0	15.730830	6.447022	-9.032957	-1.108456	1.192577	-4.253755	0.158081	0.060608	-0.091614	0.999741	-0.005542	0.005962	-0.021267	
29312	    0	16.637661	-1.568168	-9.367665	-0.306343	1.308349	-4.036063	0.165396	-0.019171	-0.094733	0.999773	-0.001532	0.006541	-0.020179	
29313	    0	17.448164	-5.613937	-8.332203	0.403055	1.615274	-4.086635	0.172607	-0.059509	-0.084839	0.999756	0.002015	0.008076	-0.020432	
29314	    0	20.217674	-8.985465	-4.882966	0.885478	1.861754	-4.375694	0.199681	-0.094019	-0.051106	0.999707	0.004427	0.009308	-0.021876	
29315	    0	21.530548	-8.566340	-2.717566	1.242205	1.639169	-4.763565	0.212952	-0.090576	-0.029480	0.999663	0.006210	0.008195	-0.023815	
29316	    0	22.890180	-9.621199	-0.501526	1.503176	1.376703	-5.041934	0.226336	-0.101891	-0.007331	0.999630	0.007515	0.006883	-0.025207	
29317	    0	21.302183	-11.645925	-0.636005	1.113263	1.148553	-5.128333	0.209900	-0.121826	-0.008240	0.999639	0.005566	0.005742	-0.025639	
29318	    0	19.405931	-11.941991	-0.470120	0.684814	1.034278	-4.990937	0.190970	-0.124192	-0.006114	0.999669	0.003424	0.005171	-0.024952	
29319	    0	18.177437	-11.789898	-1.453840	0.416604	0.792960	-4.673445	0.178894	-0.122070	-0.015503	0.999717	0.002083	0.003964	-0.023365	
29320	    0	15.956032	-10.152450	-2.787691	0.090034	0.541921	-4.361504	0.157220	-0.104958	-0.028352	0.999758	0.000450	0.002709	-0.021806	
29321	    0	13.163221	-7.821279	-4.797874	-0.382831	0.320457	-4.027071	0.129944	-0.080933	-0.048035	0.999794	-0.001914	0.001602	-0.020134	
29322	    0	11.220019	-7.538678	-5.669129	-0.575860	0.229467	-3.585632	0.110758	-0.077544	-0.056598	0.999834	-0.002879	0.001147	-0.017927	
29323	    0	9.891410	-8.315773	-5.766830	-0.516532	0.215349	-3.127420	0.097534	-0.084839	-0.057556	0.999873	-0.002583	0.001077	-0.015636	
29324	    0	9.587839	-8.358592	-5.062629	-0.302134	0.215346	-2.723589	0.094673	-0.084957	-0.050601	0.999905	-0.001511	0.001077	-0.013618	
29325	    0	10.431921	-8.244788	-3.777392	-0.002861	0.251012	-2.256823	0.103333	-0.083618	-0.037903	0.999935	-0.000014	0.001255	-0.011284	
29326	    0	11.234797	-8.900273	-3.167736	0.487334	0.211528	-1.656744	0.111572	-0.089851	-0.032014	0.999962	0.002437	0.001058	-0.008284	
29327	    0	10.386681	-8.878955	-2.928145	1.002702	0.110627	-1.026162	0.103394	-0.089172	-0.029785	0.999973	0.005013	0.000553	-0.005131	
29328	    0	8.064926	-6.471826	-4.029259	1.281938	-0.005341	-0.330546	0.080544	-0.064591	-0.040705	0.999978	0.006410	-0.000027	-0.001653	
29329	    0	5.581836	-3.787702	-4.880533	1.074225	0.013924	0.495914	0.055908	-0.037476	-0.049011	0.999982	0.005371	0.000070	0.002480	
29330	    0	3.857262	-3.702457	-4.765649	0.806628	0.100137	1.521511	0.038828	-0.036537	-0.047824	0.999962	0.004033	0.000501	0.007607	
29331	    0	2.085784	-2.849045	-4.096692	1.209304	0.006294	2.727610	0.021240	-0.027954	-0.041138	0.999888	0.006046	0.000031	0.013638	
29332	    0	1.658188	-1.976290	-3.784576	1.387691	0.009919	3.796073	0.016948	-0.019180	-0.037981	0.999795	0.006938	0.000050	0.018979	
29333	    0	2.721044	-1.517040	-3.726201	1.092629	0.084885	4.545244	0.027527	-0.014343	-0.037354	0.999726	0.005463	0.000424	0.022724	
29334	    0	3.070716	-1.070205	-4.144898	0.773327	0.103772	5.169885	0.030946	-0.009744	-0.041504	0.999658	0.003866	0.000519	0.025846	
29335	    0	3.158860	-1.475668	-4.072573	0.474044	0.077831	5.821293	0.031982	-0.013733	-0.040771	0.999573	0.002370	0.000389	0.029102	
29336	    0	4.159882	-1.884298	-3.844818	0.259635	-0.028234	6.463033	0.042183	-0.017436	-0.038465	0.999476	0.001298	-0.000141	0.032310	
29337	    0	5.209100	-1.548795	-3.489146	-0.055515	-0.138883	6.962466	0.052612	-0.013672	-0.034851	0.999393	-0.000278	-0.000694	0.034805	
29338	    0	6.011872	-1.697629	-2.760205	-0.426962	-0.236565	7.365755	0.060723	-0.014806	-0.027497	0.999318	-0.002134	-0.001183	0.036820	
29339	    0	6.804968	-2.430767	-2.473590	-0.624814	-0.376224	7.735100	0.068970	-0.021729	-0.024536	0.999245	-0.003123	-0.001881	0.038666	
29340	    0	8.549634	-1.727818	-2.758023	-0.904334	-0.471818	8.099707	0.086170	-0.013921	-0.027309	0.999166	-0.004520	-0.002358	0.040487	
29341	    0	10.612778	-0.574901	-2.602039	-1.496392	-0.570090	8.425433	0.106323	-0.001465	-0.025696	0.999081	-0.007480	-0.002850	0.042114	
29342	    0	13.043258	-1.208710	-0.549847	-2.183317	-0.665699	8.714380	0.130813	-0.006448	-0.004972	0.998985	-0.010913	-0.003327	0.043557	
29343	    0	16.065332	-1.363908	0.674357	-2.426073	-0.968521	8.950996	0.161011	-0.006348	0.007629	0.998913	-0.012126	-0.004841	0.044739	
29344	    0	17.787652	-1.586195	2.686341	-2.181859	-1.377233	9.057722	0.178151	-0.007493	0.028202	0.998891	-0.010905	-0.006884	0.045272	
29345	    0	20.861461	-1.397638	4.357928	-1.561533	-1.757488	8.966986	0.208557	-0.004272	0.045471	0.998925	-0.007805	-0.008784	0.044819	
29346	    0	23.867159	2.472111	4.728570	-0.668941	-2.020561	8.724856	0.236794	0.035244	0.049579	0.998992	-0.003344	-0.010099	0.043610	
29347	    0	25.436692	9.328235	2.721198	0.379304	-2.090180	8.575176	0.249756	0.104004	0.030029	0.999024	0.001896	-0.010448	0.042862	
29348	    0	28.598908	15.634402	-0.636182	1.491846	-1.950714	8.531129	0.279013	0.168375	-0.002391	0.999015	0.007457	-0.009750	0.042642	
29349	    0	33.908601	23.145179	-1.449729	2.059816	-1.721537	8.222473	0.329285	0.245239	-0.009155	0.999064	0.010296	-0.008605	0.041100	
29350	    0	32.857856	26.310413	0.565728	2.359481	-1.528406	7.715104	0.318039	0.275399	0.011316	0.999157	0.011794	-0.007640	0.038565	
29351	    0	30.976883	26.348861	3.008950	2.997744	-1.314101	6.894068	0.300232	0.273438	0.036133	0.999271	0.014985	-0.006569	0.034462	
29352	    0	28.944253	29.570937	1.840718	3.418411	-1.017950	5.632872	0.280854	0.303311	0.024993	0.999444	0.017089	-0.005089	0.028159	
29353	    0	24.424126	32.156200	-3.019593	3.510921	-0.824079	4.180676	0.237549	0.327026	-0.023499	0.999619	0.017552	-0.004120	0.020901	
29354	    0	18.313271	35.018451	-7.134940	3.178073	-0.739153	2.730957	0.178567	0.353711	-0.065082	0.999773	0.015889	-0.003695	0.013654	
29355	    0	12.461733	39.561572	-7.683828	2.283749	-0.763729	1.640378	0.121643	0.397461	-0.071838	0.999893	0.011418	-0.003819	0.008202	
29356	    0	9.205573	42.708703	-4.077924	0.794225	-0.668148	0.668339	0.090759	0.427548	-0.038777	0.999981	0.003971	-0.003341	0.003342	
29357	    0	7.922864	35.851387	-1.714751	-0.372125	-0.591280	-0.513460	0.080200	0.358276	-0.017578	0.999990	-0.001861	-0.002956	-0.002567	
29358	    0	9.521754	25.815340	-0.080381	-0.675211	-0.453574	-1.663804	0.097363	0.257345	-0.001454	0.999957	-0.003376	-0.002268	-0.008319	
29359	    0	10.896413	20.480729	1.874125	-0.586527	-0.302133	-2.585679	0.111572	0.203430	0.018311	0.999910	-0.002933	-0.001511	-0.012928	
29360	    0	12.352833	17.457107	1.958729	-0.632695	-0.305952	-3.174540	0.126249	0.172643	0.019231	0.999867	-0.003163	-0.001530	-0.015872	
29361	    0	11.924857	13.516904	-2.429161	-1.126169	-0.536952	-3.668442	0.121765	0.132812	-0.024719	0.999812	-0.005630	-0.002685	-0.018341	
29362	    0	9.432450	23.122230	-16.602379	-1.009079	-1.046466	-4.425258	0.100267	0.228208	-0.166666	0.999728	-0.005045	-0.005232	-0.022124	
29363	    0	33.003317	44.535611	-42.130188	1.326423	-1.316312	-6.371715	0.346802	0.437256	-0.416138	0.999449	0.006631	-0.006580	-0.031853	
29364	    0	74.908306	7.140733	21.204417	3.259962	0.967399	-8.999098	0.752196	0.034174	0.209169	0.998843	0.016294	0.004835	-0.044978	
29365	    0	28.991270	1.771004	15.789478	6.026290	-2.829784	-6.333863	0.287903	0.003723	0.162231	0.998944	0.030121	-0.014144	-0.031658	
29366	    0	0.961561	4.342384	17.054463	3.371441	-1.458694	-6.450417	0.009700	0.040228	0.171311	0.999310	0.016853	-0.007292	-0.032245	
29367	    0	5.450116	19.857693	7.533390	3.305127	-1.579593	-5.781158	0.059570	0.195618	0.079041	0.999414	0.016522	-0.007896	-0.028900	
29368	    0	6.201485	24.057635	2.878801	1.453198	-1.438510	-5.055673	0.067847	0.238690	0.031001	0.999628	0.007265	-0.007192	-0.025275	
