// Start Time: Unknown
// Update Rate: 100.0Hz
// Filter Profile: human (34.3)
// Firmware Version: 2.1.4
PacketCounter	SampleTimeFine	Acc_X	Acc_Y	Acc_Z	Gyr_X	Gyr_Y	Gyr_Z	VelInc_X	VelInc_Y	VelInc_Z	OriInc_q0	OriInc_q1	OriInc_q2	OriInc_q3	
40540	    0	25.552486	13.282589	-9.022486	0.117695	1.499321	4.578843	0.251709	0.138672	-0.092041	0.999709	0.000588	0.007496	0.022892	
40541	    0	19.891535	13.446870	-7.376134	-0.001335	1.474509	4.331204	0.195391	0.138725	-0.075212	0.999737	-0.000007	0.007372	0.021654	
40542	    0	14.577017	13.073820	-7.312261	-0.126276	1.312354	4.020991	0.142619	0.133580	-0.074149	0.999776	-0.000631	0.006561	0.020103	
40543	    0	10.871945	13.452443	-7.430802	-0.431849	0.998175	3.610443	0.105896	0.136292	-0.075134	0.999822	-0.002159	0.004991	0.018051	
40544	    0	8.188682	13.371550	-6.062282	0.135619	0.772513	3.272020	0.079450	0.135070	-0.060842	0.999858	0.000678	0.003862	0.016359	
40545	    0	6.422534	13.734147	-6.199170	0.457207	0.485246	2.813056	0.062134	0.138367	-0.061829	0.999895	0.002286	0.002426	0.014065	
40546	    0	4.776652	16.132390	-7.335419	0.424204	0.141147	2.335031	0.045826	0.162022	-0.073044	0.999928	0.002121	0.000706	0.011675	
40547	    0	3.156793	18.994975	-9.394876	-0.480659	-0.295071	1.830320	0.029968	0.190002	-0.094360	0.999953	-0.002403	-0.001475	0.009151	
40548	    0	0.820723	19.434672	-9.676755	-0.987255	-0.196269	1.364343	0.006979	0.193916	-0.097718	0.999964	-0.004936	-0.000981	0.006822	
40549	    0	-5.514272	20.280899	-9.419940	-1.985788	0.699632	1.152829	-0.056641	0.201538	-0.096008	0.999928	-0.009929	0.003498	0.005764	
40550	    0	-12.534009	21.446010	-6.072522	-2.663164	1.494286	1.347032	-0.127240	0.212782	-0.062620	0.999860	-0.013315	0.007471	0.006735	
40551	    0	-16.880752	21.075316	1.157932	-2.088812	1.454214	1.427510	-0.170227	0.209656	0.010620	0.999893	-0.010444	0.007271	0.007137	
40552	    0	-15.537354	11.687996	2.343696	-1.767572	0.303655	1.040668	-0.155945	0.116272	0.022644	0.999946	-0.008838	0.001518	0.005203	
40553	    0	-12.515474	8.342641	0.492501	-0.534059	-0.446130	0.235749	-0.125263	0.083291	0.004423	0.999991	-0.002670	-0.002231	0.001179	
40554	    0	-10.426492	9.059955	-0.507711	-0.239373	-1.038175	0.129128	-0.104295	0.090526	-0.005727	0.999985	-0.001197	-0.005191	0.000646	
40555	    0	-3.484109	4.485607	4.252625	0.041962	-1.701950	0.616463	-0.035339	0.044739	0.042236	0.999959	0.000210	-0.008510	0.003082	
40556	    0	4.078576	-6.641940	5.635239	0.616475	-2.506909	1.023707	0.040417	-0.066386	0.056656	0.999903	0.003082	-0.012534	0.005118	
40557	    0	8.594956	-17.603069	4.005199	0.962898	-3.929228	0.893466	0.085938	-0.175842	0.040894	0.999785	0.004814	-0.019645	0.004467	
40558	    0	16.092384	-29.759863	-17.915539	1.488198	-3.366280	0.255599	0.164312	-0.296060	-0.178616	0.999829	0.007441	-0.016830	0.001278	
40559	    0	19.204293	-33.772970	-22.142842	2.457726	1.955499	-0.773654	0.188538	-0.335693	-0.227417	0.999868	0.012288	0.009777	-0.003868	
40560	    0	9.362376	-24.068438	4.187544	2.610817	3.572778	-1.220620	0.092841	-0.241757	0.037061	0.999736	0.013053	0.017862	-0.006103	
40561	    0	3.890177	0.202648	14.470440	3.193313	2.418685	-0.740102	0.040649	-0.000427	0.144226	0.999792	0.015965	0.012093	-0.003700	
40562	    0	5.224003	6.704350	-1.280667	5.014139	2.656339	-0.012781	0.052083	0.067345	-0.011813	0.999598	0.025067	0.013280	-0.000064	
40563	    0	4.829864	-2.093223	27.363133	3.166639	2.871930	-0.780548	0.052124	-0.025452	0.272522	0.999763	0.015832	0.014359	-0.003902	
40564	    0	16.667882	-15.508490	11.121882	0.899511	-0.794416	0.119973	0.166330	-0.155485	0.111181	0.999981	0.004498	-0.003972	0.000600	
40565	    0	28.957184	-14.297167	-16.869594	0.425917	-1.674674	0.403600	0.291260	-0.142029	-0.166565	0.999960	0.002130	-0.008373	0.002018	
40566	    0	22.703015	12.064399	-17.593219	0.914768	-0.383760	-0.050354	0.227397	0.121388	-0.174942	0.999988	0.004574	-0.001919	-0.000252	
40567	    0	7.569593	34.787717	-9.659840	0.991835	-0.221828	-1.476308	0.078369	0.347778	-0.094788	0.999959	0.004959	-0.001109	-0.007381	
40568	    0	-3.500763	52.909483	-11.442051	-0.127034	-0.872641	-2.698989	-0.027364	0.529426	-0.114887	0.999899	-0.000635	-0.004363	-0.013494	
40569	    0	-8.590724	44.561137	-12.855471	-1.430572	-1.126718	-2.613178	-0.079346	0.445740	-0.132202	0.999873	-0.007153	-0.005633	-0.013065	
40570	    0	4.106042	23.139389	-12.829947	-1.703183	-1.235470	-3.356581	0.045723	0.229550	-0.129987	0.999804	-0.008515	-0.006177	-0.016782	
40571	    0	26.504925	11.044401	-10.303231	-1.724312	-1.666136	-1.974567	0.266968	0.106934	-0.101746	0.999879	-0.008621	-0.008330	-0.009872	
40572	    0	41.922987	-1.039662	-10.714513	-1.149016	-1.599734	-1.467169	0.419974	-0.014078	-0.103714	0.999924	-0.005745	-0.007998	-0.007336	
40573	    0	27.346108	-5.176717	-9.239955	0.238814	-1.471605	-3.422745	0.273193	-0.056335	-0.090454	0.999825	0.001194	-0.007358	-0.017113	
40574	    0	14.820527	4.284286	-7.389627	1.000499	-1.677290	-4.344206	0.149706	0.039967	-0.072440	0.999716	0.005002	-0.008386	-0.021719	
40575	    0	18.614143	17.210693	-8.268575	0.809742	-1.902941	-4.144658	0.190430	0.168518	-0.080200	0.999731	0.004048	-0.009514	-0.020721	
40576	    0	26.259239	18.817775	-9.706244	0.300236	-2.135416	-3.323391	0.266686	0.183911	-0.093951	0.999804	0.001501	-0.010676	-0.016616	
40577	    0	27.533079	1.487846	-6.668531	-0.741438	-2.224124	-3.354879	0.276245	0.010010	-0.063660	0.999790	-0.003707	-0.011120	-0.016773	
40578	    0	29.999395	-12.440693	-3.951395	-1.204783	-2.140608	-3.780113	0.297963	-0.130274	-0.035544	0.999745	-0.006023	-0.010702	-0.018899	
40579	    0	27.327598	-13.862675	0.820576	-0.971301	-1.765395	-3.938615	0.270386	-0.143921	0.011292	0.999755	-0.004856	-0.008826	-0.019691	
40580	    0	24.649055	-8.934425	5.044869	-0.623750	-1.497953	-3.911692	0.244294	-0.093975	0.052572	0.999775	-0.003119	-0.007489	-0.019557	
40581	    0	22.481964	-4.834378	7.153468	-0.881260	-1.379306	-3.882123	0.223328	-0.052368	0.073303	0.999778	-0.004406	-0.006896	-0.019409	
40582	    0	19.302353	-2.181979	7.383901	-1.872024	-1.289472	-3.778382	0.192092	-0.024755	0.075302	0.999757	-0.009359	-0.006447	-0.018890	
40583	    0	15.481785	-5.597595	6.089193	-2.988530	-1.137652	-3.575477	0.153442	-0.057800	0.062622	0.999712	-0.014941	-0.005688	-0.017876	
40584	    0	13.255696	-10.275440	4.161440	-3.744919	-0.988306	-3.375997	0.130592	-0.104158	0.044205	0.999670	-0.018723	-0.004941	-0.016878	
40585	    0	10.285364	-14.447928	3.172953	-4.111765	-0.876719	-3.172669	0.100403	-0.145386	0.035156	0.999653	-0.020556	-0.004383	-0.015862	
40586	    0	7.630645	-20.582542	2.747882	-4.730440	-0.784019	-2.698667	0.073405	-0.206098	0.032643	0.999621	-0.023649	-0.003920	-0.013492	
40587	    0	5.538250	-28.205263	1.420583	-5.160432	-0.683492	-2.047233	0.052429	-0.282104	0.021667	0.999608	-0.025799	-0.003417	-0.010235	
40588	    0	3.315092	-35.378239	1.204792	-4.998578	-0.458006	-1.334340	0.030750	-0.353543	0.020959	0.999662	-0.024990	-0.002290	-0.006671	
40589	    0	1.464783	-37.470019	1.255210	-3.560836	-0.079922	-0.778241	0.013184	-0.374451	0.019226	0.999833	-0.017803	-0.000400	-0.003891	
40590	    0	0.638969	-38.853160	-0.400380	-0.754359	0.292016	-0.189210	0.006018	-0.388549	-0.002547	0.999990	-0.003772	0.001460	-0.000946	
40591	    0	1.237605	-36.940121	-0.833422	2.170611	0.750940	0.294501	0.012878	-0.369263	-0.012390	0.999932	0.010853	0.003755	0.001472	
40592	    0	2.655146	-25.600316	-0.778982	3.382479	1.020866	0.305192	0.026887	-0.255780	-0.012254	0.999843	0.016912	0.005104	0.001526	
40593	    0	2.745930	-12.321399	1.703874	2.467419	0.989752	-0.018311	0.027527	-0.123413	0.015381	0.999911	0.012337	0.004949	-0.000092	
40594	    0	2.166674	-0.271421	4.037619	0.751118	0.791173	-0.431063	0.021820	-0.002913	0.040279	0.999982	0.003756	0.003956	-0.002155	
40595	    0	3.742118	5.949483	2.283450	0.209237	0.696565	-0.121308	0.037537	0.059448	0.022766	0.999992	0.001046	0.003483	-0.000607	
40596	    0	6.618246	2.862030	3.154434	-0.003815	0.965316	0.820547	0.066216	0.028893	0.031224	0.999979	-0.000019	0.004827	0.004103	
40597	    0	8.149577	-2.845945	3.428743	-0.958839	0.890364	1.433586	0.081848	-0.027710	0.034058	0.999952	-0.004794	0.004452	0.007168	
40598	    0	9.237305	-3.902375	-0.632189	-1.960424	0.397120	1.520769	0.092654	-0.038381	-0.006127	0.999921	-0.009802	0.001986	0.007604	
40599	    0	16.428729	-0.668106	-6.774270	-1.762246	-0.075533	1.799822	0.164368	-0.005798	-0.067627	0.999920	-0.008811	-0.000378	0.008999	
40600	    0	28.740189	0.951629	-13.785703	-0.142292	0.068094	2.543137	0.287204	0.013071	-0.137963	0.999918	-0.000711	0.000340	0.012715	
40601	    0	30.706228	-3.511373	-14.960563	0.786048	0.668360	2.807722	0.307007	-0.030212	-0.150757	0.999887	0.003930	0.003342	0.014038	
40602	    0	28.900710	-6.371771	-10.409291	1.649753	1.127112	2.936899	0.289298	-0.058600	-0.106220	0.999842	0.008248	0.005635	0.014684	
40603	    0	27.847304	-0.550499	-7.491666	3.085599	1.277464	3.157321	0.278015	0.000061	-0.076721	0.999736	0.015427	0.006387	0.015785	
40604	    0	26.702987	6.025216	-6.841835	4.194451	1.207326	3.704958	0.265421	0.066618	-0.068671	0.999590	0.020969	0.006036	0.018522	
40605	    0	28.233730	9.985464	-8.237892	3.919976	1.087345	4.247896	0.279663	0.107422	-0.081848	0.999567	0.019597	0.005436	0.021236	
40606	    0	30.994704	13.072912	-9.152925	3.038588	1.101247	4.355965	0.306479	0.138817	-0.091155	0.999632	0.015191	0.005506	0.021777	
40607	    0	30.824060	13.255247	-11.502450	1.912310	1.118582	4.398791	0.304565	0.140381	-0.115417	0.999697	0.009561	0.005592	0.021992	
40608	    0	28.894700	12.143124	-9.658170	0.894055	1.341749	4.352960	0.285553	0.128107	-0.097942	0.999730	0.004470	0.006708	0.021763	
40609	    0	25.040514	12.754031	-8.372371	0.449408	1.381988	4.193459	0.247070	0.132935	-0.085144	0.999753	0.002247	0.006909	0.020966	
40610	    0	20.049756	13.048629	-7.815582	0.105293	1.288316	3.953456	0.197357	0.134450	-0.079364	0.999782	0.000526	0.006441	0.019766	
40611	    0	15.792574	13.479270	-7.275945	-0.371574	1.076001	3.661571	0.155029	0.137512	-0.073853	0.999816	-0.001858	0.005380	0.018307	
40612	    0	12.631769	12.226065	-5.351113	0.052073	0.959065	3.390678	0.123962	0.124390	-0.054077	0.999845	0.000260	0.004795	0.016953	
40613	    0	9.816065	12.236908	-5.491887	0.228128	0.670079	3.070386	0.096082	0.123918	-0.055102	0.999875	0.001141	0.003350	0.015351	
40614	    0	7.354932	13.686068	-5.405316	0.462165	0.547999	2.654731	0.071575	0.137944	-0.053933	0.999905	0.002311	0.002740	0.013273	
40615	    0	5.210002	16.279680	-6.387390	0.123026	0.272375	2.182814	0.050232	0.163391	-0.063843	0.999939	0.000615	0.001362	0.010914	
40616	    0	3.613123	18.780125	-7.229102	-0.521095	-0.026894	1.789310	0.034460	0.187925	-0.072776	0.999956	-0.002605	-0.000134	0.008946	
40617	    0	1.260393	19.514798	-7.703697	-1.055732	-0.034333	1.485464	0.011169	0.194824	-0.078064	0.999958	-0.005279	-0.000172	0.007427	
40618	    0	-4.945807	20.287581	-7.352546	-1.477651	0.535784	1.441220	-0.051115	0.201962	-0.074884	0.999943	-0.007388	0.002679	0.007206	
40619	    0	-12.396940	20.109163	-5.822702	-2.195627	0.970493	1.658689	-0.125916	0.199402	-0.059814	0.999893	-0.010978	0.004852	0.008293	
40620	    0	-16.216993	18.407291	-0.618793	-2.621000	0.946085	1.583358	-0.163654	0.182686	-0.007816	0.999869	-0.013104	0.004730	0.007916	
40621	    0	-15.083914	11.360301	3.115171	-1.904146	0.344856	1.133752	-0.151428	0.113037	0.030334	0.999937	-0.009521	0.001724	0.005669	
40622	    0	-10.808066	5.061131	3.150816	-0.477220	-0.310899	0.446321	-0.108242	0.050445	0.031219	0.999993	-0.002386	-0.001554	0.002232	
40623	    0	-9.967153	5.437868	-0.142655	0.408365	-0.788882	0.244141	-0.099731	0.054260	-0.001709	0.999989	0.002042	-0.003944	0.001221	
40624	    0	-4.944820	4.035482	2.761032	0.603682	-1.374831	0.492483	-0.049736	0.040150	0.027390	0.999969	0.003018	-0.006874	0.002462	
40625	    0	0.666742	-2.603876	4.854842	1.204717	-2.241391	0.775169	0.006226	-0.026306	0.048462	0.999911	0.006023	-0.011207	0.003876	
40626	    0	3.820619	-11.955710	7.133499	1.574044	-3.503260	0.728463	0.037396	-0.119980	0.071052	0.999808	0.007870	-0.017515	0.003642	
40627	    0	9.040063	-23.571743	-6.821849	1.825305	-4.243086	0.369296	0.092285	-0.234924	-0.068420	0.999731	0.009126	-0.021214	0.001846	
40628	    0	19.129442	-30.491326	-26.251090	1.957356	-0.107004	-0.610744	0.190509	-0.302908	-0.265380	0.999947	0.009787	-0.000535	-0.003054	
40629	    0	12.211018	-25.214363	-4.367276	2.068464	3.109371	-1.294793	0.119751	-0.252441	-0.048157	0.999804	0.010342	0.015546	-0.006474	
40630	    0	4.010224	-5.566302	12.599277	1.812440	2.439603	-1.012273	0.041345	-0.057006	0.124981	0.999871	0.009062	0.012197	-0.005061	
40631	    0	0.922519	9.684777	6.898796	2.882697	1.279503	-0.321211	0.009827	0.095825	0.070312	0.999874	0.014413	0.006397	-0.001606	
40632	    0	2.293814	4.869774	1.902394	3.029855	2.901100	-0.221078	0.023272	0.048380	0.019423	0.999779	0.015148	0.014504	-0.001105	
40633	    0	9.601621	-9.641033	29.351207	1.762437	1.716087	-0.525679	0.098267	-0.099243	0.291809	0.999921	0.008812	0.008580	-0.002628	
40634	    0	37.568247	-31.267243	0.649205	1.514854	-1.824997	0.601211	0.376554	-0.311596	0.007563	0.999925	0.007574	-0.009125	0.003006	
40635	    0	30.553519	-23.239621	-18.342831	0.812731	-1.419848	0.573738	0.307495	-0.230774	-0.182190	0.999962	0.004064	-0.007099	0.002869	
40636	    0	15.144699	13.100841	-9.502370	1.866559	0.016976	-0.355154	0.151672	0.131618	-0.093810	0.999954	0.009333	0.000085	-0.001776	
40637	    0	1.872902	55.832404	-8.184961	1.362843	-0.352489	-2.335430	0.025391	0.558594	-0.078003	0.999907	0.006814	-0.001762	-0.011677	
40638	    0	-14.168786	83.735486	-16.935580	-0.868249	-1.469463	-1.956613	-0.132225	0.837931	-0.173987	0.999915	-0.004341	-0.007347	-0.009783	
40639	    0	-3.780258	34.211275	-14.352745	-2.247556	-0.927024	-2.762760	-0.032410	0.340942	-0.147522	0.999830	-0.011237	-0.004635	-0.013813	
40640	    0	12.328559	9.892396	-14.338076	-2.893534	-1.570279	-3.477429	0.126084	0.094669	-0.143788	0.999713	-0.014466	-0.007851	-0.017385	
40641	    0	37.545965	-4.876306	-10.843450	-1.227605	-1.801161	-1.474805	0.376038	-0.052185	-0.104736	0.999913	-0.006138	-0.009006	-0.007374	
40642	    0	43.889308	-2.956723	-13.833299	0.309001	-1.569422	-2.425470	0.439561	-0.034685	-0.134936	0.999894	0.001545	-0.007847	-0.012127	
40643	    0	18.074303	3.111864	-9.203392	1.419394	-1.848016	-4.191991	0.182190	0.027954	-0.090149	0.999712	0.007096	-0.009239	-0.020958	
40644	    0	12.225564	9.828708	-7.862089	1.331864	-2.063416	-4.644356	0.125299	0.095916	-0.076694	0.999655	0.006659	-0.010316	-0.023219	
40645	    0	24.720023	20.751671	-7.881602	1.005642	-2.265175	-3.862338	0.252014	0.203064	-0.074951	0.999736	0.005028	-0.011325	-0.019310	
40646	    0	28.589342	11.460551	-7.697862	0.332091	-2.407043	-3.172704	0.288562	0.110166	-0.073331	0.999800	0.001660	-0.012034	-0.015862	
40647	    0	28.866890	-4.430786	-4.535073	-0.729239	-2.461445	-3.618156	0.288330	-0.049683	-0.041626	0.999754	-0.003646	-0.012306	-0.018089	
40648	    0	29.309120	-12.968466	-0.579992	-0.948800	-2.207572	-3.961536	0.290482	-0.135471	-0.001950	0.999731	-0.004744	-0.011037	-0.019806	
40649	    0	25.657914	-10.574104	3.997018	-0.676017	-1.824140	-3.871458	0.254089	-0.110535	0.042664	0.999764	-0.003380	-0.009120	-0.019356	
40650	    0	23.595323	-6.696543	6.943777	-0.556413	-1.636431	-3.750686	0.234065	-0.071170	0.071552	0.999784	-0.002782	-0.008182	-0.018752	
40651	    0	21.521480	-2.178811	7.584413	-1.257419	-1.529618	-3.753181	0.214172	-0.025330	0.077637	0.999774	-0.006287	-0.007648	-0.018764	
40652	    0	17.961146	-1.668783	7.157781	-2.473473	-1.397445	-3.565716	0.178780	-0.018983	0.073054	0.999740	-0.012366	-0.006987	-0.017827	
40653	    0	15.498098	-6.761953	5.356453	-3.610421	-1.275770	-3.281750	0.153503	-0.069153	0.055786	0.999681	-0.018050	-0.006378	-0.016407	
40654	    0	13.403290	-11.913626	2.955842	-4.259822	-1.178695	-3.143696	0.131958	-0.120544	0.032898	0.999632	-0.021297	-0.005893	-0.015717	
40655	    0	10.028987	-18.242531	2.073707	-4.856784	-1.045181	-2.940777	0.097473	-0.183289	0.025696	0.999583	-0.024281	-0.005225	-0.014702	
40656	    0	7.762935	-26.319552	1.636357	-5.532746	-0.884385	-2.452088	0.074305	-0.263527	0.023985	0.999532	-0.027659	-0.004421	-0.012259	
40657	    0	5.138438	-34.008980	2.255846	-5.553280	-0.689033	-1.768747	0.048279	-0.339722	0.032166	0.999569	-0.027762	-0.003445	-0.008842	
40658	    0	2.639581	-39.038984	2.592117	-4.528266	-0.245117	-1.095490	0.024220	-0.389806	0.034782	0.999727	-0.022639	-0.001225	-0.005477	
40659	    0	0.577933	-41.530430	0.963317	-2.386342	0.000000	-0.431834	0.004883	-0.415161	0.014587	0.999926	-0.011931	0.000000	-0.002159	
40660	    0	0.162213	-42.696360	-1.865840	0.893025	0.471689	0.154305	0.001904	-0.426873	-0.020569	0.999987	0.004465	0.002358	0.000772	
40661	    0	1.325125	-35.685204	-1.965225	3.625705	0.990545	0.473814	0.013977	-0.356384	-0.026184	0.999820	0.018127	0.004952	0.002369	
40662	    0	2.976184	-21.144045	0.091398	3.855586	1.139337	0.366236	0.030138	-0.211349	-0.003332	0.999796	0.019277	0.005696	0.001831	
40663	    0	4.121052	-6.318745	4.971357	2.128650	1.011109	-0.050355	0.041443	-0.063721	0.048828	0.999930	0.010643	0.005055	-0.000252	
40664	    0	5.956306	7.360815	5.590725	0.620463	0.641634	-0.203706	0.059817	0.073374	0.055943	0.999990	0.003102	0.003208	-0.001019	
40665	    0	7.816075	10.618321	3.035462	0.303651	0.778393	0.633243	0.077942	0.106384	0.030212	0.999986	0.001518	0.003892	0.003166	
40666	    0	8.300644	3.994362	3.605625	-0.798620	0.969140	1.526667	0.082870	0.040719	0.035493	0.999950	-0.003993	0.004846	0.007633	
40667	    0	10.433756	-2.444553	0.064257	-2.391907	0.490017	1.797554	0.104553	-0.023499	0.000671	0.999885	-0.011959	0.002450	0.008987	
40668	    0	17.566091	-2.660614	-5.520187	-2.693306	0.056651	2.066712	0.175913	-0.025530	-0.054903	0.999855	-0.013466	0.000283	0.010333	
40669	    0	27.780280	-1.830299	-10.922838	-1.258703	0.223549	2.598663	0.277893	-0.015381	-0.109436	0.999895	-0.006293	0.001118	0.012993	
40670	    0	29.949397	-3.635316	-11.243878	0.175674	0.866543	2.968716	0.299498	-0.031808	-0.113766	0.999880	0.000878	0.004333	0.014843	
40671	    0	28.467521	-4.716185	-7.980036	1.378133	1.097165	3.109144	0.284912	-0.042175	-0.081665	0.999840	0.006890	0.005486	0.015545	
40672	    0	27.539035	0.271377	-6.695291	2.775228	1.112838	3.264503	0.274909	0.008146	-0.068396	0.999755	0.013875	0.005564	0.016321	
40673	    0	26.290803	6.093946	-6.143731	3.677998	1.117840	3.728931	0.261353	0.066956	-0.061707	0.999641	0.018388	0.005589	0.018642	
40674	    0	27.612130	10.369117	-7.540762	3.514379	1.240134	4.275132	0.273335	0.110877	-0.075202	0.999598	0.017570	0.006200	0.021373	
40675	    0	30.806062	13.773163	-9.706885	2.981947	1.183661	4.504205	0.304260	0.146057	-0.096741	0.999618	0.014908	0.005918	0.022518	
40676	    0	32.023442	13.102620	-9.269728	1.753997	1.358179	4.591295	0.316468	0.139139	-0.093658	0.999675	0.008769	0.006790	0.022954	
40677	    0	29.563712	12.164132	-9.523937	0.664583	1.434652	4.485744	0.292114	0.128540	-0.096924	0.999717	0.003323	0.007173	0.022427	
40678	    0	24.895048	12.661744	-8.187894	0.176255	1.462303	4.370695	0.245497	0.132081	-0.083568	0.999734	0.000881	0.007311	0.021852	
40679	    0	19.957259	13.057308	-7.275181	0.002670	1.386561	4.131644	0.196308	0.134652	-0.074119	0.999763	0.000013	0.006932	0.020657	
40680	    0	15.818640	12.470178	-7.221682	-0.201620	1.214681	3.814762	0.155328	0.127609	-0.073294	0.999799	-0.001008	0.006073	0.019073	
40681	    0	12.328964	12.669357	-7.254996	-0.343914	0.977378	3.444857	0.120728	0.128662	-0.073364	0.999838	-0.001719	0.004887	0.017223	
40682	    0	8.959238	12.911979	-5.962997	0.133711	0.754770	3.102816	0.087349	0.130527	-0.059875	0.999872	0.000669	0.003774	0.015513	
40683	    0	6.355286	13.704652	-5.977802	0.357830	0.516718	2.723783	0.061523	0.138000	-0.059692	0.999902	0.001789	0.002584	0.013618	
40684	    0	4.654601	15.937749	-6.658807	0.257117	0.336273	2.327401	0.044575	0.159989	-0.066459	0.999929	0.001286	0.001681	0.011637	
40685	    0	3.262070	18.259127	-8.959409	-0.613986	-0.036622	1.920351	0.030884	0.182617	-0.090149	0.999949	-0.003070	-0.000183	0.009602	
40686	    0	1.057047	20.665508	-9.726974	-1.514654	0.115397	1.487760	0.008980	0.205981	-0.098837	0.999943	-0.007573	0.000577	0.007439	
40687	    0	-5.104744	20.322280	-6.686810	-1.392200	0.861375	1.377132	-0.052734	0.202393	-0.068054	0.999943	-0.006961	0.004307	0.006886	
40688	    0	-11.951519	17.516645	-4.014542	-1.954331	1.190033	1.542713	-0.121102	0.173838	-0.041131	0.999905	-0.009771	0.005950	0.007713	
40689	    0	-16.737280	15.848724	0.471851	-2.079838	0.984413	1.478623	-0.168518	0.157288	0.003906	0.999906	-0.010399	0.004922	0.007393	
40690	    0	-16.630182	9.769691	0.007217	-1.890219	0.250630	1.008053	-0.166792	0.096853	-0.000637	0.999942	-0.009451	0.001253	0.005040	
40691	    0	-12.778746	6.787838	0.671554	-0.621606	-0.054932	0.234223	-0.127869	0.067749	0.006470	0.999994	-0.003108	-0.000275	0.001171	
40692	    0	-10.444439	9.198888	-1.020506	0.070763	-0.707246	0.128174	-0.104466	0.091926	-0.010542	0.999993	0.000354	-0.003536	0.000641	
40693	    0	-3.624631	6.372973	2.330175	0.165560	-1.551646	0.613411	-0.036621	0.063599	0.023071	0.999965	0.000828	-0.007758	0.003067	
40694	    0	2.852093	-3.285461	5.108917	1.056134	-2.437101	1.001010	0.028062	-0.032984	0.051259	0.999899	0.005280	-0.012185	0.005005	
40695	    0	5.873430	-16.111446	5.731448	1.372815	-3.776053	0.865234	0.058350	-0.161255	0.057312	0.999788	0.006864	-0.018879	0.004326	
40696	    0	14.093973	-30.332668	-13.803977	2.110047	-3.344755	0.236527	0.143615	-0.301696	-0.138842	0.999804	0.010550	-0.016723	0.001183	
40697	    0	22.070102	-35.066326	-23.170411	2.888837	1.911268	-1.046810	0.216614	-0.348389	-0.238831	0.999836	0.014443	0.009556	-0.005234	
40698	    0	11.400460	-24.620081	2.513214	2.360769	3.963482	-1.588788	0.112473	-0.247355	0.019978	0.999701	0.011803	0.019815	-0.007943	
40699	    0	3.282759	0.072147	15.735901	2.626385	2.504117	-1.081913	0.034790	-0.001526	0.156921	0.999821	0.013131	0.012520	-0.005409	
40700	    0	2.734416	10.145077	0.285034	4.267887	1.846671	-0.129139	0.027448	0.101345	0.004761	0.999729	0.021338	0.009233	-0.000646	
40701	    0	7.875785	-3.510575	18.379691	3.548233	3.541939	-0.423476	0.081909	-0.038513	0.181702	0.999683	0.017739	0.017708	-0.002117	
40702	    0	21.674508	-12.145955	16.478106	1.207169	-0.421336	0.031090	0.216417	-0.122419	0.164500	0.999979	0.006036	-0.002107	0.000155	
40703	    0	31.230734	-16.606123	-15.619663	-0.607308	-1.592084	0.444799	0.313904	-0.165833	-0.153198	0.999961	-0.003036	-0.007960	0.002224	
40704	    0	23.952376	6.284233	-11.228514	-0.022507	-0.525094	0.051117	0.239801	0.062891	-0.111663	0.999996	-0.000113	-0.002625	0.000256	
40705	    0	6.148637	38.817369	-8.335109	0.910197	-0.131799	-1.343551	0.064148	0.388123	-0.081543	0.999967	0.004551	-0.000659	-0.006718	
40706	    0	-8.970456	59.940810	-10.223154	-0.594728	-0.974300	-2.298037	-0.082307	0.600074	-0.104428	0.999917	-0.002974	-0.004871	-0.011490	
40707	    0	-11.993067	42.972922	-14.250155	-1.812058	-0.784144	-2.516282	-0.113953	0.429871	-0.146851	0.999871	-0.009060	-0.003921	-0.012581	
40708	    0	4.877566	17.921930	-13.535920	-2.040846	-0.988091	-3.913259	0.052925	0.176819	-0.136917	0.999743	-0.010203	-0.004940	-0.019565	
40709	    0	30.423387	10.090433	-10.926526	-1.491609	-1.524989	-2.356819	0.306213	0.096497	-0.107666	0.999873	-0.007458	-0.007625	-0.011784	
40710	    0	48.285272	2.358927	-14.630441	-0.794619	-1.594961	-1.482615	0.484154	0.019432	-0.142529	0.999932	-0.003973	-0.007975	-0.007413	
40711	    0	24.977658	-3.866479	-9.810048	0.271624	-1.525025	-3.649378	0.249756	-0.043091	-0.096252	0.999803	0.001358	-0.007625	-0.018246	
40712	    0	13.247400	2.459027	-8.025762	0.814332	-1.821327	-4.589369	0.133719	0.021854	-0.078951	0.999686	0.004071	-0.009106	-0.022944	
40713	    0	18.528090	15.087110	-7.988064	0.654093	-1.936527	-4.356042	0.189270	0.147034	-0.077576	0.999710	0.003270	-0.009682	-0.021778	
40714	    0	27.255971	15.986085	-8.576358	0.363947	-2.111197	-3.426785	0.276130	0.155302	-0.082576	0.999795	0.001820	-0.010555	-0.017133	
40715	    0	27.321626	-0.818459	-5.729659	-0.543822	-2.153161	-3.367080	0.273621	-0.012939	-0.054321	0.999796	-0.002719	-0.010765	-0.016834	
40716	    0	28.298350	-14.442164	-2.080187	-0.882027	-2.051896	-3.726489	0.280416	-0.149744	-0.017263	0.999763	-0.004410	-0.010259	-0.018631	
40717	    0	25.443702	-14.767074	2.274009	-0.595902	-1.695954	-3.906551	0.251282	-0.152527	0.025330	0.999768	-0.002979	-0.008479	-0.019531	
40718	    0	21.221148	-9.000470	5.619299	-0.196470	-1.481349	-3.778336	0.210037	-0.093930	0.057845	0.999793	-0.000982	-0.007406	-0.018890	
40719	    0	18.904005	-3.075486	6.274658	-0.556220	-1.390740	-3.695161	0.187988	-0.034058	0.064148	0.999801	-0.002781	-0.006953	-0.018475	
40720	    0	16.293618	-0.429416	6.206552	-1.504620	-1.249208	-3.548674	0.162439	-0.006707	0.063126	0.999794	-0.007523	-0.006246	-0.017742	
40721	    0	13.340046	-3.007611	5.266090	-2.612326	-1.152895	-3.369414	0.132568	-0.031616	0.053833	0.999756	-0.013061	-0.005764	-0.016846	
40722	    0	11.793307	-6.665463	2.615391	-3.464656	-1.115336	-3.196457	0.116700	-0.068052	0.027978	0.999706	-0.017322	-0.005576	-0.015981	
40723	    0	11.008122	-10.858740	0.893011	-3.975926	-1.120882	-3.072697	0.108337	-0.110046	0.011719	0.999668	-0.019877	-0.005604	-0.015362	
40724	    0	10.077655	-17.663116	0.534412	-4.517161	-1.057756	-2.866910	0.098188	-0.177862	0.009876	0.999628	-0.022583	-0.005288	-0.014333	
40725	    0	8.214905	-25.837986	-0.685121	-5.113923	-1.023052	-2.408168	0.079041	-0.259399	0.000183	0.999587	-0.025566	-0.005115	-0.012039	
40726	    0	4.950593	-33.326154	0.165868	-4.990410	-0.736134	-1.788925	0.046496	-0.333504	0.010154	0.999641	-0.024949	-0.003680	-0.008944	
40727	    0	1.683703	-36.521729	1.945489	-3.645355	-0.199139	-1.119300	0.014771	-0.364868	0.026123	0.999817	-0.018226	-0.000996	-0.005596	
40728	    0	-0.439589	-39.456077	1.701348	-1.273165	0.111771	-0.465397	-0.005303	-0.394430	0.019527	0.999976	-0.006366	0.000559	-0.002327	
40729	    0	0.382203	-40.182403	-0.083869	1.734376	0.524147	0.106813	0.004028	-0.401794	-0.004333	0.999958	0.008672	0.002621	0.000534	
40730	    0	3.114758	-30.904479	-1.091604	3.887818	0.947634	0.163661	0.031329	-0.308727	-0.017068	0.999799	0.019438	0.004738	0.000818	
40731	    0	3.325164	-16.494429	0.966839	3.677590	0.985205	-0.103766	0.033203	-0.165100	0.006470	0.999818	0.018387	0.004926	-0.000519	
40732	    0	3.065773	-2.889827	5.569571	1.732854	0.789274	-0.491341	0.030805	-0.029454	0.055321	0.999951	0.008664	0.003946	-0.002457	
40733	    0	4.657003	6.660663	6.320511	0.218201	0.454903	-0.301362	0.046814	0.066467	0.063171	0.999995	0.001091	0.002275	-0.001507	
40734	    0	6.530191	7.329238	4.692458	-0.025559	0.640872	0.743106	0.065179	0.073541	0.046706	0.999988	-0.000128	0.003204	0.003716	
40735	    0	7.859933	1.608448	4.219711	-0.716410	0.680742	1.554130	0.078613	0.016846	0.041870	0.999957	-0.003582	0.003404	0.007771	
40736	    0	10.989391	-1.596861	-0.273907	-1.926670	0.214392	1.816994	0.110030	-0.014996	-0.002709	0.999911	-0.009633	0.001072	0.009085	
40737	    0	20.173994	0.413877	-7.603366	-2.344618	-0.103574	2.286632	0.201721	0.005554	-0.075989	0.999866	-0.011723	-0.000518	0.011433	
40738	    0	29.923183	-1.580945	-14.087569	-1.241159	0.184829	2.741727	0.299289	-0.012582	-0.141068	0.999886	-0.006206	0.000924	0.013708	
40739	    0	29.509035	-6.693071	-12.762442	-0.210579	0.789860	2.761173	0.295471	-0.062988	-0.128723	0.999896	-0.001053	0.003949	0.013805	
40740	    0	28.811694	-6.252228	-7.687482	1.308695	1.083045	2.961875	0.288572	-0.057739	-0.078825	0.999854	0.006543	0.005415	0.014809	
40741	    0	27.747827	1.905534	-6.866868	3.126231	1.091100	3.217601	0.276733	0.024597	-0.069824	0.999733	0.015630	0.005455	0.016087	
40742	    0	26.736393	7.916009	-6.942430	3.996604	0.976498	3.761397	0.265457	0.085547	-0.069057	0.999611	0.019980	0.004882	0.018805	
40743	    0	28.632948	12.256267	-8.939414	3.564923	0.929574	4.251659	0.283203	0.130188	-0.088440	0.999604	0.017822	0.004647	0.021255	
40744	    0	30.788384	14.098426	-9.007812	2.554612	0.986402	4.451114	0.304185	0.148930	-0.089716	0.999659	0.012772	0.004931	0.022253	
40745	    0	30.763190	13.348124	-10.937046	1.339854	1.051625	4.559776	0.303894	0.141174	-0.110046	0.999703	0.006699	0.005258	0.022797	
40746	    0	28.211102	11.991473	-9.143810	0.387417	1.205743	4.456156	0.278787	0.126330	-0.092885	0.999731	0.001937	0.006028	0.022279	
40747	    0	23.727408	12.287670	-7.481247	0.103196	1.263534	4.316312	0.234070	0.127991	-0.076233	0.999746	0.000516	0.006317	0.021580	
40748	    0	19.091000	12.663100	-6.564154	0.072866	1.186651	4.083751	0.187878	0.130512	-0.066715	0.999773	0.000364	0.005933	0.020417	
40749	    0	15.810649	12.468770	-6.834864	-0.209822	0.937140	3.772211	0.155396	0.127563	-0.069214	0.999810	-0.001049	0.004685	0.018860	
40750	    0	12.884261	13.052874	-5.670957	-0.054935	0.833556	3.487774	0.126303	0.132730	-0.057276	0.999839	-0.000275	0.004168	0.017438	
40751	    0	9.996283	12.359652	-4.930020	0.360314	0.612667	3.163286	0.097839	0.125244	-0.049377	0.999868	0.001801	0.003063	0.015816	
40752	    0	7.046904	13.731672	-4.776779	0.580045	0.449006	2.804664	0.068426	0.138424	-0.047523	0.999894	0.002900	0.002245	0.014023	
40753	    0	4.594828	15.098851	-5.589234	0.530447	0.229651	2.399505	0.044067	0.151672	-0.055542	0.999924	0.002652	0.001148	0.011997	
40754	    0	2.865019	17.853140	-7.560162	-0.425536	-0.107385	1.900512	0.026994	0.178632	-0.075967	0.999952	-0.002128	-0.000537	0.009502	
40755	    0	0.700907	19.882777	-7.534334	-1.018348	0.013733	1.521323	0.005493	0.198486	-0.076355	0.999958	-0.005092	0.000069	0.007607	
40756	    0	-4.643773	20.018984	-6.145004	-1.257536	0.621043	1.425958	-0.048055	0.199460	-0.062558	0.999949	-0.006288	0.003105	0.007130	
40757	    0	-11.109823	19.570633	-5.214594	-2.255902	1.015509	1.588497	-0.112915	0.194214	-0.053772	0.999891	-0.011279	0.005077	0.007942	
40758	    0	-15.357755	19.012449	-1.494301	-3.089118	0.931409	1.597491	-0.155165	0.188636	-0.017144	0.999838	-0.015445	0.004657	0.007987	
40759	    0	-15.253497	12.619028	1.841826	-2.598473	0.318157	1.293991	-0.153320	0.125427	0.017029	0.999893	-0.012992	0.001591	0.006470	
40760	    0	-11.530895	4.568125	1.555232	-1.276028	-0.319865	0.714118	-0.115496	0.045366	0.015078	0.999971	-0.006380	-0.001599	0.003571	
40761	    0	-10.743571	4.618090	-1.076815	-0.060082	-0.834659	0.405885	-0.107483	0.045959	-0.011230	0.999989	-0.000300	-0.004173	0.002029	
40762	    0	-5.917655	3.999466	1.919912	0.324634	-1.457612	0.617606	-0.059438	0.039781	0.018831	0.999967	0.001623	-0.007288	0.003088	
40763	    0	0.904032	-2.826919	3.864614	0.807405	-2.344583	0.992614	0.008728	-0.028381	0.038635	0.999910	0.004037	-0.011723	0.004963	
40764	    0	4.979538	-13.017007	5.400314	0.965553	-3.365321	1.008090	0.049541	-0.130181	0.054210	0.999834	0.004827	-0.016826	0.005040	
40765	    0	10.549847	-24.846090	-5.937430	1.912090	-4.069678	0.624138	0.107483	-0.247559	-0.059570	0.999742	0.009560	-0.020347	0.003120	
40766	    0	19.818345	-32.577980	-24.383963	2.815915	-0.361073	-0.404944	0.197973	-0.322708	-0.248040	0.999897	0.014079	-0.001805	-0.002025	
40767	    0	12.363878	-25.187672	-5.353401	2.800412	3.215294	-1.339070	0.121033	-0.251892	-0.059021	0.999750	0.014001	0.016075	-0.006695	
40768	    0	4.475054	-3.919302	12.963584	2.773102	2.803812	-1.270385	0.046299	-0.041270	0.128431	0.999784	0.013865	0.014018	-0.006351	
40769	    0	2.922370	7.559585	4.753335	4.337745	2.210648	-0.560054	0.029968	0.074463	0.048828	0.999700	0.021687	0.011052	-0.002800	
40770	    0	5.747319	-5.427284	17.455030	4.241286	3.033795	-0.584860	0.059934	-0.058118	0.172448	0.999656	0.021204	0.015167	-0.002924	
40771	    0	19.356230	-20.265124	19.415611	2.542374	0.157170	-0.107577	0.193604	-0.205200	0.191406	0.999918	0.012712	0.000786	-0.000538	
40772	    0	31.182075	-16.220303	-13.277970	1.263833	-1.711496	-0.006294	0.312943	-0.161381	-0.131126	0.999943	0.006319	-0.008557	-0.000031	
40773	    0	23.903102	6.167945	-11.308476	1.144416	-0.456813	0.096894	0.239258	0.062439	-0.112183	0.999980	0.005722	-0.002284	0.000484	
40774	    0	9.891582	37.074067	-11.385138	1.513121	-0.252727	-0.980963	0.100877	0.371096	-0.110918	0.999958	0.007565	-0.001264	-0.004905	
40775	    0	-6.959069	63.400974	-11.623464	-0.031090	-1.127649	-2.008864	-0.062561	0.634644	-0.116699	0.999933	-0.000155	-0.005638	-0.010044	
40776	    0	-15.358620	51.514102	-14.035372	-1.751386	-0.952753	-2.012511	-0.147716	0.515388	-0.145579	0.999899	-0.008757	-0.004764	-0.010062	
40777	    0	1.670761	19.967419	-13.392774	-2.380390	-1.208603	-3.744837	0.021240	0.197693	-0.136169	0.999735	-0.011901	-0.006042	-0.018723	
40778	    0	22.629790	10.005550	-12.378032	-1.778522	-1.572134	-3.037832	0.228740	0.095498	-0.122851	0.999814	-0.008892	-0.007860	-0.015188	
40779	    0	49.121441	1.136128	-12.884716	-0.749985	-1.751554	-1.151299	0.492371	0.008057	-0.124573	0.999938	-0.003750	-0.008758	-0.005756	
40780	    0	30.274402	-4.270053	-10.439717	0.233471	-1.578030	-3.101506	0.302846	-0.047276	-0.102061	0.999847	0.001167	-0.007890	-0.015507	
40781	    0	13.519313	1.037874	-7.671874	0.970747	-1.912118	-4.410995	0.136108	0.007751	-0.075378	0.999699	0.004853	-0.009560	-0.022053	
40782	    0	16.620979	13.032958	-8.402264	0.896928	-2.042982	-4.464422	0.169911	0.126934	-0.081725	0.999688	0.004484	-0.010214	-0.022320	
40783	    0	26.077707	19.156662	-9.905418	0.677730	-2.241680	-3.471628	0.265137	0.187317	-0.095459	0.999781	0.003388	-0.011208	-0.017357	
40784	    0	26.650474	5.177958	-7.822415	-0.199522	-2.351729	-3.268272	0.268198	0.047330	-0.075126	0.999796	-0.000998	-0.011758	-0.016340	
40785	    0	30.559331	-8.863878	-4.467985	-0.972067	-2.389538	-3.700570	0.304382	-0.094482	-0.040588	0.999745	-0.004860	-0.011947	-0.018501	
40786	    0	29.415050	-13.533959	0.198778	-0.899393	-2.082432	-3.947790	0.291357	-0.141089	0.005657	0.999741	-0.004497	-0.010411	-0.019737	
40787	    0	25.728569	-9.685190	4.674840	-0.560805	-1.789044	-3.934027	0.254883	-0.101746	0.049316	0.999763	-0.002804	-0.008945	-0.019669	
40788	    0	23.789534	-5.096929	6.620844	-0.759184	-1.630720	-3.941463	0.236281	-0.055380	0.068344	0.999765	-0.003796	-0.008153	-0.019706	
40789	    0	20.885707	-2.030058	7.329955	-1.785236	-1.451994	-3.827222	0.207886	-0.023621	0.075012	0.999750	-0.008925	-0.007259	-0.019135	
40790	    0	16.908649	-5.072611	7.260780	-3.026305	-1.222921	-3.579490	0.167705	-0.052619	0.074423	0.999706	-0.015130	-0.006114	-0.017896	
40791	    0	14.229533	-10.814877	5.565725	-3.869874	-1.001852	-3.320686	0.140198	-0.109375	0.058472	0.999662	-0.019347	-0.005009	-0.016602	
40792	    0	11.007641	-15.771259	4.596956	-4.140562	-0.802513	-3.086632	0.107441	-0.158381	0.049679	0.999659	-0.020700	-0.004012	-0.015431	
40793	    0	7.609090	-20.709856	3.778997	-4.467327	-0.664596	-2.618706	0.073242	-0.207153	0.042664	0.999659	-0.022334	-0.003323	-0.013092	
40794	    0	5.614902	-27.903365	1.908304	-4.844461	-0.586768	-1.960217	0.053345	-0.278992	0.026001	0.999654	-0.024220	-0.002934	-0.009800	
40795	    0	4.001000	-36.369864	1.019975	-4.651909	-0.415843	-1.342143	0.037537	-0.363586	0.018738	0.999704	-0.023257	-0.002079	-0.006710	
40796	    0	1.526288	-40.568976	1.215729	-3.319330	-0.111967	-0.811044	0.013609	-0.405471	0.018896	0.999853	-0.016596	-0.000560	-0.004055	
40797	    0	0.223175	-41.302250	-0.096929	-0.647737	0.223732	-0.223542	0.001770	-0.413025	0.000366	0.999993	-0.003239	0.001119	-0.001118	
40798	    0	1.039282	-37.105012	-0.276278	2.274186	0.702875	0.258070	0.010852	-0.370973	-0.007019	0.999928	0.011371	0.003514	0.001290	
40799	    0	3.269269	-27.182085	0.253560	3.586789	0.991307	0.468472	0.033325	-0.271729	-0.002502	0.999824	0.017933	0.004956	0.002342	
40800	    0	4.714495	-13.370892	2.946067	2.669996	0.942834	0.187880	0.047403	-0.134040	0.027450	0.999899	0.013350	0.004714	0.000939	
40801	    0	5.286017	1.704336	4.507449	1.229297	0.736243	-0.162508	0.053040	0.016724	0.044983	0.999973	0.006146	0.003681	-0.000813	
40802	    0	7.358891	9.577231	2.543379	0.666240	0.712398	0.234414	0.073567	0.095774	0.025491	0.999987	0.003331	0.003562	0.001172	
40803	    0	8.923951	6.557800	1.345577	-0.264743	0.963792	1.136028	0.088928	0.066101	0.012939	0.999970	-0.001324	0.004819	0.005680	
40804	    0	11.315740	-0.390416	-0.319044	-1.798492	0.802636	1.789146	0.113173	-0.002923	-0.003615	0.999911	-0.008992	0.004013	0.008945	
40805	    0	17.939701	-4.339773	-4.511179	-2.522963	0.386065	2.060792	0.179749	-0.042114	-0.044922	0.999865	-0.012614	0.001930	0.010303	
40806	    0	26.611861	-4.243917	-8.310105	-1.422358	0.416388	2.449692	0.266443	-0.039769	-0.083366	0.999897	-0.007112	0.002082	0.012248	
40807	    0	27.204695	-5.730317	-7.393193	-0.130277	0.819427	2.852736	0.272522	-0.053467	-0.075012	0.999889	-0.000651	0.004097	0.014263	
40808	    0	26.241426	-4.273267	-5.471749	0.901076	0.929878	3.173602	0.262787	-0.038314	-0.056118	0.999853	0.004505	0.004649	0.015867	
40809	    0	26.239424	1.331231	-4.679891	2.170143	0.894228	3.374719	0.261902	0.018250	-0.047791	0.999788	0.010850	0.004471	0.016872	
40810	    0	25.614981	6.856245	-4.965632	2.996751	1.015195	3.815469	0.254518	0.074175	-0.049868	0.999692	0.014982	0.005075	0.019075	
40811	    0	25.408886	10.212664	-7.813873	2.911707	0.975338	4.216481	0.251465	0.108582	-0.077820	0.999660	0.014557	0.004876	0.021080	
40812	    0	28.059139	11.533623	-7.481575	2.276487	1.205771	4.522643	0.277423	0.122488	-0.075128	0.999660	0.011381	0.006028	0.022611	
40813	    0	30.005645	10.130914	-8.605940	1.482732	1.224641	4.529266	0.297119	0.108704	-0.087097	0.999697	0.007413	0.006123	0.022644	
40814	    0	30.064760	9.572183	-8.381312	0.867161	1.328401	4.447015	0.297852	0.102734	-0.085362	0.999721	0.004335	0.006641	0.022233	
40815	    0	27.493737	11.173571	-7.799120	0.563098	1.320953	4.323952	0.271912	0.117859	-0.079468	0.999740	0.002815	0.006604	0.021618	
40816	    0	22.896351	11.516824	-7.590699	0.288032	1.206874	4.148998	0.226045	0.119988	-0.077106	0.999765	0.001440	0.006034	0.020743	
40817	    0	18.501095	11.205510	-7.276872	0.081068	1.100234	3.903466	0.182373	0.115662	-0.073730	0.999794	0.000405	0.005501	0.019516	
40818	    0	14.381441	11.562158	-7.345949	0.015832	0.963076	3.599184	0.141347	0.118186	-0.074135	0.999826	0.000079	0.004815	0.017995	
40819	    0	10.322133	13.149549	-7.209072	0.084881	0.815621	3.253326	0.100769	0.133179	-0.072449	0.999859	0.000424	0.004078	0.016266	
40820	    0	7.399001	13.416927	-6.635539	0.486965	0.649286	2.900233	0.071817	0.135383	-0.066262	0.999887	0.002435	0.003246	0.014501	
40821	    0	5.188480	14.474806	-8.106050	0.463117	0.341997	2.504799	0.049927	0.145569	-0.080811	0.999917	0.002316	0.001710	0.012524	
40822	    0	2.967288	17.350069	-9.344245	0.112536	0.201801	2.167554	0.027696	0.173861	-0.093373	0.999940	0.000563	0.001009	0.010838	
40823	    0	0.715263	19.691225	-10.416431	-0.826086	0.130465	1.804382	0.005310	0.196533	-0.104980	0.999950	-0.004130	0.000652	0.009022	
40824	    0	-2.662208	19.606601	-7.446784	-1.093691	0.591860	1.494050	-0.028306	0.195448	-0.075456	0.999952	-0.005468	0.002959	0.007470	
40825	    0	-7.681675	15.190996	-5.124253	-0.962847	1.019496	1.543454	-0.078247	0.151062	-0.051575	0.999946	-0.004814	0.005097	0.007717	
40826	    0	-11.717206	11.940628	-3.273657	-1.742408	1.018741	1.475563	-0.118216	0.118249	-0.033170	0.999922	-0.008712	0.005094	0.007378	
40827	    0	-14.556287	12.071336	-1.677490	-2.272099	0.683804	1.131472	-0.146301	0.119690	-0.017639	0.999913	-0.011360	0.003419	0.005657	
40828	    0	-13.454655	8.228906	1.854446	-1.688981	0.521858	0.482375	-0.134697	0.082119	0.018202	0.999957	-0.008445	0.002609	0.002412	
40829	    0	-12.043633	11.685181	2.263877	0.416566	-0.090599	0.376893	-0.120667	0.116577	0.022827	0.999995	0.002083	-0.000453	0.001884	
40830	    0	-4.102144	10.644437	3.916742	1.161209	-1.009382	0.864422	-0.041679	0.106036	0.039575	0.999961	0.005806	-0.005047	0.004322	
40831	    0	2.203086	1.625867	8.050518	1.923446	-1.998790	1.334434	0.021118	0.015625	0.080872	0.999881	0.009617	-0.009994	0.006672	
40832	    0	3.438910	-12.122153	6.161614	1.483058	-3.311368	1.447960	0.034251	-0.121428	0.061284	0.999808	0.007415	-0.016556	0.007239	
40833	    0	7.964739	-26.820595	-13.587010	1.603789	-3.159319	0.947624	0.083069	-0.266724	-0.136719	0.999831	0.008018	-0.015796	0.004738	
40834	    0	18.197568	-32.428154	-23.321468	1.219771	1.476123	-0.758375	0.179010	-0.323528	-0.236518	0.999947	0.006099	0.007380	-0.003792	
40835	    0	12.303327	-22.169582	1.791269	1.602307	3.830467	-1.675555	0.121460	-0.222839	0.013794	0.999749	0.008011	0.019151	-0.008377	
40836	    0	4.439239	-2.615840	10.367027	2.967474	2.585786	-1.284691	0.045548	-0.027977	0.102680	0.999785	0.014836	0.012928	-0.006423	
40837	    0	0.910137	11.166953	9.722577	3.662429	2.450203	-1.228440	0.010986	0.109802	0.099121	0.999738	0.018311	0.012250	-0.006142	
40838	    0	-2.832122	11.429038	20.833228	0.715267	1.241703	-1.269551	-0.026302	0.113715	0.208907	0.999953	0.003576	0.006208	-0.006348	
40839	    0	16.122320	-9.416873	10.981659	1.107222	-0.328829	0.061035	0.161072	-0.094727	0.109558	0.999983	0.005536	-0.001644	0.000305	
40840	    0	41.472020	-29.349733	-15.210210	0.154690	-2.036342	1.566549	0.418523	-0.290113	-0.148079	0.999917	0.000773	-0.010181	0.007833	
40841	    0	30.788022	-16.163543	-19.059129	0.507356	-0.409509	0.250245	0.308472	-0.160767	-0.190369	0.999993	0.002537	-0.002048	0.001251	
40842	    0	13.164695	24.275858	1.518939	0.736061	0.229459	-2.060550	0.134156	0.241327	0.015926	0.999939	0.003680	0.001147	-0.010303	
40843	    0	1.658887	55.330651	-8.546983	0.232898	-0.956008	-3.212126	0.025879	0.553040	-0.084717	0.999859	0.001164	-0.004780	-0.016060	
40844	    0	-10.413336	58.206400	-14.455148	-1.062615	-1.063188	-2.197140	-0.096955	0.582375	-0.148173	0.999911	-0.005313	-0.005316	-0.010985	
40845	    0	-0.661648	22.352175	-14.050840	-1.731193	-0.949714	-2.760447	-0.002869	0.222351	-0.142456	0.999856	-0.008656	-0.004748	-0.013802	
40846	    0	15.624516	2.116415	-10.026661	-1.602628	-1.172310	-2.666215	0.157086	0.018274	-0.099502	0.999862	-0.008013	-0.005861	-0.013330	
40847	    0	41.935834	-0.016788	-12.938094	-0.520912	-1.514478	-2.066099	0.420288	-0.004838	-0.126192	0.999914	-0.002604	-0.007572	-0.010330	
40848	    0	33.624318	5.839843	-15.386549	0.844623	-1.477708	-3.306961	0.338278	0.053458	-0.151138	0.999826	0.004223	-0.007388	-0.016534	
40849	    0	14.217772	5.821927	-11.758091	1.152911	-1.876819	-4.235479	0.144470	0.055847	-0.115906	0.999715	0.005764	-0.009383	-0.021175	
40850	    0	15.095464	10.879081	-9.511737	1.002414	-2.052326	-4.394408	0.154264	0.105895	-0.093010	0.999693	0.005012	-0.010261	-0.021970	
40851	    0	26.453651	14.136780	-8.381734	0.824043	-2.329258	-3.734901	0.268066	0.136719	-0.080139	0.999749	0.004120	-0.011645	-0.018673	
40852	    0	29.231062	2.348897	-5.726099	0.204864	-2.405916	-3.438440	0.293318	0.018508	-0.053716	0.999779	0.001024	-0.012029	-0.017191	
40853	    0	28.144070	-11.619450	-0.823019	-0.456848	-2.282903	-3.795174	0.279236	-0.121521	-0.004761	0.999752	-0.002284	-0.011414	-0.018974	
40854	    0	25.761625	-12.808789	3.561896	-0.572062	-1.902360	-4.053651	0.254595	-0.133162	0.038426	0.999744	-0.002860	-0.009511	-0.020267	
40855	    0	23.136289	-8.511956	6.867657	-0.302719	-1.679356	-3.884416	0.229065	-0.089478	0.070740	0.999775	-0.001513	-0.008396	-0.019421	
40856	    0	20.757590	-4.228816	7.825053	-0.628515	-1.574054	-3.736377	0.206116	-0.045898	0.080017	0.999789	-0.003142	-0.007870	-0.018681	
40857	    0	17.658839	-3.414046	7.889319	-1.627853	-1.429665	-3.646170	0.175364	-0.036695	0.080441	0.999774	-0.008139	-0.007148	-0.018229	
40858	    0	15.424370	-5.944514	7.001906	-2.814924	-1.306078	-3.419989	0.152743	-0.061063	0.071872	0.999733	-0.014073	-0.006530	-0.017098	
40859	    0	13.866623	-11.803865	6.429049	-3.595906	-1.130027	-3.164992	0.136414	-0.119019	0.067200	0.999697	-0.017978	-0.005650	-0.015823	
40860	    0	10.618957	-18.420540	6.523771	-4.347743	-0.973054	-2.918970	0.103168	-0.184242	0.069750	0.999645	-0.021736	-0.004865	-0.014593	
40861	    0	6.470164	-24.862520	4.176291	-5.248249	-0.972696	-2.427258	0.061462	-0.248169	0.048584	0.999570	-0.026237	-0.004863	-0.012135	
40862	    0	3.065318	-31.041935	1.113618	-5.717376	-0.831539	-1.665557	0.027998	-0.310170	0.020126	0.999548	-0.028583	-0.004157	-0.008327	
40863	    0	0.963834	-36.696356	1.399543	-4.839052	-0.477458	-0.803457	0.008118	-0.366516	0.022888	0.999696	-0.024193	-0.002387	-0.004017	
40864	    0	-0.728799	-41.926718	1.495589	-2.564501	-0.091555	-0.058748	-0.007420	-0.419027	0.020327	0.999917	-0.012822	-0.000458	-0.000294	
40865	    0	-1.352584	-42.014044	0.025498	0.627329	0.391389	0.424959	-0.012634	-0.420166	-0.001038	0.999990	0.003137	0.001957	0.002125	
40866	    0	1.095736	-33.838767	-1.355223	2.732754	0.751331	0.584241	0.011883	-0.338126	-0.018217	0.999895	0.013663	0.003757	0.002921	
40867	    0	4.280843	-19.385815	-1.183344	2.958035	0.905836	0.230417	0.042969	-0.193604	-0.014893	0.999879	0.014790	0.004529	0.001152	
40868	    0	5.164211	-2.789610	3.070801	1.797515	0.806631	-0.259404	0.051728	-0.028236	0.030247	0.999950	0.008987	0.004033	-0.001297	
40869	    0	5.567272	8.460356	3.288473	0.846867	0.578501	-0.186921	0.055847	0.084412	0.033081	0.999986	0.004234	0.002892	-0.000935	
40870	    0	6.369442	9.317462	2.607627	0.598530	0.901800	0.633435	0.063517	0.093298	0.026069	0.999980	0.002993	0.004509	0.003167	
40871	    0	6.511066	2.470027	5.540049	-0.421911	0.901996	1.387041	0.065186	0.025269	0.055054	0.999963	-0.002110	0.004510	0.006935	
40872	    0	7.395080	-1.717796	4.044452	-1.795242	0.519384	1.613658	0.074189	-0.016217	0.040401	0.999924	-0.008976	0.002597	0.008068	
40873	    0	11.185396	-0.392946	-1.010141	-2.474309	0.128370	1.792978	0.111877	-0.003052	-0.010132	0.999883	-0.012371	0.000642	0.008965	
40874	    0	20.894497	2.712307	-9.221754	-1.825018	-0.082019	2.330674	0.208654	0.028713	-0.092389	0.999890	-0.009125	-0.000410	0.011653	
40875	    0	30.268339	0.785865	-13.626011	-0.425734	0.248154	2.784822	0.302368	0.011780	-0.136658	0.999900	-0.002129	0.001241	0.013924	
40876	    0	29.370141	-5.590550	-10.294348	0.405898	0.787191	2.798944	0.294035	-0.051581	-0.104208	0.999891	0.002029	0.003936	0.013994	
40877	    0	28.937676	-5.331623	-8.195107	1.919665	0.947052	3.011493	0.289734	-0.048157	-0.083801	0.999829	0.009598	0.004735	0.015057	
40878	    0	27.641344	1.236682	-5.918610	3.428243	1.078527	3.466776	0.275808	0.018180	-0.060396	0.999688	0.017139	0.005392	0.017332	
40879	    0	27.247928	6.000357	-6.611678	3.895536	1.005693	4.128074	0.270813	0.066895	-0.066223	0.999584	0.019475	0.005028	0.020638	
40880	    0	30.791417	10.128218	-8.492225	3.510759	0.895240	4.398750	0.305187	0.109500	-0.084418	0.999594	0.017551	0.004476	0.021991	
40881	    0	32.737234	12.962116	-10.141596	2.545643	1.074340	4.398841	0.323853	0.138062	-0.101440	0.999662	0.012727	0.005371	0.021992	
40882	    0	29.868048	14.305057	-10.456218	1.115519	1.196016	4.377573	0.294817	0.150119	-0.105509	0.999726	0.005577	0.005980	0.021886	
40883	    0	24.993950	14.793587	-8.894815	0.025370	1.233015	4.343783	0.246094	0.153320	-0.090454	0.999744	0.000127	0.006165	0.021717	
40884	    0	19.922754	14.036785	-7.371782	-0.435101	1.109784	4.201842	0.195808	0.144343	-0.075122	0.999761	-0.002175	0.005548	0.021008	
40885	    0	15.692726	12.447752	-7.038780	-0.582163	0.924175	3.932463	0.154114	0.127319	-0.071472	0.999791	-0.002911	0.004621	0.019661	
40886	    0	12.575086	11.863743	-7.466321	-0.812195	0.667228	3.520591	0.123389	0.120518	-0.075564	0.999831	-0.004061	0.003336	0.017602	
40887	    0	9.607440	12.067509	-5.781880	-0.338760	0.557161	3.154891	0.093994	0.122070	-0.058289	0.999869	-0.001694	0.002786	0.015774	
40888	    0	7.201100	12.005624	-5.066841	0.211341	0.333987	2.698791	0.070297	0.121066	-0.050659	0.999907	0.001057	0.001670	0.013494	
40889	    0	4.648163	14.508677	-5.882186	0.523388	0.135234	2.256826	0.044800	0.145752	-0.058472	0.999932	0.002617	0.000676	0.011284	
40890	    0	2.607243	17.184142	-8.044503	-0.053406	-0.226978	1.783014	0.024631	0.172044	-0.080462	0.999959	-0.000267	-0.001135	0.008915	
40891	    0	1.078784	18.873894	-8.553406	-0.759704	-0.152589	1.283276	0.009644	0.188477	-0.086243	0.999971	-0.003798	-0.000763	0.006416	
40892	    0	-3.656581	19.028731	-7.926504	-1.058590	0.541121	1.133550	-0.037858	0.189652	-0.080169	0.999966	-0.005293	0.002706	0.005668	
40893	    0	-10.433981	20.954098	-7.424389	-2.493190	1.039163	1.350454	-0.106140	0.207886	-0.076294	0.999886	-0.012465	0.005196	0.006752	
40894	    0	-14.460102	21.780771	-1.025115	-3.092164	1.075228	1.328156	-0.146107	0.216656	-0.012824	0.999844	-0.015460	0.005376	0.006640	
40895	    0	-14.023300	11.521624	2.479782	-2.161269	0.178532	1.038386	-0.140808	0.114746	0.023682	0.999928	-0.010806	0.000893	0.005192	
40896	    0	-11.449541	4.849759	1.778339	-0.421144	-0.649836	0.387765	-0.114646	0.048312	0.017309	0.999990	-0.002106	-0.003249	0.001939	
40897	    0	-10.175263	4.951985	0.394071	0.794227	-1.173220	0.131227	-0.101807	0.049438	0.003540	0.999974	0.003971	-0.005866	0.000656	
40898	    0	-4.058893	2.797851	5.242169	1.576653	-1.802488	0.289352	-0.041101	0.027507	0.052271	0.999927	0.007883	-0.009012	0.001447	
40899	    0	2.719777	-7.330141	5.939555	1.485502	-2.647314	0.538657	0.026611	-0.073669	0.059204	0.999881	0.007427	-0.013236	0.002693	
40900	    0	7.199006	-17.695281	5.567480	1.377390	-3.795501	0.291463	0.071190	-0.177233	0.055811	0.999795	0.006886	-0.018976	0.001457	
40901	    0	14.765509	-27.901641	-9.583219	2.125694	-3.422589	-0.356317	0.148804	-0.278259	-0.096252	0.999795	0.010628	-0.017112	-0.001781	
40902	    0	19.049792	-32.208879	-19.780722	3.326985	0.958306	-1.226494	0.187564	-0.319885	-0.204044	0.999831	0.016634	0.004791	-0.006132	
40903	    0	9.646816	-22.286853	1.182482	3.006999	3.030080	-1.457338	0.094971	-0.223694	0.007019	0.999745	0.015034	0.015149	-0.007286	
40904	    0	3.536210	1.814475	10.892034	2.894575	2.242032	-0.977765	0.036665	0.016393	0.108760	0.999820	0.014472	0.011209	-0.004889	
40905	    0	0.807605	15.354526	0.623178	3.818024	1.623843	-0.206771	0.008301	0.153381	0.009094	0.999784	0.019089	0.008119	-0.001034	
40906	    0	0.495030	10.770047	10.605053	2.372505	2.964582	-0.499184	0.006801	0.106418	0.107226	0.999816	0.011862	0.014822	-0.002496	
40907	    0	2.959293	-2.060055	23.698079	-0.668911	0.727848	-0.593570	0.030396	-0.019897	0.236938	0.999983	-0.003345	0.003639	-0.002968	
40908	    0	30.875331	-28.212050	-0.520167	0.217060	-1.782065	0.850691	0.309981	-0.280800	-0.002748	0.999950	0.001085	-0.008910	0.004253	
40909	    0	34.151852	-23.088830	-18.234722	0.146486	-1.328103	1.056684	0.343933	-0.228943	-0.180237	0.999963	0.000732	-0.006640	0.005283	
40910	    0	17.558461	7.798746	-6.801913	1.813152	0.092699	-0.473792	0.175738	0.078184	-0.067392	0.999955	0.009066	0.000463	-0.002369	
40911	    0	6.178929	46.432192	-6.228522	1.389370	-0.308050	-2.818415	0.068420	0.463806	-0.058960	0.999875	0.006947	-0.001540	-0.014091	
40912	    0	-7.087714	74.729698	-14.436720	-0.782425	-1.504004	-2.563387	-0.060194	0.747540	-0.147771	0.999882	-0.003912	-0.007520	-0.012816	
40913	    0	-5.903310	38.834999	-14.912516	-2.011978	-1.067981	-2.735282	-0.052917	0.387573	-0.153320	0.999841	-0.010059	-0.005340	-0.013676	
40914	    0	11.571113	10.475965	-11.719192	-2.716079	-1.391897	-2.965006	0.118050	0.101424	-0.117768	0.999773	-0.013579	-0.006959	-0.014824	
40915	    0	37.179428	-3.499729	-10.243464	-1.830355	-1.695119	-1.429798	0.372375	-0.038574	-0.098938	0.999896	-0.009151	-0.008475	-0.007149	
40916	    0	39.066445	-2.373250	-14.522184	-0.135999	-1.500761	-2.686607	0.391373	-0.029084	-0.142268	0.999881	-0.000680	-0.007504	-0.013433	
40917	    0	16.374170	1.305632	-10.915863	1.026245	-1.744807	-4.155338	0.164917	0.010193	-0.107666	0.999732	0.005131	-0.008723	-0.020775	
40918	    0	12.808653	6.946031	-9.421978	1.181342	-1.908880	-4.430082	0.130480	0.067138	-0.092581	0.999691	0.005906	-0.009543	-0.022148	
40919	    0	25.535532	15.791742	-9.301925	1.030052	-2.127058	-3.737182	0.259216	0.153564	-0.089478	0.999755	0.005150	-0.010634	-0.018684	
40920	    0	29.475085	7.803524	-8.258655	0.412016	-2.342197	-3.332180	0.296937	0.073265	-0.078963	0.999790	0.002060	-0.011710	-0.016660	
40921	    0	28.139709	-7.142699	-5.133767	-0.515791	-2.431504	-3.766952	0.280579	-0.076843	-0.047729	0.999745	-0.002579	-0.012156	-0.018833	
40922	    0	28.237614	-13.597875	-0.270804	-0.553942	-2.102845	-4.031725	0.279564	-0.141635	0.000628	0.999738	-0.002769	-0.010513	-0.020157	
40923	    0	25.245063	-10.819211	4.717159	-0.245686	-1.747841	-3.961492	0.249817	-0.113098	0.049500	0.999764	-0.001228	-0.008739	-0.019806	
40924	    0	23.225849	-5.635275	7.423723	-0.291655	-1.541634	-3.925425	0.230513	-0.060779	0.076105	0.999776	-0.001458	-0.007708	-0.019626	
40925	    0	21.158732	-1.139495	7.905708	-1.148121	-1.413071	-3.866108	0.210754	-0.015015	0.080627	0.999771	-0.005740	-0.007065	-0.019329	
40926	    0	17.096739	-2.273854	7.520541	-2.448672	-1.192385	-3.604242	0.170078	-0.024878	0.076517	0.999744	-0.012242	-0.005961	-0.018020	
40927	    0	13.908840	-7.722958	6.024416	-3.494612	-0.939082	-3.298517	0.137512	-0.078430	0.062256	0.999700	-0.017471	-0.004695	-0.016491	
40928	    0	11.532905	-12.885781	4.284919	-4.031241	-0.785151	-3.068879	0.113167	-0.129701	0.045905	0.999671	-0.020154	-0.003925	-0.015343	
40929	    0	8.852501	-18.712588	3.662324	-4.274449	-0.754438	-2.668288	0.085876	-0.187439	0.040955	0.999675	-0.021370	-0.003772	-0.013340	
40930	    0	7.272365	-26.185317	2.574799	-4.760719	-0.744524	-2.117020	0.069839	-0.261887	0.032246	0.999653	-0.023801	-0.003722	-0.010584	
40931	    0	5.773238	-33.897596	1.600372	-4.901476	-0.589818	-1.506973	0.055115	-0.338867	0.024475	0.999666	-0.024505	-0.002949	-0.007534	
40932	    0	3.426816	-38.238409	1.908362	-3.944859	-0.223938	-0.936954	0.032451	-0.382063	0.026659	0.999793	-0.019723	-0.001120	-0.004684	
40933	    0	1.597834	-37.911415	1.081279	-1.805713	0.180819	-0.418097	0.015198	-0.379028	0.014221	0.999956	-0.009028	0.000904	-0.002090	
40934	    0	1.494807	-36.801060	0.411674	1.098068	0.658231	0.099183	0.015140	-0.368018	0.002047	0.999979	0.005490	0.003291	0.000496	
40935	    0	3.010745	-31.361140	0.691439	3.016986	1.107837	0.443287	0.030823	-0.313599	0.002014	0.999868	0.015084	0.005539	0.002216	
40936	    0	4.214346	-19.392564	1.586871	2.842444	1.170205	0.334562	0.042549	-0.194052	0.012863	0.999880	0.014212	0.005851	0.001673	
40937	    0	4.701507	-5.481170	6.254568	1.300254	1.003277	-0.089265	0.047302	-0.055237	0.061951	0.999966	0.006501	0.005016	-0.000446	
40938	    0	6.690121	6.660342	6.071903	0.384523	0.709917	-0.075340	0.067142	0.066462	0.060609	0.999991	0.001923	0.003550	-0.000377	
40939	    0	8.278816	7.582390	3.882406	-0.016594	0.884252	0.833898	0.082642	0.076172	0.038452	0.999981	-0.000083	0.004421	0.004169	
40940	    0	8.558579	-0.070217	4.854940	-1.338798	0.994132	1.611555	0.085826	0.000312	0.048123	0.999932	-0.006694	0.004971	0.008058	
40941	    0	10.607971	-4.477388	1.289994	-2.694822	0.467131	1.799092	0.106506	-0.043640	0.013245	0.999866	-0.013474	0.002336	0.008995	
40942	    0	18.335007	-1.518536	-6.496261	-2.483099	0.092701	2.174095	0.183476	-0.013997	-0.064869	0.999864	-0.012415	0.000463	0.010870	
40943	    0	28.941430	-1.959412	-12.998872	-0.711657	0.348676	2.810006	0.289429	-0.015991	-0.130432	0.999893	-0.003558	0.001743	0.014050	
40944	    0	31.291427	-6.353321	-12.348015	0.751718	0.826298	2.972537	0.313293	-0.058411	-0.125000	0.999873	0.003758	0.004131	0.014862	
40945	    0	31.811277	-6.828093	-10.980543	2.177384	1.113585	3.178810	0.318511	-0.062007	-0.112276	0.999798	0.010886	0.005568	0.015893	
40946	    0	29.688449	-0.069306	-8.973170	3.586978	1.394427	3.458409	0.296184	0.006066	-0.091730	0.999665	0.017933	0.006971	0.017290	
40947	    0	26.714581	6.381627	-8.434562	4.328054	1.350037	4.015201	0.265198	0.070984	-0.084656	0.999541	0.021637	0.006749	0.020073	
40948	    0	27.468832	10.355057	-10.021554	3.841610	1.320661	4.518441	0.271566	0.111631	-0.099923	0.999538	0.019205	0.006602	0.022589	
40949	    0	29.499627	13.271688	-10.813447	3.069714	1.298124	4.566801	0.291138	0.141052	-0.107910	0.999600	0.015347	0.006490	0.022831	
40950	    0	29.919321	12.958925	-11.985998	1.977373	1.339868	4.522435	0.295338	0.137486	-0.120514	0.999673	0.009886	0.006699	0.022610	
40951	    0	27.777048	13.243049	-10.581054	0.924769	1.452963	4.397992	0.273987	0.138977	-0.107178	0.999721	0.004623	0.007264	0.021988	
40952	    0	23.099976	14.155863	-9.287425	0.434722	1.519144	4.279508	0.227185	0.146651	-0.094295	0.999740	0.002173	0.007595	0.021396	
40953	    0	17.984522	13.889733	-8.664502	0.074774	1.394191	4.110278	0.176331	0.142578	-0.087830	0.999764	0.000374	0.006970	0.020550	
40954	    0	14.045804	13.411620	-8.394860	-0.384165	1.096797	3.793584	0.137419	0.136580	-0.084969	0.999803	-0.001921	0.005484	0.018967	
40955	    0	10.857555	12.313592	-6.499130	0.069431	0.900507	3.443328	0.106140	0.125000	-0.065430	0.999841	0.000347	0.004502	0.017216	
40956	    0	8.375002	12.755181	-6.928677	0.258265	0.645282	3.015448	0.081590	0.128882	-0.069386	0.999880	0.001291	0.003226	0.015077	
40957	    0	6.248167	14.625966	-7.387146	0.335894	0.545517	2.526927	0.060425	0.147156	-0.073792	0.999914	0.001679	0.002728	0.012634	
40958	    0	4.538895	17.245167	-8.975533	-0.363166	0.328451	2.008283	0.043508	0.172731	-0.090141	0.999946	-0.001816	0.001642	0.010041	
40959	    0	3.369678	19.800674	-9.173080	-1.122875	0.331884	1.639585	0.031921	0.197754	-0.092896	0.999949	-0.005614	0.001659	0.008198	
40960	    0	-0.069656	20.393096	-6.340617	-0.906387	0.820364	1.566531	-0.002555	0.203626	-0.064322	0.999950	-0.004532	0.004102	0.007833	
40961	    0	-6.096508	19.839545	-4.598591	-1.105334	1.245908	1.628913	-0.062866	0.197632	-0.046692	0.999931	-0.005527	0.006229	0.008144	
40962	    0	-11.599775	19.415976	-0.449350	-1.938311	1.232188	1.606231	-0.117584	0.193169	-0.005648	0.999902	-0.009691	0.006161	0.008031	
40963	    0	-14.888543	16.370196	2.664581	-2.042250	0.550856	1.258119	-0.149841	0.163025	0.025391	0.999924	-0.010211	0.002754	0.006290	
40964	    0	-12.932344	8.877182	2.911691	-1.430907	-0.088693	0.596434	-0.129601	0.088591	0.028425	0.999969	-0.007154	-0.000443	0.002982	
40965	    0	-11.251683	6.922100	0.353164	-0.431634	-0.587465	0.241852	-0.112610	0.069092	0.003052	0.999992	-0.002158	-0.002937	0.001209	
40966	    0	-7.039276	6.581499	-0.036744	-0.330355	-1.000982	0.419047	-0.070527	0.065666	-0.000829	0.999984	-0.001652	-0.005005	0.002095	
40967	    0	-0.466352	1.139286	3.443898	0.473030	-1.714925	0.814832	-0.005005	0.011292	0.034424	0.999951	0.002365	-0.008574	0.004074	
40968	    0	2.148313	-7.820050	3.012326	0.441761	-3.019654	1.024290	0.021427	-0.078157	0.030274	0.999870	0.002209	-0.015098	0.005121	
40969	    0	4.730352	-18.099143	-4.256174	0.467721	-4.345111	0.943835	0.049072	-0.180664	-0.041931	0.999749	0.002338	-0.021724	0.004719	
40970	    0	15.699295	-29.172114	-26.663891	1.127078	-2.031182	0.296218	0.160131	-0.289983	-0.266661	0.999931	0.005635	-0.010156	0.001481	
40971	    0	17.499636	-29.412781	-16.406177	1.662712	2.757389	-0.762974	0.171570	-0.293396	-0.168884	0.999863	0.008313	0.013786	-0.003815	
40972	    0	7.215585	-14.322938	9.757489	1.473910	3.584917	-1.207053	0.073008	-0.144376	0.095210	0.999793	0.007369	0.017923	-0.006035	
40973	    0	2.446359	5.231002	9.875069	3.484600	2.176253	-0.838532	0.025757	0.050476	0.099365	0.999780	0.017422	0.010880	-0.004192	
40974	    0	0.928685	10.047974	5.275559	4.249067	2.550585	-0.850958	0.010401	0.099288	0.054746	0.999683	0.021243	0.012752	-0.004254	
40975	    0	-2.742447	8.021071	21.936661	0.798049	1.254486	-1.491574	-0.025452	0.079529	0.219849	0.999944	0.003990	0.006272	-0.007458	
40976	    0	16.754413	-13.816027	12.588595	1.030927	-0.284959	-0.277902	0.167172	-0.139040	0.125409	0.999984	0.005155	-0.001425	-0.001390	
40977	    0	40.543444	-27.276715	-11.661660	0.801874	-2.290224	1.213874	0.408386	-0.269836	-0.113037	0.999907	0.004009	-0.011451	0.006069	
40978	    0	24.389754	-12.615199	-23.128791	1.636532	-0.830092	0.713932	0.245301	-0.123385	-0.231289	0.999951	0.008183	-0.004150	0.003570	
40979	    0	10.267579	19.789404	-2.607575	1.496922	0.232893	-1.808208	0.104431	0.197144	-0.024719	0.999930	0.007484	0.001164	-0.009041	
40980	    0	0.566648	56.535260	-7.129997	0.155838	-1.038790	-3.155091	0.014953	0.565221	-0.070798	0.999862	0.000779	-0.005194	-0.015775	
40981	    0	-12.317290	62.719498	-14.908321	-1.261937	-1.293027	-1.828053	-0.116455	0.627319	-0.153809	0.999917	-0.006310	-0.006465	-0.009140	
40982	    0	0.767020	21.652147	-12.285576	-2.427060	-1.127694	-2.770977	0.011357	0.214869	-0.125413	0.999814	-0.012135	-0.005638	-0.013854	
40983	    0	18.272507	0.131323	-10.311545	-2.211120	-1.483808	-2.465193	0.183472	-0.002075	-0.101746	0.999835	-0.011055	-0.007419	-0.012325	
40984	    0	43.568220	-4.911967	-12.603266	-0.805684	-1.613848	-1.677174	0.436244	-0.053274	-0.122305	0.999924	-0.004028	-0.008069	-0.008386	
40985	    0	29.667304	3.308923	-13.392334	0.571666	-1.467982	-3.417407	0.298157	0.028381	-0.131653	0.999823	0.002858	-0.007339	-0.017086	
40986	    0	11.465920	8.793114	-10.536516	1.175991	-1.808527	-4.227844	0.117435	0.086082	-0.103802	0.999718	0.005879	-0.009042	-0.021137	
40987	    0	14.795421	13.991846	-9.562365	1.091295	-1.974669	-4.124067	0.151733	0.137329	-0.093384	0.999723	0.005456	-0.009872	-0.020618	
40988	    0	26.965759	16.859423	-10.075390	0.755938	-2.336675	-3.418030	0.273638	0.164311	-0.096946	0.999778	0.003779	-0.011683	-0.017089	
40989	    0	27.589788	3.179968	-7.805030	-0.098236	-2.513314	-3.456379	0.277344	0.026978	-0.074585	0.999771	-0.000491	-0.012566	-0.017281	
40990	    0	26.613829	-9.069246	-4.149228	-0.887762	-2.430568	-3.934461	0.264758	-0.096084	-0.037850	0.999722	-0.004438	-0.012152	-0.019670	
40991	    0	25.992580	-12.549616	0.678606	-0.700439	-2.053056	-3.989753	0.257263	-0.130615	0.009888	0.999742	-0.003502	-0.010264	-0.019947	
40992	    0	24.279027	-9.067326	5.059142	-0.483549	-1.713309	-3.859238	0.240536	-0.095203	0.052885	0.999774	-0.002418	-0.008566	-0.019295	
40993	    0	22.758108	-5.553562	7.407695	-0.723129	-1.502338	-3.857706	0.225891	-0.059631	0.075989	0.999779	-0.003615	-0.007511	-0.019287	
40994	    0	20.164518	-2.498167	8.548320	-1.593524	-1.342497	-3.799736	0.200550	-0.028110	0.087048	0.999764	-0.007967	-0.006712	-0.018997	
40995	    0	17.199193	-4.276942	7.910667	-2.822936	-1.122384	-3.480076	0.170776	-0.044617	0.080688	0.999733	-0.014113	-0.005611	-0.017399	
40996	    0	15.785452	-10.122114	6.542183	-3.732489	-0.896164	-3.118261	0.155963	-0.102409	0.068027	0.999694	-0.018661	-0.004480	-0.015590	
40997	    0	12.680151	-15.824025	5.686257	-4.210942	-0.745475	-2.915517	0.124268	-0.158813	0.060669	0.999664	-0.021052	-0.003727	-0.014576	
40998	    0	8.439100	-21.268870	4.407584	-4.616330	-0.758070	-2.555387	0.081493	-0.212645	0.049297	0.999644	-0.023079	-0.003790	-0.012775	
40999	    0	5.102879	-28.650369	0.880471	-5.138292	-0.770477	-1.924379	0.048218	-0.286621	0.016357	0.999616	-0.025688	-0.003852	-0.009621	
41000	    0	2.828164	-36.210643	-0.150925	-4.642553	-0.597248	-1.110947	0.026258	-0.362160	0.006978	0.999710	-0.023211	-0.002986	-0.005554	
41001	    0	0.506612	-41.513183	0.279881	-2.912817	-0.258646	-0.289927	0.004456	-0.415039	0.008850	0.999891	-0.014564	-0.001293	-0.001450	
41002	    0	-0.484156	-41.383028	-0.238314	-0.345230	0.161743	0.211716	-0.004405	-0.413838	-0.001665	0.999997	-0.001726	0.000809	0.001059	
41003	    0	0.268110	-32.212816	0.424480	1.720453	0.577744	0.339513	0.003235	-0.322144	0.001465	0.999957	0.008602	0.002889	0.001698	
41004	    0	3.012170	-20.166829	1.652285	2.238708	0.763339	0.250822	0.030432	-0.201797	0.014149	0.999928	0.011193	0.003817	0.001254	
41005	    0	5.526502	-6.249930	2.909886	1.584074	0.799571	-0.065614	0.055359	-0.062744	0.028381	0.999960	0.007920	0.003998	-0.000328	
41006	    0	8.093793	3.576578	3.326957	0.916868	0.798230	-0.008774	0.081072	0.035610	0.033110	0.999981	0.004584	0.003991	-0.000044	
41007	    0	8.957827	4.212416	4.155651	0.013161	0.940709	0.528720	0.089661	0.042358	0.041138	0.999985	0.000066	0.004704	0.002644	
41008	    0	7.273112	-0.307766	5.258341	-1.050582	0.916112	1.116386	0.072986	-0.002396	0.052263	0.999960	-0.005253	0.004580	0.005582	
41009	    0	6.041562	-4.612353	4.147019	-1.960805	0.556388	1.406896	0.060852	-0.045288	0.041748	0.999923	-0.009804	0.002782	0.007034	
41010	    0	9.582649	-2.384443	-2.794050	-2.048747	0.095943	1.793726	0.096024	-0.023269	-0.027746	0.999907	-0.010243	0.000480	0.008968	
41011	    0	22.104594	0.622780	-9.036376	-0.853564	-0.003815	2.556688	0.220947	0.008667	-0.090393	0.999908	-0.004268	-0.000019	0.012783	
41012	    0	32.062846	-1.224267	-12.281505	0.710516	0.379959	3.022699	0.320526	-0.006960	-0.123455	0.999877	0.003552	0.001900	0.015113	
41013	    0	30.761122	-5.869131	-9.977769	1.332924	0.960781	3.115243	0.307983	-0.053223	-0.101624	0.999845	0.006664	0.004804	0.015575	
41014	    0	30.226914	-3.253044	-6.852092	2.216509	1.137630	3.483848	0.302368	-0.026489	-0.070557	0.999770	0.011082	0.005688	0.017418	
41015	    0	29.418552	4.782136	-5.815073	3.350273	1.209784	3.964321	0.292792	0.054619	-0.059048	0.999643	0.016749	0.006048	0.019819	
41016	    0	28.911575	9.580869	-7.161589	3.403373	1.179287	4.510170	0.286417	0.103507	-0.071592	0.999583	0.017015	0.005896	0.022548	
41017	    0	29.932512	13.267326	-7.432889	2.472983	1.156182	4.613284	0.295715	0.140442	-0.074341	0.999640	0.012363	0.005780	0.023064	
41018	    0	29.295148	14.657322	-9.031011	1.634578	1.103517	4.606729	0.288961	0.154000	-0.090673	0.999685	0.008172	0.005517	0.023031	
41019	    0	28.733844	13.273824	-9.306514	0.767592	1.108087	4.641412	0.283630	0.139709	-0.094116	0.999707	0.003838	0.005540	0.023205	
41020	    0	25.607793	13.250831	-8.957214	0.076492	1.220054	4.562611	0.252414	0.138330	-0.091067	0.999721	0.000382	0.006100	0.022811	
41021	    0	20.372616	13.388303	-7.481891	-0.286126	1.209551	4.316311	0.200317	0.138123	-0.076233	0.999747	-0.001431	0.006047	0.021580	
41022	    0	15.455053	12.807300	-6.913283	-0.482975	1.002193	3.989314	0.151608	0.130948	-0.070211	0.999785	-0.002415	0.005011	0.019945	
41023	    0	12.398378	11.983865	-7.364621	-0.710909	0.630987	3.579153	0.121582	0.121765	-0.074463	0.999828	-0.003554	0.003155	0.017895	
41024	    0	10.010323	11.608570	-6.225226	-0.268185	0.459882	3.167289	0.098105	0.117566	-0.062636	0.999870	-0.001341	0.002299	0.015836	
41025	    0	8.056189	11.759962	-6.068885	0.219733	0.277146	2.635270	0.078918	0.118713	-0.060669	0.999911	0.001099	0.001386	0.013176	
41026	    0	5.858812	14.684176	-6.840412	0.223545	0.174716	2.055777	0.057014	0.147510	-0.068290	0.999946	0.001118	0.000874	0.010279	
41027	    0	3.959236	17.914831	-8.034777	-0.303462	0.039673	1.526657	0.038208	0.179321	-0.080627	0.999969	-0.001517	0.000198	0.007633	
41028	    0	1.917942	20.165252	-7.930341	-0.741775	0.214769	1.267445	0.017817	0.201472	-0.080070	0.999972	-0.003709	0.001074	0.006337	
41029	    0	-2.486881	20.979137	-6.972441	-1.112954	0.685892	1.316852	-0.026489	0.209229	-0.070801	0.999956	-0.005565	0.003429	0.006584	
41030	    0	-7.572931	20.263181	-6.825263	-2.392285	1.018562	1.466996	-0.077563	0.201235	-0.070273	0.999888	-0.011961	0.005093	0.007335	
41031	    0	-11.982892	18.659402	-1.728572	-3.309631	1.071992	1.317672	-0.121155	0.185486	-0.019714	0.999826	-0.016547	0.005360	0.006588	
41032	    0	-13.801703	10.661844	2.019762	-2.829848	0.226411	0.967634	-0.138510	0.106222	0.018849	0.999887	-0.014149	0.001132	0.004838	
41033	    0	-13.043162	3.936237	2.760266	-0.945288	-0.673489	0.469211	-0.130615	0.039185	0.026978	0.999980	-0.004726	-0.003367	0.002346	
41034	    0	-10.608305	2.886534	1.080426	1.073849	-1.198210	0.272182	-0.106185	0.028665	0.010323	0.999967	0.005369	-0.005991	0.001361	
41035	    0	-3.422770	0.648408	2.341286	1.512177	-1.555475	0.480662	-0.034424	0.006226	0.023193	0.999938	0.007561	-0.007777	0.002403	
41036	    0	2.860376	-6.640176	3.772789	1.281586	-2.209157	0.811601	0.028458	-0.066527	0.037617	0.999909	0.006408	-0.011045	0.004058	
41037	    0	4.903695	-15.098517	1.535307	1.707754	-3.366296	0.705762	0.049316	-0.150940	0.014893	0.999815	0.008538	-0.016830	0.003529	
41038	    0	10.726200	-25.433530	-13.586185	2.520691	-2.446300	-0.097089	0.108816	-0.252660	-0.137729	0.999846	0.012603	-0.012231	-0.000485	
41039	    0	19.759317	-31.551056	-16.085409	3.559565	1.806011	-1.313878	0.194031	-0.313843	-0.168213	0.999779	0.017797	0.009029	-0.006569	
41040	    0	13.111614	-23.705360	4.432930	2.656576	3.037504	-1.675167	0.129743	-0.238688	0.039188	0.999761	0.013282	0.015186	-0.008375	
41041	    0	4.649671	1.957236	12.578743	2.590307	2.006057	-1.033834	0.047852	0.017700	0.125549	0.999852	0.012951	0.010030	-0.005169	
41042	    0	0.422143	15.060913	1.885262	3.864923	0.868663	-0.178730	0.004446	0.150204	0.021739	0.999803	0.019323	0.004343	-0.000894	
41043	    0	-1.154270	9.513286	-2.384028	3.212398	2.620886	-0.383023	-0.011658	0.095520	-0.022156	0.999783	0.016061	0.013103	-0.001915	
41044	    0	-1.970674	3.616725	18.921942	0.294880	1.169411	-1.354999	-0.018355	0.036016	0.189383	0.999958	0.001474	0.005847	-0.006775	
41045	    0	19.897203	-18.840470	12.066696	0.246620	-0.233460	-0.106812	0.198730	-0.188660	0.120667	0.999998	0.001233	-0.001167	-0.000534	
41046	    0	40.992337	-30.889649	-7.101047	0.426111	-2.071046	0.951025	0.412096	-0.306794	-0.067406	0.999932	0.002131	-0.010355	0.004755	
41047	    0	19.865816	-10.262989	-21.912346	2.330844	-0.937488	0.527206	0.199951	-0.099548	-0.219360	0.999917	0.011654	-0.004687	0.002636	
41048	    0	5.480081	20.544961	-6.274834	1.738969	0.141528	-1.527439	0.056327	0.205559	-0.061001	0.999932	0.008695	0.000708	-0.007637	
41049	    0	-3.743504	60.512840	-6.245490	-0.198945	-1.123857	-2.974827	-0.028076	0.605530	-0.063232	0.999872	-0.000995	-0.005619	-0.014874	
41050	    0	-12.621645	65.707478	-17.789603	-1.216537	-1.340518	-1.657528	-0.119557	0.656982	-0.182709	0.999925	-0.006083	-0.006702	-0.008287	
41051	    0	4.672537	21.166149	-11.969672	-2.701750	-1.148110	-2.732269	0.050293	0.209351	-0.122253	0.999799	-0.013508	-0.005740	-0.013660	
41052	    0	20.740991	-3.335273	-10.673715	-2.247366	-1.632593	-2.441736	0.207832	-0.037072	-0.104639	0.999828	-0.011236	-0.008162	-0.012208	
41053	    0	42.322592	-9.973141	-11.372516	-0.447667	-1.572461	-1.959282	0.423096	-0.104126	-0.110168	0.999918	-0.002238	-0.007862	-0.009796	
41054	    0	29.385901	4.175715	-13.046325	1.090699	-1.574055	-3.646345	0.295577	0.037081	-0.127931	0.999787	0.005453	-0.007870	-0.018230	
41055	    0	12.030375	11.612470	-9.966135	1.413297	-1.947217	-4.278994	0.123718	0.114197	-0.097656	0.999699	0.007066	-0.009735	-0.021393	
41056	    0	14.532738	15.517470	-9.266102	1.098737	-2.112208	-4.140675	0.149467	0.152609	-0.090254	0.999714	0.005493	-0.010560	-0.020701	
41057	    0	25.738454	16.565854	-9.575058	0.817931	-2.387985	-3.352602	0.261230	0.161682	-0.091980	0.999780	0.004089	-0.011939	-0.016762	
41058	    0	27.918228	3.307686	-8.271137	0.090797	-2.541544	-3.430436	0.280716	0.028307	-0.079137	0.999772	0.000454	-0.012707	-0.017151	
41059	    0	27.664353	-8.247389	-5.206359	-0.682895	-2.441446	-4.024885	0.275513	-0.088196	-0.048401	0.999717	-0.003414	-0.012206	-0.020123	
41060	    0	26.545248	-10.914607	-0.578160	-0.712649	-2.099224	-4.053095	0.263206	-0.114509	-0.002609	0.999733	-0.003563	-0.010495	-0.020264	
41061	    0	26.224845	-7.250051	3.827560	-0.681929	-1.760999	-3.852377	0.260437	-0.077393	0.040833	0.999769	-0.003409	-0.008804	-0.019260	
41062	    0	25.361611	-5.456723	7.085807	-1.050266	-1.538585	-3.857145	0.251949	-0.059057	0.073103	0.999770	-0.005251	-0.007692	-0.019284	
41063	    0	22.662797	-3.325451	8.548618	-1.979235	-1.385427	-3.850887	0.225342	-0.036743	0.087402	0.999742	-0.009895	-0.006927	-0.019253	
41064	    0	19.742175	-5.673215	8.194962	-2.963729	-1.183431	-3.549722	0.195895	-0.058984	0.083975	0.999715	-0.014817	-0.005917	-0.017747	
41065	    0	17.165875	-10.994977	6.959205	-3.712093	-1.009285	-3.251229	0.169495	-0.111389	0.072510	0.999682	-0.018559	-0.005046	-0.016254	
41066	    0	13.112928	-15.001255	5.874589	-4.071115	-0.780574	-3.072698	0.128578	-0.150757	0.062315	0.999667	-0.020353	-0.003902	-0.015362	
41067	    0	8.522057	-19.283463	3.992579	-4.274260	-0.626441	-2.723227	0.082458	-0.193054	0.044312	0.999674	-0.021369	-0.003132	-0.013615	
41068	    0	5.617711	-26.396472	0.686978	-4.583090	-0.636551	-2.117576	0.053345	-0.264287	0.013097	0.999676	-0.022913	-0.003182	-0.010587	
41069	    0	4.070439	-34.847883	-1.808654	-4.607083	-0.517896	-1.484827	0.038147	-0.349060	-0.009949	0.999703	-0.023033	-0.002589	-0.007423	
41070	    0	2.033875	-40.981697	0.788683	-3.640961	-0.205624	-0.903946	0.018474	-0.409669	0.015366	0.999824	-0.018204	-0.001028	-0.004519	
41071	    0	0.124246	-41.371896	1.686062	-0.937466	0.209809	-0.373842	0.000488	-0.413635	0.018799	0.999987	-0.004687	0.001049	-0.001869	
41072	    0	1.039640	-34.749896	0.889570	2.079815	0.691809	0.082399	0.010562	-0.347562	0.005245	0.999939	0.010399	0.003459	0.000412	
41073	    0	2.944572	-27.178883	1.004137	3.338028	0.894401	0.361651	0.029968	-0.271851	0.005371	0.999848	0.016689	0.004472	0.001808	
41074	    0	3.854500	-15.522610	2.553234	2.490688	0.849176	0.041963	0.038680	-0.155519	0.023433	0.999913	0.012453	0.004246	0.000210	
41075	    0	3.653953	-0.321359	2.572533	1.539822	0.685891	-0.372319	0.036621	-0.003479	0.025574	0.999962	0.007699	0.003429	-0.001862	
41076	    0	5.631290	7.343420	1.972202	1.383796	0.757988	-0.063706	0.056412	0.073278	0.020016	0.999969	0.006919	0.003790	-0.000319	
41077	    0	8.310113	4.941943	1.313160	0.693519	1.024828	0.889596	0.082947	0.049744	0.012878	0.999970	0.003468	0.005124	0.004448	
41078	    0	9.778151	-1.938059	2.761157	-0.988598	1.041623	1.620324	0.098076	-0.018452	0.027194	0.999941	-0.004943	0.005208	0.008101	
41079	    0	10.425790	-3.619841	-0.469091	-2.074499	0.607510	1.737269	0.104553	-0.035339	-0.004639	0.999904	-0.010372	0.003037	0.008686	
41080	    0	19.246260	-0.388396	-5.280820	-1.879381	0.408951	2.306071	0.192386	-0.002164	-0.053176	0.999887	-0.009397	0.002045	0.011530	
41081	    0	29.806468	0.737316	-8.917398	-0.645281	0.550864	2.948877	0.297668	0.011475	-0.090027	0.999882	-0.003226	0.002754	0.014744	
41082	    0	27.784374	-3.469568	-8.663976	0.074962	0.835262	3.025561	0.277961	-0.030458	-0.087812	0.999876	0.000375	0.004176	0.015127	
41083	    0	27.225421	-4.733939	-6.285754	0.930260	0.975085	3.168644	0.272644	-0.042725	-0.064392	0.999851	0.004651	0.004875	0.015842	
41084	    0	26.689515	0.489960	-5.750851	2.334971	1.061715	3.541084	0.266435	0.010302	-0.058825	0.999761	0.011674	0.005308	0.017704	
41085	    0	25.613822	6.179764	-6.672983	3.183364	1.097429	4.166911	0.254395	0.068176	-0.067078	0.999640	0.015915	0.005486	0.020832	
41086	    0	26.540172	10.253212	-8.921143	2.943406	0.991563	4.501522	0.262544	0.109774	-0.088938	0.999625	0.014715	0.004957	0.022505	
41087	    0	28.405812	11.645460	-9.706127	2.349347	1.000513	4.430109	0.280884	0.123840	-0.097046	0.999673	0.011745	0.005002	0.022148	
41088	    0	29.234755	10.929864	-10.847951	1.595451	1.026437	4.260640	0.289360	0.116353	-0.109060	0.999727	0.007977	0.005132	0.021301	
41089	    0	28.237088	11.326514	-10.789878	0.981411	1.159763	4.159886	0.279297	0.119629	-0.108948	0.999754	0.004907	0.005798	0.020798	
41090	    0	24.962594	12.543355	-9.832315	0.555080	1.166621	4.024805	0.246453	0.130690	-0.099409	0.999776	0.002775	0.005833	0.020123	
41091	    0	20.407012	12.678183	-9.451609	0.169002	0.937525	3.890488	0.201106	0.130794	-0.095354	0.999799	0.000845	0.004687	0.019451	
41092	    0	16.330661	11.655879	-9.597756	-0.205624	0.721592	3.647634	0.160798	0.119408	-0.096683	0.999826	-0.001028	0.003608	0.018237	
41093	    0	12.661338	12.071156	-8.018433	-0.209056	0.699841	3.381516	0.124268	0.122742	-0.080750	0.999850	-0.001045	0.003499	0.016907	
41094	    0	9.747824	11.914076	-6.583199	0.480481	0.670843	3.058180	0.095419	0.120769	-0.065866	0.999874	0.002402	0.003354	0.015290	
41095	    0	7.577410	13.742611	-7.157156	0.727296	0.592061	2.650539	0.073730	0.138672	-0.071289	0.999901	0.003636	0.002960	0.013252	
41096	    0	5.894246	17.354135	-8.000862	0.830861	0.562491	2.184348	0.056816	0.174500	-0.079447	0.999928	0.004154	0.002812	0.010921	
41097	    0	3.995040	21.629209	-8.916491	0.103952	0.623330	1.747156	0.037781	0.216675	-0.089172	0.999956	0.000520	0.003117	0.008736	
41098	    0	-0.151499	24.233458	-6.677207	-0.451857	0.935568	1.504919	-0.003652	0.242161	-0.067306	0.999958	-0.002259	0.004678	0.007524	
41099	    0	-6.299571	20.133666	-4.380404	-1.074243	1.207188	1.671638	-0.064941	0.200562	-0.044495	0.999932	-0.005371	0.006036	0.008358	
41100	    0	-12.684504	15.570063	-0.812124	-1.957765	0.982506	1.676040	-0.128186	0.154545	-0.009010	0.999905	-0.009789	0.004912	0.008380	
41101	    0	-16.465590	12.038490	-0.269316	-2.085929	0.338181	1.242859	-0.165405	0.119324	-0.003662	0.999925	-0.010429	0.001691	0.006214	
41102	    0	-15.359235	7.312935	0.812785	-1.266680	0.195886	0.404933	-0.153732	0.072868	0.007816	0.999977	-0.006333	0.000979	0.002025	
41103	    0	-13.680566	10.607903	1.773827	0.930217	-0.062561	0.055695	-0.136841	0.105957	0.018188	0.999989	0.004651	-0.000313	0.000278	
41104	    0	-4.837675	9.930037	1.535151	1.046570	-0.657659	0.429919	-0.048641	0.099114	0.015711	0.999978	0.005233	-0.003288	0.002150	
41105	    0	1.432807	1.675109	7.129304	0.941482	-1.451706	0.926986	0.013733	0.016479	0.071472	0.999951	0.004707	-0.007258	0.004635	
41106	    0	2.947342	-11.773190	5.742959	0.292599	-2.939346	1.112793	0.029282	-0.117653	0.057689	0.999875	0.001463	-0.014696	0.005564	
41107	    0	7.443111	-26.388631	-5.586785	0.801135	-3.645355	0.782823	0.076477	-0.263367	-0.055542	0.999818	0.004005	-0.018226	0.003914	
41108	    0	19.438485	-33.395395	-21.758040	2.335222	0.315101	-0.313957	0.193516	-0.331685	-0.221767	0.999928	0.011676	0.001575	-0.001570	
41109	    0	14.240989	-26.925946	-3.825914	2.112915	3.249582	-1.184163	0.140137	-0.269653	-0.043396	0.999794	0.010564	0.016247	-0.005920	
41110	    0	5.890169	-4.971196	10.475615	0.984218	2.199995	-0.787375	0.059850	-0.050459	0.103854	0.999919	0.004921	0.011000	-0.003937	
41111	    0	4.362173	10.680775	0.763322	2.729341	1.656412	-0.019074	0.043701	0.106689	0.008728	0.999872	0.013646	0.008282	-0.000095	
41112	    0	2.768272	2.913127	13.874542	2.548405	3.304725	-0.512542	0.030046	0.027289	0.138618	0.999779	0.012741	0.016522	-0.002563	
41113	    0	12.090303	-5.619513	19.717746	1.195539	0.900469	-0.507360	0.121643	-0.057678	0.196289	0.999969	0.005978	0.004502	-0.002537	
41114	    0	30.232775	-21.225242	-7.898740	-0.250249	-1.969564	0.601016	0.303720	-0.211437	-0.075736	0.999946	-0.001251	-0.009848	0.003005	
41115	    0	29.305761	-24.122570	-16.907787	-0.106813	-1.536388	0.733957	0.295227	-0.240234	-0.166687	0.999963	-0.000534	-0.007682	0.003670	
41116	    0	12.842281	14.328043	-12.501393	1.804954	0.101854	-0.880638	0.128992	0.143834	-0.123783	0.999949	0.009025	0.000509	-0.004403	
41117	    0	-0.589830	44.140851	-5.061244	1.389554	-0.244912	-2.588747	-0.000122	0.441772	-0.047546	0.999891	0.006948	-0.001225	-0.012943	
41118	    0	-11.372235	68.506485	-11.885532	-0.834499	-1.439153	-2.641022	-0.103795	0.685973	-0.122487	0.999878	-0.004172	-0.007195	-0.013205	
41119	    0	-4.287858	38.253941	-13.068357	-1.666334	-0.847473	-2.692534	-0.037170	0.381958	-0.134033	0.999866	-0.008331	-0.004237	-0.013462	
41120	    0	12.912025	13.181158	-11.888689	-2.494806	-1.390941	-3.096810	0.131955	0.128294	-0.119591	0.999778	-0.012473	-0.006954	-0.015483	
41121	    0	36.164401	-2.497935	-9.976409	-1.265565	-1.709037	-1.706748	0.362244	-0.028687	-0.096497	0.999907	-0.006328	-0.008545	-0.008533	
41122	    0	42.847021	-3.342610	-13.331988	-0.096706	-1.555884	-2.590660	0.429008	-0.039044	-0.129966	0.999886	-0.000484	-0.007779	-0.012953	
41123	    0	20.126242	3.486651	-9.655233	0.911984	-1.719818	-4.186621	0.202759	0.031067	-0.094666	0.999733	0.004560	-0.008598	-0.020931	
41124	    0	12.236951	9.225398	-8.090848	0.992120	-1.980044	-4.611709	0.125249	0.089784	-0.079228	0.999673	0.004960	-0.009899	-0.023056	
41125	    0	20.764206	18.262707	-8.637985	0.661528	-2.230083	-4.040130	0.212219	0.178650	-0.083435	0.999728	0.003307	-0.011149	-0.020199	
41126	    0	27.486595	12.398632	-7.899367	0.076108	-2.400946	-3.295364	0.277781	0.119454	-0.075624	0.999792	0.000381	-0.012004	-0.016476	
41127	    0	26.941335	-5.842062	-4.125284	-0.906442	-2.373498	-3.491482	0.268799	-0.063293	-0.037781	0.999766	-0.004532	-0.011867	-0.017456	
41128	    0	26.655362	-15.749722	-0.386359	-1.152136	-2.074035	-3.827037	0.263490	-0.162567	-0.000194	0.999746	-0.005760	-0.010369	-0.019134	
41129	    0	22.981583	-12.741785	4.257506	-0.807252	-1.651700	-3.872977	0.226929	-0.131653	0.044983	0.999770	-0.004036	-0.008258	-0.019363	
41130	    0	20.529387	-6.726332	6.794399	-0.630041	-1.447968	-3.739423	0.203491	-0.070862	0.069641	0.999794	-0.003150	-0.007239	-0.018696	
41131	    0	18.605010	-2.266311	7.316625	-1.260272	-1.307387	-3.635466	0.185119	-0.025567	0.074533	0.999792	-0.006301	-0.006536	-0.018176	
41132	    0	15.526644	-2.965209	7.094569	-2.310930	-1.127329	-3.426242	0.154333	-0.031472	0.072174	0.999770	-0.011554	-0.005636	-0.017130	
41133	    0	13.610444	-7.289507	5.703098	-3.241831	-0.996489	-3.176403	0.134644	-0.074097	0.058899	0.999729	-0.016208	-0.004982	-0.015881	
41134	    0	12.021319	-11.507326	3.881868	-3.777882	-0.913902	-2.988924	0.118298	-0.116083	0.041549	0.999699	-0.018888	-0.004569	-0.014943	
41135	    0	9.689919	-16.609425	3.099623	-4.230768	-0.826353	-2.736198	0.094482	-0.166687	0.034912	0.999674	-0.021152	-0.004131	-0.013680	
41136	    0	7.450759	-23.183048	0.879112	-4.884189	-0.891416	-2.348432	0.071724	-0.232371	0.014786	0.999622	-0.024418	-0.004457	-0.011741	
41137	    0	5.613131	-30.011833	-1.888399	-5.265550	-0.827136	-1.809168	0.053467	-0.300964	-0.010742	0.999603	-0.026324	-0.004135	-0.009045	
41138	    0	3.431677	-35.813288	0.043001	-4.366297	-0.360520	-1.210317	0.032139	-0.358208	0.008309	0.999742	-0.021830	-0.001802	-0.006051	
41139	    0	0.773028	-36.870189	1.371473	-2.364410	0.171094	-0.724811	0.006409	-0.368530	0.018066	0.999923	-0.011822	0.000855	-0.003624	
41140	    0	-0.083723	-34.677100	-0.037081	0.471116	0.565530	-0.251580	-0.001276	-0.346767	-0.001184	0.999992	0.002356	0.002828	-0.001258	
41141	    0	1.528019	-31.296529	-1.110370	2.845299	0.914036	0.261698	0.015625	-0.312744	-0.015625	0.999887	0.014226	0.004570	0.001308	
41142	    0	3.201631	-22.439464	-0.846911	3.341845	0.992253	0.277343	0.032272	-0.224165	-0.012376	0.999846	0.016708	0.004961	0.001387	
41143	    0	3.279496	-10.327718	2.786796	2.056164	0.802819	-0.128939	0.032837	-0.103577	0.026672	0.999938	0.010281	0.004014	-0.000645	
41144	    0	3.036411	1.463109	3.915274	0.887684	0.488474	-0.417330	0.030490	0.014394	0.039143	0.999985	0.004438	0.002442	-0.002087	
41145	    0	5.156668	6.033626	2.905849	0.599672	0.486947	0.208283	0.051575	0.060303	0.029114	0.999991	0.002998	0.002435	0.001041	
41146	    0	7.100237	2.521609	3.728224	-0.320437	0.715643	1.184092	0.070984	0.025696	0.036987	0.999974	-0.001602	0.003578	0.005920	
41147	    0	8.753610	-2.424295	1.794766	-1.445230	0.610746	1.663816	0.087788	-0.023384	0.017851	0.999933	-0.007226	0.003054	0.008319	
41148	    0	13.949255	-3.196729	-3.674496	-1.954136	0.205618	1.787047	0.139735	-0.031077	-0.036582	0.999911	-0.009770	0.001028	0.008935	
41149	    0	24.514267	-0.141919	-9.179026	-1.122312	0.055124	2.175958	0.245117	0.000732	-0.091858	0.999925	-0.005611	0.000276	0.010880	
41150	    0	29.067413	-0.847796	-11.201705	0.055315	0.483716	2.460544	0.290477	-0.004872	-0.112721	0.999921	0.000277	0.002419	0.012302	
41151	    0	27.603856	-3.557330	-8.230962	0.885995	0.842315	2.643679	0.276123	-0.031555	-0.083618	0.999893	0.004430	0.004211	0.013218	
41152	    0	27.575530	-1.518814	-7.286995	2.227156	1.019158	2.928530	0.275554	-0.010329	-0.074408	0.999817	0.011135	0.005095	0.014642	
41153	    0	25.935986	3.503790	-6.977081	3.301550	1.053146	3.252717	0.258362	0.040405	-0.070496	0.999717	0.016506	0.005265	0.016262	
41154	    0	25.105270	7.726710	-8.584273	3.355581	0.894453	3.737664	0.249149	0.083373	-0.085595	0.999674	0.016776	0.004472	0.018686	
41155	    0	27.950794	11.418966	-9.563937	2.734086	0.864500	4.078334	0.276672	0.121155	-0.095215	0.999689	0.013669	0.004322	0.020390	
41156	    0	30.095101	11.935328	-10.272471	2.075584	0.916759	4.217551	0.297859	0.126723	-0.102805	0.999713	0.010377	0.004583	0.021086	
41157	    0	31.173039	10.903725	-12.042435	1.331638	0.922475	4.309463	0.308716	0.116516	-0.121094	0.999735	0.006658	0.004612	0.021545	
41158	    0	29.254426	11.245391	-9.579022	0.619939	1.120087	4.248968	0.289522	0.118926	-0.097055	0.999753	0.003099	0.005600	0.021243	
41159	    0	24.315076	11.800145	-7.872165	0.449596	1.097953	4.085849	0.240234	0.123108	-0.079773	0.999773	0.002248	0.005489	0.020428	
41160	    0	19.052301	11.287413	-7.588011	0.281352	0.907194	3.833638	0.187965	0.116601	-0.076574	0.999804	0.001407	0.004536	0.019167	
41161	    0	14.848272	11.440422	-7.799450	-0.053981	0.716438	3.484528	0.146179	0.116943	-0.078552	0.999842	-0.000270	0.003582	0.017422	
41162	    0	11.557544	11.239946	-5.318699	0.543238	0.700029	3.202204	0.113568	0.114373	-0.053278	0.999862	0.002716	0.003500	0.016010	
41163	    0	9.175227	11.507261	-5.097328	0.815804	0.486774	2.864946	0.089966	0.116577	-0.050720	0.999886	0.004079	0.002434	0.014324	
41164	    0	7.613695	12.999330	-4.962269	1.036104	0.329028	2.524837	0.074405	0.131195	-0.049068	0.999905	0.005180	0.001645	0.012624	
41165	    0	5.936707	15.191715	-6.077571	1.128607	0.074770	2.184351	0.057678	0.152893	-0.059937	0.999924	0.005643	0.000374	0.010921	
41166	    0	3.386462	17.027529	-6.866001	0.880829	-0.093080	1.869426	0.032301	0.170882	-0.067893	0.999946	0.004404	-0.000465	0.009347	
41167	    0	-0.967665	17.635801	-7.623791	0.146486	-0.039483	1.571672	-0.011047	0.176331	-0.076111	0.999969	0.000732	-0.000197	0.007858	
41168	    0	-6.349090	19.594447	-7.810579	-1.049245	0.423055	1.213660	-0.064843	0.195141	-0.078995	0.999965	-0.005246	0.002115	0.006068	
41169	    0	-10.149639	17.866241	-3.327387	-1.223012	1.074428	1.173421	-0.102722	0.177856	-0.033813	0.999949	-0.006115	0.005372	0.005867	
41170	    0	-11.994208	13.633837	0.007029	-1.505310	1.035711	1.243426	-0.120788	0.135588	-0.000328	0.999938	-0.007526	0.005178	0.006217	
41171	    0	-12.001129	10.836366	1.681803	-1.641684	0.606548	1.079578	-0.120544	0.107849	0.016296	0.999947	-0.008208	0.003033	0.005398	
41172	    0	-10.263001	5.458248	2.762926	-1.266871	0.274470	0.507931	-0.102731	0.054496	0.027425	0.999975	-0.006334	0.001372	0.002540	
41173	    0	-9.201104	5.230981	3.596753	0.483895	-0.048065	0.081635	-0.092041	0.052185	0.036072	0.999996	0.002419	-0.000240	0.000408	
41174	    0	-4.913014	7.023329	2.980381	0.769619	-0.718502	0.195313	-0.049306	0.070070	0.029897	0.999985	0.003848	-0.003592	0.000977	
41175	    0	1.845510	3.746491	8.156038	1.444274	-1.580652	0.582898	0.017700	0.036926	0.081970	0.999938	0.007221	-0.007903	0.002914	
41176	    0	5.912039	-5.623386	10.238804	1.673211	-2.929264	0.893066	0.057870	-0.056832	0.102768	0.999847	0.008366	-0.014646	0.004465	
41177	    0	7.945989	-17.936041	1.295527	1.721593	-5.047463	0.995758	0.080017	-0.179077	0.013428	0.999632	0.008607	-0.025234	0.004978	
41178	    0	16.917911	-28.729884	-30.142654	1.862960	-1.808790	0.260933	0.172284	-0.284261	-0.302535	0.999914	0.009315	-0.009044	0.001305	
41179	    0	15.259256	-26.170585	-14.500891	0.920926	3.618278	-1.087257	0.148499	-0.261841	-0.148926	0.999810	0.004604	0.018090	-0.005436	
41180	    0	5.616352	-11.611139	13.493938	0.701372	3.429226	-1.158017	0.057786	-0.116913	0.133549	0.999829	0.003507	0.017145	-0.005790	
41181	    0	2.744291	3.605970	10.190259	2.141079	2.062303	-0.397506	0.028564	0.034912	0.101990	0.999887	0.010705	0.010311	-0.001987	
41182	    0	4.427869	-2.231016	12.882848	2.592093	3.391333	-0.166906	0.046432	-0.024009	0.127749	0.999771	0.012959	0.016955	-0.000834	
41183	    0	10.637366	-16.063839	19.365651	1.148235	0.991259	-0.111390	0.107239	-0.161804	0.192200	0.999970	0.005741	0.004956	-0.000557	
41184	    0	28.302757	-14.498713	-13.760596	-0.107004	-2.041280	0.003433	0.284414	-0.145055	-0.134630	0.999948	-0.000535	-0.010206	0.000017	
41185	    0	27.603686	3.469076	-19.224685	-0.573542	-0.811771	0.115967	0.276794	0.034302	-0.191223	0.999987	-0.002868	-0.004059	0.000580	
41186	    0	13.489678	29.107380	-10.560421	0.309945	-0.454904	-0.481034	0.135836	0.290911	-0.104845	0.999992	0.001550	-0.002275	-0.002405	
41187	    0	-4.435559	49.969349	-12.297326	0.428016	-0.812352	-1.698330	-0.039612	0.500305	-0.122070	0.999953	0.002140	-0.004062	-0.008492	
41188	    0	-15.480403	48.889332	-11.325776	-1.244776	-1.273578	-2.143357	-0.148820	0.489788	-0.117265	0.999903	-0.006224	-0.006368	-0.010716	
41189	    0	-4.290429	23.277395	-12.984478	-1.272478	-1.036904	-3.662355	-0.037964	0.232666	-0.131531	0.999798	-0.006362	-0.005184	-0.018311	
41190	    0	20.644048	16.900088	-8.907367	-1.272668	-1.453497	-3.515479	0.210007	0.164765	-0.088614	0.999799	-0.006363	-0.007267	-0.017576	
41191	    0	56.098174	10.668755	-13.105271	-0.784318	-1.930849	-0.776688	0.562622	0.104004	-0.126038	0.999938	-0.003922	-0.009654	-0.003883	
41192	    0	32.543400	-7.144193	-8.821950	-0.700408	-1.505534	-2.724000	0.325068	-0.076174	-0.085510	0.999872	-0.003502	-0.007527	-0.013619	
41193	    0	15.424745	-0.726582	-7.519372	0.274683	-1.831032	-4.314056	0.154724	-0.010498	-0.073792	0.999724	0.001373	-0.009154	-0.021568	
41194	    0	13.000983	10.269307	-8.645484	0.630633	-1.857181	-4.493210	0.133070	0.099996	-0.084910	0.999700	0.003153	-0.009285	-0.022464	
41195	    0	23.041212	17.286362	-10.493972	0.567095	-1.959369	-3.612014	0.234497	0.168945	-0.102173	0.999784	0.002835	-0.009796	-0.018059	
41196	    0	28.781041	5.620580	-9.473367	0.184261	-2.046516	-3.172110	0.289603	0.051707	-0.091727	0.999821	0.000921	-0.010232	-0.015860	
41197	    0	30.270947	-10.586499	-5.955608	-0.492897	-2.117131	-3.729538	0.301270	-0.111633	-0.056091	0.999766	-0.002464	-0.010585	-0.018646	
41198	    0	28.318797	-14.996512	-0.426492	-0.412405	-1.848766	-4.204169	0.279974	-0.155878	-0.001349	0.999734	-0.002062	-0.009243	-0.021019	
41199	    0	25.248206	-9.706461	4.008591	0.086219	-1.602878	-4.155312	0.250061	-0.102295	0.042053	0.999751	0.000431	-0.008014	-0.020775	
41200	    0	22.829230	-5.041624	7.096929	-0.011445	-1.447979	-4.023095	0.226695	-0.054983	0.072618	0.999771	-0.000057	-0.007239	-0.020114	
41201	    0	20.191033	-0.213281	7.375178	-0.949169	-1.411355	-3.929438	0.201294	-0.005737	0.075195	0.999770	-0.004745	-0.007056	-0.019646	
41202	    0	16.323374	-0.448000	6.281430	-2.259831	-1.405646	-3.687986	0.162676	-0.006764	0.064027	0.999741	-0.011298	-0.007028	-0.018438	
41203	    0	13.579272	-5.952512	4.035736	-3.284599	-1.400137	-3.433579	0.134460	-0.061157	0.042297	0.999693	-0.016421	-0.007000	-0.017166	
41204	    0	11.307087	-9.715442	1.713678	-3.960131	-1.347703	-3.358671	0.111295	-0.098659	0.019835	0.999640	-0.019798	-0.006738	-0.016791	
41205	    0	9.897715	-14.554565	0.844698	-4.587233	-1.326171	-3.204024	0.096558	-0.146851	0.012451	0.999586	-0.022933	-0.006630	-0.016018	
41206	    0	10.394322	-23.023800	0.072833	-5.147556	-1.264761	-2.765877	0.100715	-0.231514	0.007320	0.999553	-0.025734	-0.006323	-0.013827	
41207	    0	9.052790	-31.085306	0.294452	-5.573365	-1.190178	-2.090775	0.087219	-0.311523	0.012146	0.999539	-0.027863	-0.005950	-0.010452	
41208	    0	7.005137	-34.345541	3.308699	-4.612613	-0.381126	-1.467849	0.067459	-0.343070	0.041133	0.999705	-0.023061	-0.001905	-0.007339	
41209	    0	4.126053	-30.854949	4.747519	-2.745724	0.048830	-0.919374	0.039856	-0.308044	0.051697	0.999895	-0.013728	0.000244	-0.004597	
41210	    0	3.082761	-34.645544	1.447625	-0.119019	0.456238	-0.057221	0.030762	-0.346456	0.014612	0.999997	-0.000595	0.002281	-0.000286	
41211	    0	3.128295	-36.138964	-0.615380	2.622310	0.988230	0.379194	0.031921	-0.361206	-0.011047	0.999900	0.013111	0.004941	0.001896	
41212	    0	1.497876	-24.829483	1.409070	3.597853	1.090114	0.007248	0.015048	-0.248493	0.009540	0.999823	0.017988	0.005450	0.000036	
41213	    0	0.425364	-11.426811	3.856835	2.514151	0.867488	-0.251778	0.004272	-0.114746	0.037109	0.999910	0.012570	0.004337	-0.001259	
41214	    0	0.768301	-2.726076	7.978658	0.022697	0.563241	-0.306130	0.007866	-0.027282	0.079762	0.999994	0.000113	0.002816	-0.001531	
41215	    0	3.690031	3.872254	5.966388	-1.086241	0.352480	0.091553	0.036987	0.039062	0.059387	0.999983	-0.005431	0.001762	0.000458	
41216	    0	7.869331	2.604668	4.766537	-0.947962	0.705536	1.089299	0.078716	0.026700	0.047262	0.999968	-0.004740	0.003528	0.005446	
41217	    0	9.896172	-3.688225	5.535178	-1.485476	0.894376	1.543461	0.099487	-0.035706	0.055176	0.999932	-0.007427	0.004472	0.007717	
41218	    0	9.332394	-4.701526	3.081166	-2.369960	0.647948	1.422548	0.093754	-0.045982	0.031057	0.999899	-0.011849	0.003240	0.007113	
41219	    0	12.304560	-1.360207	-3.285251	-2.613170	0.255785	1.575532	0.123108	-0.013062	-0.032837	0.999883	-0.013065	0.001279	0.007877	
41220	    0	20.642218	1.511263	-10.729054	-1.779993	-0.050546	2.072590	0.206285	0.016295	-0.107380	0.999907	-0.008900	-0.000253	0.010363	
41221	    0	29.581304	0.719625	-14.986932	0.440992	0.202376	2.587965	0.295532	0.011353	-0.150146	0.999913	0.002205	0.001012	0.012939	
41222	    0	30.472013	-4.633504	-11.516780	1.732907	0.930639	2.714093	0.304761	-0.041191	-0.116958	0.999859	0.008664	0.004653	0.013570	
41223	    0	29.253802	-3.864790	-10.340293	2.691844	1.300333	2.882592	0.292358	-0.033020	-0.105774	0.999784	0.013458	0.006501	0.014412	
41224	    0	25.670927	1.998120	-8.283188	3.519614	1.471863	3.213071	0.255712	0.025570	-0.084299	0.999688	0.017596	0.007359	0.016064	
41225	    0	24.328581	6.470092	-7.531135	3.687178	1.354388	3.838068	0.241455	0.070740	-0.075684	0.999622	0.018434	0.006771	0.019188	
41226	    0	26.768824	10.925832	-9.444831	2.988017	1.087696	4.205046	0.264780	0.116255	-0.094192	0.999652	0.014938	0.005438	0.021023	
41227	    0	30.984248	12.324581	-12.490543	2.631863	0.925549	4.359160	0.306458	0.131592	-0.124634	0.999664	0.013158	0.004627	0.021793	
41228	    0	33.473836	9.313162	-12.451284	1.678059	1.036936	4.431396	0.331902	0.101557	-0.125410	0.999705	0.008389	0.005184	0.022155	
41229	    0	30.677393	10.938544	-11.787977	1.118002	1.327639	4.406387	0.303467	0.116760	-0.119263	0.999720	0.005589	0.006638	0.022030	
41230	    0	24.816428	13.509421	-9.430477	0.987907	1.475851	4.351253	0.244439	0.140909	-0.095431	0.999723	0.004939	0.007379	0.021754	
41231	    0	19.525053	13.127468	-8.265691	0.800583	1.300161	4.285037	0.191833	0.135742	-0.083374	0.999741	0.004003	0.006500	0.021423	
41232	    0	15.946684	11.541325	-7.816086	0.644351	1.005821	4.084895	0.156668	0.118885	-0.078574	0.999773	0.003222	0.005029	0.020423	
41233	    0	13.202465	10.936426	-8.101134	0.519594	0.789881	3.717269	0.129639	0.112000	-0.081238	0.999816	0.002598	0.003949	0.018585	
41234	    0	10.492223	12.612723	-6.852405	0.633272	0.718725	3.343560	0.102546	0.128072	-0.068492	0.999848	0.003166	0.003593	0.016717	
41235	    0	8.377770	13.280645	-5.419462	1.065110	0.556398	3.024425	0.081604	0.134338	-0.053711	0.999867	0.005325	0.002782	0.015121	
41236	    0	6.984302	14.709447	-5.928362	1.156657	0.336278	2.662563	0.067775	0.148346	-0.058543	0.999893	0.005783	0.001681	0.013312	
41237	    0	5.707635	17.425889	-7.573840	0.792140	0.098421	2.201131	0.055115	0.175171	-0.075073	0.999931	0.003961	0.000492	0.011005	
41238	    0	2.758892	19.951354	-9.566617	-0.437742	0.027657	1.717971	0.025862	0.199531	-0.096107	0.999960	-0.002189	0.000138	0.008590	
41239	    0	-3.648348	21.348845	-7.522144	-1.219768	0.556191	1.363394	-0.038147	0.212769	-0.076416	0.999954	-0.006099	0.002781	0.006817	
41240	    0	-10.531154	19.498391	-3.709140	-1.618997	1.168661	1.338610	-0.106833	0.193967	-0.038043	0.999928	-0.008095	0.005843	0.006693	
41241	    0	-14.500448	16.763273	-0.695145	-2.101011	1.140630	1.355786	-0.146179	0.166565	-0.007874	0.999905	-0.010505	0.005703	0.006779	
41242	    0	-15.738700	15.764119	1.881700	-1.835672	0.716416	1.166751	-0.158238	0.156887	0.017941	0.999934	-0.009178	0.003582	0.005834	
41243	    0	-12.396727	10.060422	1.336145	-1.399247	0.352673	0.766000	-0.124329	0.100220	0.012878	0.999967	-0.006996	0.001763	0.003830	
41244	    0	-9.236308	8.398427	2.910897	0.028420	0.358200	0.255013	-0.092418	0.083862	0.029286	0.999997	0.000142	0.001791	0.001275	
41245	    0	-7.416294	9.542867	0.449976	0.225830	-0.244713	0.233460	-0.074280	0.095337	0.004517	0.999997	0.001129	-0.001224	0.001167	
41246	    0	-0.651070	6.093520	2.972706	0.303079	-0.990873	0.480464	-0.006804	0.060874	0.029786	0.999983	0.001515	-0.004954	0.002402	
41247	    0	5.033827	-1.428652	6.002339	1.902069	-1.916374	0.600452	0.049805	-0.014709	0.060364	0.999904	0.009510	-0.009582	0.003002	
41248	    0	8.154912	-11.166370	6.892780	2.346798	-3.631500	0.648550	0.080659	-0.112211	0.069083	0.999761	0.011733	-0.018156	0.003242	
41249	    0	12.950409	-23.306413	-9.978330	2.386727	-4.383359	0.652382	0.132446	-0.231445	-0.099670	0.999682	0.011932	-0.021914	0.003262	
41250	    0	18.774544	-29.362769	-26.269196	1.525514	0.506216	-0.289157	0.186653	-0.291881	-0.265396	0.999967	0.007627	0.002531	-0.001446	
41251	    0	10.198737	-23.309103	-2.276083	1.731454	4.118713	-1.169690	0.100098	-0.233459	-0.026855	0.999733	0.008657	0.020592	-0.005848	
41252	    0	4.048374	-5.898112	15.234265	1.905156	2.796887	-0.844617	0.042350	-0.060601	0.151187	0.999847	0.009525	0.013984	-0.004223	
41253	    0	3.901869	7.382667	2.485396	3.022169	1.998439	-0.094610	0.039307	0.073425	0.025574	0.999835	0.015110	0.009992	-0.000473	
41254	    0	1.228077	6.378849	14.343436	1.842047	3.463018	-0.537717	0.014937	0.062428	0.143770	0.999804	0.009210	0.017314	-0.002688	
41255	    0	4.609218	-9.134691	22.921073	0.416757	0.850681	0.115967	0.047119	-0.091797	0.228821	0.999989	0.002084	0.004253	0.000580	
41256	    0	35.034441	-37.150036	-11.376523	0.511569	-2.416504	1.505523	0.354474	-0.368557	-0.110444	0.999895	0.002558	-0.012082	0.007527	
41257	    0	33.699545	-12.010877	-30.456130	0.836951	-1.014526	0.145722	0.338623	-0.118591	-0.303345	0.999978	0.004185	-0.005073	0.000729	
41258	    0	15.287300	26.315675	-6.341782	0.804525	0.238420	-1.009948	0.154125	0.262633	-0.062544	0.999978	0.004023	0.001192	-0.005050	
41259	    0	1.392866	53.828160	-10.231603	0.455680	-0.811030	-2.586446	0.021301	0.538269	-0.101013	0.999905	0.002278	-0.004055	-0.012932	
41260	    0	-15.680615	60.472469	-9.466648	-1.271091	-1.229319	-1.808405	-0.150732	0.605484	-0.099452	0.999920	-0.006355	-0.006146	-0.009042	
41261	    0	-7.280981	21.113804	-10.177381	-1.879960	-0.867307	-2.346898	-0.069885	0.210999	-0.104065	0.999877	-0.009399	-0.004336	-0.011734	
41262	    0	15.307099	7.852690	-6.557341	-1.905156	-1.014379	-2.722114	0.154448	0.075807	-0.065523	0.999848	-0.009525	-0.005072	-0.013610	
41263	    0	51.416431	7.867603	-9.535442	-1.246480	-1.638067	-1.032280	0.515320	0.075439	-0.091614	0.999933	-0.006232	-0.008190	-0.005161	
41264	    0	35.170978	-0.778673	-11.059586	-0.905640	-1.226657	-2.395520	0.352248	-0.012498	-0.108387	0.999899	-0.004528	-0.006133	-0.011977	
41265	    0	13.726395	-0.520732	-9.543341	0.153552	-1.566421	-3.712715	0.137878	-0.007690	-0.094360	0.999796	0.000768	-0.007832	-0.018562	
41266	    0	10.244245	8.617506	-9.516723	0.585222	-1.589331	-4.052869	0.104915	0.084342	-0.094091	0.999759	0.002926	-0.007946	-0.020263	
41267	    0	21.297272	17.795452	-11.654582	0.594560	-1.806761	-3.519674	0.217102	0.174500	-0.114075	0.999800	0.002973	-0.009033	-0.017597	
41268	    0	28.879263	10.980863	-11.921953	0.291842	-2.088865	-3.193287	0.291721	0.105337	-0.116027	0.999817	0.001459	-0.010444	-0.015965	
41269	    0	27.706974	-3.519699	-8.863905	-0.723135	-2.199736	-3.795936	0.277283	-0.040771	-0.085449	0.999752	-0.003615	-0.010998	-0.018978	
41270	    0	27.566714	-11.257516	-4.617243	-0.832826	-2.130325	-4.130175	0.273729	-0.118424	-0.042765	0.999721	-0.004164	-0.010651	-0.020649	
41271	    0	27.865343	-10.497063	0.607074	-0.475923	-1.819000	-4.072912	0.276367	-0.110596	0.008850	0.999748	-0.002379	-0.009094	-0.020363	
41272	    0	26.490572	-7.497249	5.577043	-0.331334	-1.611842	-4.125553	0.262824	-0.080314	0.058024	0.999753	-0.001657	-0.008059	-0.020626	
41273	    0	22.674020	-2.851798	8.308833	-0.862003	-1.484042	-4.145398	0.225464	-0.032837	0.084900	0.999748	-0.004310	-0.007420	-0.020725	
41274	    0	18.418990	-0.875505	8.124973	-1.907899	-1.438268	-3.945128	0.183389	-0.011594	0.082672	0.999734	-0.009539	-0.007191	-0.019724	
41275	    0	14.791684	-4.109448	5.836466	-3.067140	-1.421502	-3.622044	0.146729	-0.042847	0.060059	0.999693	-0.015334	-0.007107	-0.018108	
41276	    0	12.929607	-9.621816	3.880000	-3.924074	-1.337592	-3.372975	0.127386	-0.097580	0.041562	0.999642	-0.019618	-0.006687	-0.016863	
41277	    0	10.334800	-14.867837	3.517421	-4.466650	-1.213998	-3.230715	0.100708	-0.149475	0.039124	0.999601	-0.022330	-0.006069	-0.016151	
41278	    0	8.069178	-21.087808	3.359900	-5.232079	-1.210396	-2.755583	0.077558	-0.210978	0.039594	0.999544	-0.026156	-0.006051	-0.013776	
41279	    0	6.423625	-28.160936	1.807108	-5.679458	-1.353478	-1.986246	0.061279	-0.281555	0.026489	0.999524	-0.028393	-0.006766	-0.009930	
41280	    0	5.509704	-32.560651	1.419395	-5.454985	-0.804818	-1.324259	0.052860	-0.325409	0.023288	0.999598	-0.027271	-0.004024	-0.006620	
41281	    0	4.138610	-35.194740	2.866029	-3.914901	-0.198950	-0.712633	0.040100	-0.351440	0.035583	0.999801	-0.019573	-0.000995	-0.003563	
41282	    0	1.663911	-40.122955	1.080892	-1.139266	0.118447	-0.068474	0.016509	-0.401165	0.013084	0.999983	-0.005696	0.000592	-0.000342	
41283	    0	0.974655	-38.430386	-1.454839	1.595326	0.515181	0.318150	0.010315	-0.384155	-0.017639	0.999963	0.007977	0.002576	0.001591	
41284	    0	1.385095	-25.284437	-0.932338	2.854643	0.823814	0.142675	0.013983	-0.252666	-0.012988	0.999889	0.014273	0.004119	0.000713	
41285	    0	0.845017	-12.601043	2.622628	2.131892	0.935385	-0.037385	0.008545	-0.126282	0.024841	0.999931	0.010659	0.004677	-0.000187	
41286	    0	0.694619	-4.133820	5.376713	0.217629	0.696375	-0.229264	0.007086	-0.041405	0.053698	0.999992	0.001088	0.003482	-0.001146	
41287	    0	3.123126	1.876436	3.436597	-0.584985	0.448609	-0.030518	0.031311	0.018860	0.034241	0.999992	-0.002925	0.002243	-0.000153	
41288	    0	6.917160	0.654694	2.391464	-0.300027	0.688175	0.745968	0.069228	0.006841	0.023666	0.999986	-0.001500	0.003441	0.003730	
41289	    0	8.676061	-3.607483	3.803694	-0.575261	0.684554	1.159678	0.087097	-0.035461	0.037842	0.999972	-0.002876	0.003423	0.005798	
41290	    0	8.107932	-1.222972	1.015739	-1.107038	0.217822	1.215186	0.081162	-0.011681	0.010135	0.999965	-0.005535	0.001089	0.006076	
41291	    0	13.704863	3.196910	-4.982108	-1.337459	-0.252347	1.665529	0.136841	0.032776	-0.049866	0.999942	-0.006687	-0.001262	0.008327	
41292	    0	24.478732	4.560860	-13.190960	-0.734730	-0.335512	2.389971	0.244444	0.048047	-0.131673	0.999920	-0.003674	-0.001678	0.011950	
41293	    0	27.787078	-2.422870	-16.022179	-0.087550	0.179296	2.639848	0.278015	-0.020630	-0.160461	0.999912	-0.000438	0.000896	0.013199	
41294	    0	27.315798	-7.973432	-10.958970	0.710511	0.489251	2.706809	0.273931	-0.075639	-0.110533	0.999899	0.003552	0.002446	0.013534	
41295	    0	26.311063	-4.777562	-9.365761	2.449185	0.676196	2.863487	0.263428	-0.042847	-0.095093	0.999816	0.012245	0.003381	0.014317	
41296	    0	25.351961	1.079839	-6.415683	3.903433	0.758063	3.213088	0.253044	0.016128	-0.064837	0.999673	0.019515	0.003790	0.016064	
41297	    0	25.157472	5.937265	-7.721267	4.481375	0.598420	3.654995	0.250183	0.065674	-0.076538	0.999578	0.022404	0.002992	0.018272	
41298	    0	29.299186	10.112501	-9.696843	4.130181	0.689603	4.021256	0.290522	0.108970	-0.095777	0.999578	0.020648	0.003448	0.020103	
41299	    0	32.042344	11.848031	-10.745152	2.924856	0.812619	4.107349	0.317444	0.126587	-0.106934	0.999674	0.014623	0.004063	0.020535	
41300	    0	30.336344	12.303358	-11.079321	1.691770	0.930483	4.054029	0.300258	0.130080	-0.111115	0.999747	0.008458	0.004652	0.020268	
41301	    0	27.430229	13.051356	-8.664749	0.787604	1.078115	4.037780	0.271118	0.136353	-0.087585	0.999773	0.003938	0.005390	0.020187	
41302	    0	23.175544	13.249119	-8.037950	0.417930	0.969192	3.976149	0.228666	0.137227	-0.081209	0.999788	0.002090	0.004846	0.019879	
41303	    0	19.169017	12.028160	-7.358941	0.243584	0.820213	3.845464	0.189026	0.124023	-0.074219	0.999805	0.001218	0.004101	0.019226	
41304	    0	15.359773	11.186187	-6.659212	0.322361	0.696796	3.699904	0.151259	0.114782	-0.066938	0.999821	0.001612	0.003484	0.018498	
41305	    0	11.971047	11.386767	-6.251801	0.581390	0.536565	3.448666	0.117554	0.116089	-0.062500	0.999843	0.002907	0.002683	0.017242	
41306	    0	9.020638	12.391776	-5.914414	0.821340	0.410479	3.117889	0.088137	0.125545	-0.058813	0.999867	0.004107	0.002052	0.015589	
41307	    0	6.549652	14.125690	-5.792988	0.894196	0.243577	2.745915	0.063477	0.142395	-0.057373	0.999894	0.004471	0.001218	0.013729	
41308	    0	4.313241	16.811853	-5.798138	0.987271	0.000191	2.394934	0.041113	0.168902	-0.057149	0.999916	0.004936	0.000001	0.011974	
41309	    0	2.278988	18.981472	-7.648113	0.569163	-0.115015	1.997411	0.020935	0.190247	-0.075928	0.999946	0.002846	-0.000575	0.009987	
41310	    0	-1.260889	20.860235	-7.667553	-0.299457	0.200655	1.486602	-0.014235	0.208385	-0.076974	0.999970	-0.001497	0.001003	0.007433	
41311	    0	-7.944566	20.446577	-4.041684	-0.254633	0.827034	1.233685	-0.080872	0.203918	-0.040344	0.999971	-0.001273	0.004135	0.006168	
41312	    0	-13.649650	16.561149	-1.228801	-0.920882	1.141947	1.239796	-0.137589	0.164704	-0.012264	0.999952	-0.004604	0.005710	0.006199	
41313	    0	-16.460892	16.136893	0.795391	-1.887366	1.001763	1.036859	-0.165405	0.160583	0.007263	0.999929	-0.009437	0.005009	0.005184	
41314	    0	-14.691733	11.916866	2.993554	-1.792176	0.783552	0.558481	-0.147134	0.119023	0.029445	0.999948	-0.008961	0.003918	0.002792	
41315	    0	-13.598727	12.617323	4.611581	-0.380707	0.392342	0.238800	-0.136047	0.126099	0.046143	0.999995	-0.001904	0.001962	0.001194	
41316	    0	-8.201235	11.383588	1.771743	0.296975	-0.336838	0.378228	-0.082257	0.113654	0.017748	0.999995	0.001485	-0.001684	0.001891	
41317	    0	0.188798	6.247191	5.951189	1.144611	-0.915536	0.480657	0.001465	0.062134	0.059875	0.999969	0.005723	-0.004578	0.002403	
41318	    0	5.179247	-2.668730	7.392368	1.962149	-1.840075	0.247200	0.051145	-0.027350	0.074130	0.999908	0.009810	-0.009200	0.001236	
41319	    0	8.759962	-15.040143	8.612840	1.185865	-3.457071	-0.058750	0.086060	-0.150940	0.086731	0.999832	0.005929	-0.017284	-0.000294	
41320	    0	15.231113	-27.234551	-9.545710	1.378150	-3.708129	-0.340103	0.153606	-0.271953	-0.094492	0.999803	0.006890	-0.018539	-0.001700	
41321	    0	20.919399	-28.205227	-21.933416	1.957749	1.018739	-0.907919	0.206787	-0.280823	-0.223145	0.999928	0.009789	0.005094	-0.004539	
41322	    0	9.138108	-23.296571	2.057236	2.760169	3.394608	-1.169495	0.090311	-0.233736	0.015811	0.999743	0.013800	0.016972	-0.005847	
41323	    0	4.348587	-4.346054	11.480512	1.448088	1.590951	-0.381477	0.044312	-0.044373	0.114136	0.999940	0.007240	0.007955	-0.001907	
41324	    0	4.085926	11.178005	6.076303	0.671394	1.264013	0.621802	0.040896	0.111703	0.060880	0.999969	0.003357	0.006320	0.003109	
41325	    0	3.755898	8.156802	-7.247284	1.853447	2.027214	1.540438	0.036194	0.082520	-0.072083	0.999876	0.009267	0.010136	0.007702	
41326	    0	7.299452	-14.145316	24.377191	1.098500	3.291303	0.749246	0.077517	-0.142500	0.241740	0.999842	0.005492	0.016456	0.003746	
41327	    0	23.994350	-34.471066	-2.739510	-0.818653	-2.012491	0.981926	0.241882	-0.343628	-0.023560	0.999928	-0.004093	-0.010062	0.004910	
41328	    0	33.093239	-26.276339	-31.427670	0.355153	-1.696608	-0.186923	0.333340	-0.262519	-0.311922	0.999962	0.001776	-0.008483	-0.000935	
41329	    0	16.751968	13.787827	-7.210059	1.766420	-0.313572	-0.312047	0.167847	0.138245	-0.070618	0.999958	0.008832	-0.001568	-0.001560	
41330	    0	7.116983	44.547776	-11.352870	1.918090	-0.465789	-1.903403	0.075669	0.445832	-0.109081	0.999906	0.009590	-0.002329	-0.009517	
41331	    0	-9.589622	64.596691	-7.926281	0.247389	-1.135282	-2.129416	-0.088562	0.647034	-0.078979	0.999926	0.001237	-0.005676	-0.010647	
41332	    0	-14.256871	39.108590	-13.395663	-1.175153	-1.125752	-2.166814	-0.137561	0.391795	-0.137041	0.999907	-0.005876	-0.005629	-0.010834	
41333	    0	7.304988	18.448310	-8.976394	-1.854633	-1.216966	-3.207601	0.076538	0.182434	-0.091003	0.999809	-0.009273	-0.006084	-0.016037	
41334	    0	42.309301	14.643063	-8.894485	-1.576094	-1.949565	-1.279492	0.424863	0.143031	-0.085945	0.999901	-0.007880	-0.009748	-0.006397	
41335	    0	42.752175	0.613622	-14.662185	-1.357118	-1.699115	-1.496168	0.428772	0.001953	-0.143005	0.999912	-0.006785	-0.008495	-0.007481	
41336	    0	19.925959	-4.315273	-10.046630	-0.078015	-1.731979	-3.422375	0.199342	-0.046602	-0.098722	0.999816	-0.000390	-0.008659	-0.017111	
41337	    0	12.459689	5.292241	-8.411357	0.833213	-1.902008	-4.436937	0.126526	0.050476	-0.082703	0.999700	0.004166	-0.009509	-0.022182	
41338	    0	22.269606	17.697030	-9.386719	0.883565	-2.179918	-4.062263	0.227234	0.172791	-0.090637	0.999724	0.004417	-0.010899	-0.020309	
41339	    0	28.920017	14.203208	-11.646829	0.592847	-2.446734	-3.330473	0.292908	0.137512	-0.112488	0.999782	0.002964	-0.012233	-0.016651	
41340	    0	26.581530	-1.148646	-7.275701	-0.765294	-2.481864	-3.722320	0.266412	-0.016711	-0.069396	0.999743	-0.003826	-0.012408	-0.018610	
41341	    0	28.166152	-11.910203	-3.264537	-1.249820	-2.363633	-4.119524	0.279480	-0.125061	-0.028564	0.999698	-0.006248	-0.011817	-0.020596	
41342	    0	27.277650	-12.196477	2.057054	-1.032538	-1.926399	-4.014937	0.270038	-0.127287	0.023829	0.999739	-0.005162	-0.009631	-0.020073	
41343	    0	25.046604	-9.275737	6.438187	-0.853033	-1.641783	-3.918001	0.248047	-0.097351	0.066833	0.999764	-0.004265	-0.008208	-0.019588	
41344	    0	21.937899	-4.017197	8.050048	-1.443792	-1.517994	-3.937475	0.217918	-0.043881	0.082466	0.999751	-0.007218	-0.007589	-0.019686	
41345	    0	18.437885	-0.916186	7.512290	-2.759058	-1.377812	-3.722744	0.183655	-0.011536	0.076538	0.999707	-0.013794	-0.006888	-0.018612	
41346	    0	14.856387	-5.540802	6.016895	-4.100151	-1.155993	-3.294771	0.147283	-0.056581	0.062175	0.999637	-0.020498	-0.005779	-0.016472	
41347	    0	12.429201	-11.520696	4.101901	-4.923944	-0.919281	-2.968254	0.122375	-0.115967	0.044434	0.999576	-0.024616	-0.004596	-0.014839	
41348	    0	9.424557	-16.296629	2.602988	-5.440028	-0.798158	-2.631213	0.091981	-0.163391	0.030841	0.999536	-0.027196	-0.003990	-0.013154	
41349	    0	8.509857	-22.741374	0.800782	-6.038189	-0.897182	-2.106842	0.082642	-0.227905	0.015259	0.999478	-0.030186	-0.004485	-0.010532	
41350	    0	8.705911	-29.096189	-1.552091	-6.369423	-0.917603	-1.611242	0.084751	-0.291940	-0.005840	0.999450	-0.031841	-0.004587	-0.008055	
41351	    0	7.618217	-35.173062	-1.783368	-5.599217	-0.425588	-1.162879	0.074158	-0.352478	-0.007812	0.999589	-0.027992	-0.002128	-0.005814	
41352	    0	4.047419	-37.342086	-0.664294	-3.296818	0.126463	-0.726353	0.039116	-0.373607	-0.000510	0.999857	-0.016483	0.000632	-0.003632	
41353	    0	1.436927	-38.835956	-1.118329	0.065613	0.591470	-0.153351	0.014038	-0.388367	-0.011353	0.999995	0.000328	0.002957	-0.000767	
41354	    0	1.463725	-36.316832	-0.924635	2.924655	0.997392	0.227937	0.014987	-0.362964	-0.014629	0.999880	0.014623	0.004987	0.001140	
41355	    0	2.473875	-26.072570	-0.148310	3.815711	1.092792	0.099189	0.024841	-0.260620	-0.006592	0.999803	0.019077	0.005464	0.000496	
41356	    0	1.917708	-13.391827	2.901151	2.829277	0.958670	-0.357832	0.019070	-0.134344	0.027021	0.999887	0.014146	0.004793	-0.001789	
41357	    0	1.349454	0.578872	4.438235	1.376360	0.705155	-0.752268	0.013672	0.005432	0.044373	0.999963	0.006882	0.003526	-0.003761	
41358	    0	4.033674	7.615076	3.253220	0.923543	0.629810	-0.205613	0.040518	0.075958	0.032756	0.999984	0.004618	0.003149	-0.001028	
41359	    0	7.414868	4.114784	4.229789	0.280955	0.981148	0.955208	0.074158	0.041443	0.041992	0.999975	0.001405	0.004906	0.004776	
41360	    0	8.387599	-1.774028	5.737533	-1.120208	1.050970	1.560052	0.084310	-0.016764	0.057029	0.999940	-0.005601	0.005255	0.007800	
41361	    0	8.846678	-3.238684	2.581082	-2.133054	0.747704	1.529741	0.088806	-0.031433	0.025818	0.999907	-0.010665	0.003738	0.007648	
41362	    0	14.797280	0.914970	-4.616938	-2.314270	0.411048	1.769130	0.147792	0.009920	-0.046585	0.999891	-0.011571	0.002055	0.008845	
41363	    0	26.444347	3.617703	-10.404631	-1.094662	0.457778	2.481157	0.263733	0.038879	-0.104858	0.999905	-0.005473	0.002289	0.012405	
41364	    0	28.264311	-1.286226	-10.127077	0.173765	0.932343	2.683158	0.282305	-0.008985	-0.102596	0.999898	0.000869	0.004662	0.013415	
41365	    0	27.463638	-5.224363	-7.823013	1.234679	1.167347	2.706261	0.274841	-0.048035	-0.080139	0.999872	0.006173	0.005836	0.013531	
41366	    0	26.331051	-2.664263	-7.371535	2.603715	1.268858	2.932756	0.263178	-0.021806	-0.075690	0.999787	0.013018	0.006344	0.014663	
41367	    0	25.208367	3.109440	-6.980188	3.672442	1.255368	3.464899	0.251038	0.036743	-0.070740	0.999661	0.018360	0.006276	0.017323	
41368	    0	25.591254	8.090244	-9.281496	3.735271	1.067493	4.064332	0.253680	0.087804	-0.092576	0.999604	0.018674	0.005337	0.020319	
41369	    0	28.816628	12.009666	-10.380642	3.021021	1.075870	4.211918	0.284973	0.127686	-0.103455	0.999649	0.015103	0.005379	0.021057	
41370	    0	30.450456	12.104634	-12.643359	2.284653	1.026444	4.125805	0.301252	0.128729	-0.126544	0.999708	0.011422	0.005132	0.020627	
41371	    0	29.666351	10.418401	-12.825403	1.274977	1.244648	4.083590	0.293640	0.111023	-0.129395	0.999751	0.006374	0.006223	0.020416	
41372	    0	25.831740	11.633142	-11.627502	0.480498	1.382551	4.010887	0.255101	0.121751	-0.117758	0.999772	0.002402	0.006912	0.020053	
41373	    0	20.195254	11.926817	-9.748772	0.180257	1.255122	3.873712	0.198975	0.123230	-0.098633	0.999792	0.000901	0.006275	0.019367	
41374	    0	15.635148	9.812818	-9.239844	0.191128	0.917109	3.696856	0.154076	0.101079	-0.093013	0.999818	0.000956	0.004585	0.018483	
41375	    0	13.119478	8.306931	-9.923084	0.399801	0.560980	3.448664	0.129456	0.085510	-0.099426	0.999845	0.001999	0.002805	0.017242	
41376	    0	11.317584	9.195812	-10.228689	0.581194	0.305952	3.140012	0.111554	0.094015	-0.102187	0.999871	0.002906	0.001530	0.015699	
41377	    0	9.603681	10.380159	-9.205996	1.059955	0.232706	2.872580	0.094421	0.105652	-0.091614	0.999882	0.005300	0.001163	0.014362	
41378	    0	8.064215	11.865903	-9.015964	1.119269	0.156026	2.589693	0.079022	0.120192	-0.089552	0.999900	0.005596	0.000780	0.012948	
41379	    0	5.925954	14.324439	-8.925413	1.178772	0.119212	2.207242	0.057617	0.144409	-0.088440	0.999921	0.005894	0.000596	0.011036	
41380	    0	2.826292	16.967692	-8.883064	0.730907	0.153925	1.751354	0.026706	0.170238	-0.088230	0.999954	0.003654	0.000770	0.008757	
41381	    0	-1.096564	20.041522	-7.749089	-0.053215	0.494389	1.291667	-0.012451	0.200317	-0.077515	0.999975	-0.000266	0.002472	0.006458	
41382	    0	-5.537488	21.410660	-4.212351	-0.602538	1.050389	1.115049	-0.056789	0.213665	-0.042472	0.999966	-0.003013	0.005252	0.005575	
41383	    0	-8.679307	17.693278	-1.239335	-1.466973	1.151300	1.297788	-0.088013	0.176270	-0.013184	0.999935	-0.007335	0.005756	0.006489	
41384	    0	-10.744877	13.132433	2.131521	-1.995141	0.896669	1.322782	-0.108222	0.130817	0.020493	0.999918	-0.009975	0.004483	0.006614	
41385	    0	-11.656766	7.576216	2.501450	-1.696808	0.381667	1.120778	-0.116943	0.075317	0.024597	0.999946	-0.008484	0.001908	0.005604	
41386	    0	-10.643815	3.750259	4.400595	-0.589945	0.398065	0.486757	-0.106441	0.037374	0.044107	0.999990	-0.002950	0.001990	0.002434	
41387	    0	-9.694720	7.889364	3.081213	0.875095	0.192452	0.171662	-0.096985	0.078674	0.031250	0.999990	0.004375	0.000962	0.000858	
41388	    0	-1.138276	9.524054	3.469584	0.886921	-0.370981	0.499919	-0.011685	0.095057	0.035096	0.999985	0.004435	-0.001855	0.002500	
41389	    0	4.974025	4.592034	8.206689	2.048743	-1.433605	0.869776	0.048950	0.045288	0.082886	0.999912	0.010243	-0.007168	0.004349	
41390	    0	4.504775	-5.711295	7.814973	1.795713	-3.665055	1.174634	0.043949	-0.057556	0.078446	0.999774	0.008978	-0.018324	0.005873	
41391	    0	5.354431	-19.526827	-9.192942	1.575871	-5.300847	1.178898	0.057129	-0.194214	-0.091980	0.999599	0.007878	-0.026501	0.005894	
41392	    0	17.367282	-27.857159	-32.077275	1.114470	0.411608	0.117493	0.173173	-0.276675	-0.322675	0.999982	0.005572	0.002058	0.000587	
41393	    0	14.120646	-25.796605	-2.056282	0.894256	4.727846	-1.152919	0.139160	-0.258667	-0.025024	0.999694	0.004471	0.023637	-0.005764	
41394	    0	6.388776	-9.181884	19.221571	2.058325	2.685111	-0.866553	0.066048	-0.094068	0.190378	0.999847	0.010291	0.013425	-0.004333	
41395	    0	5.358368	3.836646	4.007764	3.497738	1.921210	-0.245683	0.054016	0.037598	0.040222	0.999800	0.017488	0.009605	-0.001228	
41396	    0	0.242229	7.492914	20.205951	1.644784	2.800119	-0.814667	0.005557	0.073246	0.202603	0.999860	0.008224	0.014000	-0.004073	
41397	    0	3.453226	-7.567377	18.519949	0.292397	0.173187	0.096130	0.034729	-0.075928	0.185059	0.999998	0.001462	0.000866	0.000481	
41398	    0	27.322514	-29.229861	-16.931558	-0.291451	-2.206866	1.401369	0.277108	-0.290609	-0.165848	0.999913	-0.001457	-0.011034	0.007007	
41399	    0	33.380473	1.373044	-25.690386	0.029182	-0.514222	-0.130463	0.334473	0.013550	-0.256042	0.999996	0.000146	-0.002571	-0.000652	
41400	    0	16.014996	29.300220	-4.874427	-0.049591	-0.054360	-1.444257	0.162273	0.291823	-0.048773	0.999973	-0.000248	-0.000272	-0.007221	
41401	    0	1.427129	43.220498	-13.384227	-0.010491	-0.817899	-2.718445	0.020691	0.431946	-0.133789	0.999899	-0.000052	-0.004089	-0.013592	
41402	    0	-11.699352	41.465007	-11.150058	-0.776505	-1.067957	-2.348971	-0.111513	0.415543	-0.113718	0.999908	-0.003882	-0.005340	-0.011744	
41403	    0	-8.789152	19.589444	-14.520377	-0.769833	-0.940547	-2.659702	-0.084595	0.196472	-0.146362	0.999892	-0.003849	-0.004703	-0.013298	
41404	    0	13.374436	13.263411	-10.142349	-0.750762	-1.137779	-2.781025	0.136144	0.130372	-0.101146	0.999880	-0.003754	-0.005689	-0.013905	
41405	    0	48.882560	16.376282	-13.194639	-0.547614	-1.917317	-1.500741	0.491272	0.159729	-0.127686	0.999922	-0.002738	-0.009586	-0.007504	
41406	    0	33.372372	1.476715	-12.558660	-0.563074	-1.612542	-2.731823	0.334879	0.009850	-0.122922	0.999869	-0.002815	-0.008062	-0.013659	
41407	    0	15.094776	-1.200233	-9.220001	0.279259	-1.929442	-3.987449	0.151550	-0.014893	-0.090759	0.999753	0.001396	-0.009646	-0.019936	
41408	    0	11.976839	6.365679	-7.763318	0.898449	-1.966860	-4.347465	0.121873	0.061367	-0.076162	0.999704	0.004492	-0.009833	-0.021735	
41409	    0	23.905061	14.213568	-8.118422	1.060003	-2.124966	-3.823412	0.242554	0.137939	-0.077881	0.999746	0.005300	-0.010624	-0.019115	
41410	    0	30.072361	9.013773	-7.778706	0.670291	-2.281736	-3.427182	0.303071	0.085210	-0.074047	0.999782	0.003351	-0.011408	-0.017135	
41411	    0	27.163259	-4.470403	-3.658298	-0.553177	-2.303314	-3.779915	0.271118	-0.049927	-0.033325	0.999751	-0.002766	-0.011516	-0.018898	
41412	    0	28.657899	-10.640815	0.362880	-0.848080	-2.046569	-3.952555	0.284342	-0.112018	0.007013	0.999743	-0.004240	-0.010232	-0.019761	
41413	    0	27.834581	-9.946044	4.851535	-0.783408	-1.654942	-3.866872	0.275940	-0.104614	0.051208	0.999771	-0.003917	-0.008274	-0.019333	
41414	    0	24.237818	-6.326580	7.748826	-0.930284	-1.441874	-3.891857	0.240522	-0.067592	0.079535	0.999773	-0.004651	-0.007209	-0.019458	
41415	    0	20.814028	-1.361503	8.326515	-1.644838	-1.332199	-3.839419	0.207275	-0.016907	0.084778	0.999760	-0.008224	-0.006660	-0.019196	
