// Start Time: Unknown
// Update Rate: 100.0Hz
// Filter Profile: human (34.3)
// Firmware Version: 2.1.4
PacketCounter	SampleTimeFine	Acc_X	Acc_Y	Acc_Z	Gyr_X	Gyr_Y	Gyr_Z	VelInc_X	VelInc_Y	VelInc_Z	OriInc_q0	OriInc_q1	OriInc_q2	OriInc_q3	
14459	    0	56.587267	-44.795921	-17.787481	3.169449	0.128373	2.228686	0.570679	-0.438721	-0.185242	0.999812	0.015846	0.000642	0.011143	
14460	    0	28.657675	-31.179020	-14.512246	1.734961	-1.457055	0.047113	0.287710	-0.310460	-0.145726	0.999935	0.008675	-0.007285	0.000236	
14461	    0	2.081660	9.333852	-2.028628	0.477616	-1.537182	-2.281263	0.022034	0.093140	-0.019897	0.999902	0.002388	-0.007686	-0.011406	
14462	    0	-7.114221	40.738274	0.814912	2.511184	-1.269803	-2.702694	-0.065701	0.408154	0.012842	0.999809	0.012555	-0.006349	-0.013513	
14463	    0	-2.135870	37.166828	-6.615834	1.213853	-0.034142	-1.337451	-0.018860	0.372192	-0.063904	0.999959	0.006069	-0.000171	-0.006687	
14464	    0	17.340590	23.446716	-1.302234	-0.289349	0.085069	-1.732658	0.175423	0.232934	-0.013434	0.999961	-0.001447	0.000425	-0.008663	
14465	    0	31.098002	14.833350	-2.959311	-1.853851	-0.894213	-2.922214	0.313232	0.143494	-0.029541	0.999840	-0.009269	-0.004471	-0.014610	
14466	    0	28.782526	11.280445	-8.593749	-2.623000	-0.697190	-3.367687	0.289958	0.106803	-0.086356	0.999765	-0.013114	-0.003486	-0.016837	
14467	    0	16.673724	2.718814	-3.784636	-2.378017	-0.221264	-2.636095	0.167114	0.024536	-0.037964	0.999842	-0.011889	-0.001106	-0.013180	
14468	    0	11.721380	1.551367	-4.447875	-1.226646	-0.373468	-2.040722	0.117445	0.014044	-0.044349	0.999927	-0.006133	-0.001867	-0.010203	
14469	    0	16.044873	2.069534	-5.499135	0.096132	-0.138667	-2.242326	0.160706	0.018921	-0.054871	0.999936	0.000481	-0.000693	-0.011211	
14470	    0	20.393930	1.111075	-4.133865	1.496947	-0.381485	-2.672492	0.204144	0.008691	-0.040878	0.999881	0.007484	-0.001907	-0.013362	
14471	    0	21.480657	0.836004	-5.327937	1.893708	-0.958108	-2.674996	0.215149	0.005981	-0.052185	0.999854	0.009468	-0.004790	-0.013374	
14472	    0	19.527624	0.194625	-3.352369	1.347216	-1.021618	-2.661815	0.195449	-0.000433	-0.032523	0.999875	0.006736	-0.005108	-0.013309	
14473	    0	17.202835	-0.102555	-0.263299	0.570131	-0.941507	-3.001532	0.171997	-0.003601	-0.001831	0.999872	0.002851	-0.004707	-0.015007	
14474	    0	15.015984	-0.712443	1.234230	-0.021363	-0.957534	-3.204877	0.149959	-0.009527	0.013062	0.999860	-0.000107	-0.004787	-0.016024	
14475	    0	13.826741	-1.373524	0.608520	-0.746952	-0.916905	-3.125908	0.138000	-0.015869	0.006775	0.999860	-0.003735	-0.004584	-0.015629	
14476	    0	14.317495	-2.053156	-0.220606	-1.429052	-0.692209	-2.932112	0.142859	-0.022640	-0.001554	0.999861	-0.007145	-0.003461	-0.014660	
14477	    0	13.450665	-5.522454	-0.789176	-2.010258	-0.545530	-2.824547	0.133728	-0.057190	-0.006958	0.999846	-0.010051	-0.002728	-0.014122	
14478	    0	11.190242	-9.314959	-0.924526	-2.495907	-0.406097	-2.680167	0.110657	-0.094742	-0.007844	0.999830	-0.012479	-0.002030	-0.013400	
14479	    0	9.199295	-11.698572	0.134872	-2.981750	-0.154695	-2.404169	0.090576	-0.118042	0.003174	0.999816	-0.014908	-0.000773	-0.012020	
14480	    0	7.548127	-14.694782	1.191258	-3.179931	-0.037386	-2.061395	0.073960	-0.147501	0.014269	0.999820	-0.015899	-0.000187	-0.010306	
14481	    0	5.402919	-19.091397	-0.331128	-2.782559	-0.383584	-1.548833	0.052551	-0.191345	-0.000549	0.999871	-0.013912	-0.001918	-0.007744	
14482	    0	3.494963	-24.288876	-0.268138	-2.155360	-0.751897	-1.040486	0.033689	-0.243075	0.000066	0.999921	-0.010777	-0.003759	-0.005202	
14483	    0	1.849651	-26.341052	0.634071	-0.980384	-0.650601	-0.586705	0.017700	-0.263428	0.007690	0.999978	-0.004902	-0.003253	-0.002934	
14484	    0	1.363860	-23.666416	1.849639	0.194168	-0.311089	-0.112152	0.013477	-0.236690	0.018288	0.999998	0.000971	-0.001555	-0.000561	
14485	    0	2.718072	-17.428814	2.807025	0.899700	0.023651	0.253297	0.027405	-0.174377	0.027283	0.999989	0.004498	0.000118	0.001266	
14486	    0	3.492647	-11.336784	4.530654	0.880245	0.433161	0.245286	0.035163	-0.113523	0.044731	0.999987	0.004401	0.002166	0.001226	
14487	    0	4.134238	-5.209514	4.978027	0.500490	0.724223	0.164795	0.041565	-0.052185	0.049500	0.999990	0.002502	0.003621	0.000824	
14488	    0	5.976711	-2.254422	4.645142	0.153161	0.772860	0.424959	0.059994	-0.022452	0.046203	0.999990	0.000766	0.003864	0.002125	
14489	    0	7.595461	-2.985926	3.937758	-0.067902	0.693707	0.961309	0.076233	-0.029480	0.039124	0.999982	-0.000340	0.003469	0.004807	
14490	    0	7.629189	-3.385252	3.206344	-0.288585	0.599867	1.342786	0.076612	-0.033293	0.031882	0.999971	-0.001443	0.002999	0.006714	
14491	    0	7.332961	-2.861529	3.087737	-0.615508	0.550848	1.374832	0.073608	-0.028015	0.030762	0.999968	-0.003078	0.002754	0.006874	
14492	    0	7.226473	-1.761900	2.562629	-0.917827	0.550658	1.319901	0.072449	-0.017024	0.025506	0.999964	-0.004589	0.002753	0.006599	
14493	    0	7.306456	-0.756321	2.008708	-1.218244	0.637065	1.489283	0.073181	-0.006897	0.019897	0.999949	-0.006091	0.003185	0.007446	
14494	    0	7.280433	-0.160055	0.607500	-1.443325	0.693338	1.779790	0.072835	-0.000910	0.005831	0.999928	-0.007216	0.003467	0.008899	
14495	    0	7.082489	0.730543	-2.262621	-1.354826	0.593583	2.043206	0.070679	0.007874	-0.022888	0.999920	-0.006774	0.002968	0.010216	
14496	    0	7.715029	1.311516	-5.422564	-0.683609	0.351151	2.166605	0.076908	0.013763	-0.054407	0.999933	-0.003418	0.001756	0.010833	
14497	    0	10.083436	1.022534	-8.291646	0.856798	0.033761	2.017252	0.100708	0.011597	-0.082886	0.999940	0.004284	0.000169	0.010086	
14498	    0	15.216561	-2.153352	-9.638792	2.353177	-0.265703	1.619967	0.152455	-0.019165	-0.096420	0.999897	0.011765	-0.001328	0.008100	
14499	    0	25.382237	-8.518993	-10.718850	2.337145	-0.582140	1.209296	0.254639	-0.082397	-0.107422	0.999908	0.011685	-0.002911	0.006046	
14500	    0	33.954141	-8.794721	-10.282083	1.378660	-0.349624	1.734388	0.340463	-0.084289	-0.102816	0.999937	0.006893	-0.001748	0.008672	
14501	    0	28.948333	-2.876849	-8.758353	0.972208	-0.212104	2.627650	0.289917	-0.024536	-0.087402	0.999901	0.004861	-0.001060	0.013138	
14502	    0	20.102918	3.025581	-8.695220	1.412448	-0.063899	2.754321	0.200609	0.033633	-0.086658	0.999880	0.007062	-0.000319	0.013771	
14503	    0	14.739209	6.869687	-8.455487	1.863363	-0.049593	2.463629	0.146545	0.071289	-0.083862	0.999880	0.009316	-0.000248	0.012318	
14504	    0	15.222006	9.612639	-10.345124	1.693023	-0.252351	2.359855	0.151195	0.098784	-0.102431	0.999893	0.008465	-0.001262	0.011799	
14505	    0	20.329518	11.721554	-11.902350	1.232946	-0.303468	2.326270	0.202087	0.120300	-0.117981	0.999911	0.006165	-0.001517	0.011631	
14506	    0	23.035900	13.376861	-11.563743	0.883318	-0.163846	2.415533	0.228811	0.137047	-0.114849	0.999916	0.004416	-0.000819	0.012077	
14507	    0	20.482003	14.214070	-9.099416	0.506607	0.007820	2.602463	0.202942	0.145020	-0.090637	0.999911	0.002533	0.000039	0.013012	
14508	    0	16.662411	14.551797	-6.373405	0.210578	-0.030709	2.741900	0.164618	0.147851	-0.063554	0.999905	0.001053	-0.000154	0.013709	
14509	    0	12.650314	13.488660	-4.398588	0.078585	-0.076868	2.505559	0.124817	0.136475	-0.043884	0.999921	0.000393	-0.000384	0.012527	
14510	    0	9.519187	11.580039	-2.758185	0.119402	-0.007630	1.949532	0.094058	0.116737	-0.027509	0.999951	0.000597	-0.000038	0.009748	
14511	    0	7.858131	9.804969	-2.258402	0.201417	0.094796	1.277933	0.077942	0.098572	-0.022522	0.999978	0.001007	0.000474	0.006390	
14512	    0	6.721732	9.581752	-1.592942	0.125122	0.213052	0.833705	0.066800	0.096107	-0.015941	0.999990	0.000626	0.001065	0.004169	
14513	    0	5.775907	9.939219	-0.525277	0.226593	0.166512	0.521851	0.057495	0.099548	-0.005188	0.999995	0.001133	0.000833	0.002609	
14514	    0	3.185062	8.338174	3.909745	1.761652	-0.071336	0.527199	0.031617	0.083117	0.039842	0.999957	0.008808	-0.000357	0.002636	
14515	    0	2.505778	3.968534	4.857191	2.555350	-0.474562	0.510421	0.024841	0.039124	0.049133	0.999912	0.012776	-0.002373	0.002552	
14516	    0	4.374514	2.602753	2.924211	1.944574	-0.479897	0.051118	0.043668	0.025752	0.029598	0.999949	0.009723	-0.002399	0.000256	
14517	    0	5.488422	6.952617	0.850808	0.502016	0.055123	-0.833896	0.055176	0.069275	0.008667	0.999988	0.002510	0.000276	-0.004169	
14518	    0	3.329831	10.380666	2.366268	0.308230	0.184251	-1.264772	0.033976	0.103557	0.023791	0.999978	0.001541	0.000921	-0.006324	
14519	    0	1.433314	7.317616	4.536878	0.454143	-0.810248	-1.033791	0.014526	0.072998	0.045593	0.999975	0.002271	-0.004051	-0.005169	
14520	    0	1.480000	1.856724	5.075022	-0.560006	-1.750781	-0.280003	0.014381	0.018689	0.050825	0.999956	-0.002800	-0.008754	-0.001400	
14521	    0	2.871850	-8.647262	3.934143	-1.054401	-1.694328	0.566111	0.028625	-0.086182	0.040039	0.999946	-0.005272	-0.008471	0.002831	
14522	    0	4.034008	-19.069549	-4.880437	-0.728613	-0.736624	0.993356	0.041465	-0.190667	-0.047958	0.999974	-0.003643	-0.003683	0.004967	
14523	    0	3.429680	-25.925702	-12.319211	-0.476076	-0.092125	0.854496	0.035461	-0.259399	-0.122559	0.999988	-0.002380	-0.000461	0.004272	
14524	    0	4.170379	-23.198447	-8.694028	0.408370	1.924929	0.514039	0.041457	-0.231699	-0.087813	0.999948	0.002042	0.009624	0.002570	
14525	    0	3.042693	-12.307049	2.648690	0.039865	2.605512	0.187688	0.030884	-0.123047	0.026062	0.999914	0.000199	0.013027	0.000938	
14526	    0	2.791486	-4.246403	6.868514	-0.376895	1.246270	0.061989	0.028356	-0.042326	0.068589	0.999978	-0.001884	0.006231	0.000310	
14527	    0	2.828617	2.778574	4.514667	-0.920872	0.248147	0.155640	0.028320	0.028015	0.044983	0.999988	-0.004604	0.001241	0.000778	
14528	    0	2.876338	7.714606	3.886432	-1.537911	0.055314	0.314906	0.028652	0.077487	0.038261	0.999969	-0.007689	0.000277	0.001575	
14529	    0	2.441159	8.980574	2.732909	-1.827839	0.142672	0.308232	0.024292	0.090088	0.026489	0.999956	-0.009139	0.000713	0.001541	
14530	    0	2.810079	7.653660	0.195695	-1.140793	0.571636	0.101281	0.028067	0.076560	0.001440	0.999979	-0.005704	0.002858	0.000506	
14531	    0	3.729538	2.318065	0.830008	-0.961312	1.033982	-0.140382	0.037354	0.023193	0.007996	0.999974	-0.004807	0.005170	-0.000702	
14532	    0	6.944642	-8.308485	-11.247698	-1.338780	-0.542836	0.300219	0.069876	-0.083730	-0.111729	0.999972	-0.006694	-0.002714	0.001501	
14533	    0	21.464176	-19.896446	-20.829291	2.070083	0.218968	0.128176	0.214539	-0.196655	-0.210571	0.999945	0.010350	0.001095	0.000641	
14534	    0	29.426664	-13.393578	-24.389122	2.350487	-0.614373	-0.593964	0.294623	-0.131939	-0.244545	0.999922	0.011752	-0.003072	-0.002970	
14535	    0	19.838127	2.319228	-11.652831	0.163272	-1.771387	-1.074238	0.199524	0.022217	-0.114746	0.999946	0.000816	-0.008857	-0.005371	
14536	    0	6.151310	13.879139	11.292674	-0.523387	-0.993177	-1.937334	0.062295	0.138486	0.112872	0.999937	-0.002617	-0.004966	-0.009686	
14537	    0	1.014174	26.781229	4.068274	1.425397	-0.219732	-1.989033	0.012756	0.267395	0.042603	0.999924	0.007127	-0.001099	-0.009945	
14538	    0	9.899383	22.692657	-3.280461	1.054787	-0.190358	-2.054833	0.101350	0.226062	-0.031515	0.999932	0.005274	-0.000952	-0.010274	
14539	    0	20.696293	24.032793	-2.190314	0.454730	-0.407235	-2.992365	0.210571	0.237244	-0.020935	0.999883	0.002274	-0.002036	-0.014961	
14540	    0	25.404249	24.259220	-7.972532	-0.689737	-0.844813	-3.532611	0.258607	0.237777	-0.079465	0.999828	-0.003448	-0.004224	-0.017662	
14541	    0	19.429051	11.530860	-7.656180	-1.881512	-0.360699	-3.080155	0.196167	0.111572	-0.077271	0.999835	-0.009407	-0.001803	-0.015400	
14542	    0	17.285140	3.891838	-5.015874	-1.707712	-0.208862	-2.418416	0.173354	0.036395	-0.050296	0.999889	-0.008538	-0.001044	-0.012092	
14543	    0	20.737433	0.115284	-4.929042	-0.198369	-0.621621	-2.417818	0.207520	-0.001404	-0.048645	0.999921	-0.000992	-0.003108	-0.012089	
14544	    0	20.578813	0.163104	-4.270182	1.924047	-1.038035	-2.867282	0.206005	-0.000917	-0.041634	0.999837	0.009620	-0.005190	-0.014336	
14545	    0	18.633213	0.610511	-3.478010	2.349454	-1.439010	-3.176351	0.186646	0.003540	-0.033386	0.999779	0.011746	-0.007195	-0.015881	
14546	    0	17.620420	0.793872	-3.485677	1.522926	-1.557261	-3.294777	0.176570	0.005290	-0.033436	0.999804	0.007614	-0.007786	-0.016473	
14547	    0	17.761865	-0.250407	-1.286025	0.006867	-1.216767	-3.503619	0.177612	-0.005615	-0.011780	0.999827	0.000034	-0.006083	-0.017517	
14548	    0	16.415922	-1.567677	-0.182600	-0.864656	-0.974335	-3.664629	0.163841	-0.018686	-0.000951	0.999810	-0.004323	-0.004871	-0.018322	
14549	    0	14.708875	-3.821363	-1.064327	-1.594451	-0.512727	-3.460907	0.146423	-0.040833	-0.009949	0.999815	-0.007972	-0.002563	-0.017303	
14550	    0	13.740767	-5.915229	-0.566455	-2.166498	-0.180065	-3.134536	0.136462	-0.061352	-0.004885	0.999818	-0.010832	-0.000900	-0.015672	
14551	    0	12.177842	-7.868640	0.338983	-2.419418	-0.065426	-2.784124	0.120667	-0.080322	0.004395	0.999829	-0.012096	-0.000327	-0.013920	
14552	    0	9.913919	-10.030051	0.863960	-2.576387	0.194941	-2.363707	0.097955	-0.101341	0.009845	0.999846	-0.012881	0.000975	-0.011818	
14553	    0	7.425984	-12.300694	1.908323	-2.922780	0.361652	-1.908209	0.073120	-0.123413	0.020752	0.999846	-0.014613	0.001808	-0.009541	
14554	    0	6.353024	-15.124201	2.439980	-3.263650	0.223553	-1.510130	0.062417	-0.151292	0.026798	0.999837	-0.016317	0.001118	-0.007550	
14555	    0	6.778382	-18.694612	1.334174	-3.045787	-0.134855	-1.070451	0.066772	-0.187073	0.016235	0.999869	-0.015228	-0.000674	-0.005352	
14556	    0	6.729514	-21.645654	-1.356697	-2.205898	-0.410852	-0.565732	0.066707	-0.216777	-0.011040	0.999932	-0.011029	-0.002054	-0.002829	
14557	    0	5.868834	-22.242417	-3.439736	-1.115234	-0.464633	-0.154878	0.058594	-0.222656	-0.033020	0.999981	-0.005576	-0.002323	-0.000774	
14558	    0	5.501838	-20.767381	-2.999493	-0.376893	-0.402833	0.218964	0.055305	-0.207669	-0.029492	0.999995	-0.001884	-0.002014	0.001095	
14559	    0	5.458942	-18.037696	-0.206528	-0.143242	0.061798	0.515748	0.055054	-0.180237	-0.001953	0.999996	-0.000716	0.000309	0.002579	
14560	    0	4.071685	-13.212460	1.745998	-0.020027	0.586320	0.529863	0.041118	-0.132014	0.017353	0.999991	-0.000100	0.002932	0.002649	
14561	    0	3.291576	-7.242162	4.016597	-0.237275	0.916485	0.286103	0.033203	-0.072327	0.040100	0.999988	-0.001186	0.004582	0.001431	
14562	    0	4.658058	-1.577828	5.819691	-0.824744	1.060494	0.291827	0.046911	-0.015471	0.058013	0.999976	-0.004124	0.005302	0.001459	
14563	    0	6.284537	0.642998	4.927619	-1.018343	0.926218	0.689704	0.063049	0.006897	0.048950	0.999969	-0.005092	0.004631	0.003448	
14564	    0	6.506192	-0.323322	3.113501	-1.180475	0.723277	1.213472	0.065191	-0.002655	0.030916	0.999957	-0.005902	0.003616	0.006067	
14565	    0	5.779208	-1.607775	2.528914	-1.296828	0.633251	1.419855	0.057983	-0.015503	0.025208	0.999949	-0.006484	0.003166	0.007099	
14566	    0	5.124196	-1.033674	1.497592	-1.432824	0.527200	1.303504	0.051347	-0.009895	0.014913	0.999949	-0.007164	0.002636	0.006517	
14567	    0	5.584484	-0.303623	-0.716731	-1.516749	0.420577	1.233694	0.055847	-0.002747	-0.007263	0.999949	-0.007584	0.002103	0.006168	
14568	    0	6.973532	0.163697	-3.111392	-1.455903	0.300985	1.334403	0.069676	0.001875	-0.031232	0.999949	-0.007279	0.001505	0.006672	
14569	    0	9.504728	1.063422	-5.484936	-0.737008	0.216868	1.425186	0.094910	0.011108	-0.054993	0.999967	-0.003685	0.001084	0.007126	
14570	    0	13.308500	1.579583	-7.284301	0.628096	0.143625	1.402678	0.132916	0.016957	-0.072886	0.999969	0.003140	0.000718	0.007013	
14571	    0	19.010861	0.482248	-7.273313	1.871721	0.017548	1.274136	0.190063	0.006714	-0.072693	0.999935	0.009358	0.000088	0.006371	
14572	    0	27.479406	-3.234803	-6.650313	2.140103	-0.138668	1.390876	0.275053	-0.029723	-0.066640	0.999918	0.010700	-0.000693	0.006954	
14573	    0	32.317565	-4.704175	-5.950386	1.748897	-0.238044	1.894432	0.323669	-0.043457	-0.059509	0.999916	0.008744	-0.001190	0.009472	
14574	    0	24.251473	-2.368022	-6.675057	1.631604	-0.451676	2.394190	0.242921	-0.020231	-0.066377	0.999892	0.008158	-0.002258	0.011971	
14575	    0	16.458516	0.041253	-7.638527	2.034848	-0.304998	2.486528	0.164673	0.003235	-0.076111	0.999869	0.010174	-0.001525	0.012432	
14576	    0	13.928033	1.886525	-8.101675	2.502757	-0.277342	2.369426	0.139148	0.021524	-0.080565	0.999850	0.012513	-0.001387	0.011847	
14577	    0	16.646767	4.721431	-11.119049	2.396697	-0.444052	2.330127	0.166138	0.050476	-0.110229	0.999857	0.011983	-0.002220	0.011650	
14578	    0	22.542469	8.804433	-14.412492	1.764745	-0.495166	2.380651	0.224700	0.091986	-0.142768	0.999887	0.008823	-0.002476	0.011903	
14579	    0	26.103584	13.463674	-14.781781	1.381925	-0.294505	2.604771	0.259460	0.139038	-0.146484	0.999889	0.006909	-0.001472	0.013023	
14580	    0	23.926570	16.633246	-12.344363	1.170972	0.080875	3.006684	0.236672	0.170623	-0.122549	0.999869	0.005855	0.000404	0.015033	
14581	    0	18.645365	16.472706	-9.028087	0.745618	0.267041	3.281558	0.183594	0.168091	-0.089905	0.999857	0.003728	0.001335	0.016407	
14582	    0	14.018824	13.851732	-5.896481	0.324072	0.195130	3.166142	0.137914	0.140808	-0.058873	0.999872	0.001620	0.000976	0.015830	
14583	    0	11.121828	10.548328	-3.565422	0.305186	0.055887	2.754300	0.109741	0.107056	-0.035522	0.999904	0.001526	0.000279	0.013771	
14584	    0	9.780123	7.974062	-2.353911	0.607695	0.074579	2.259497	0.096883	0.080910	-0.023331	0.999931	0.003038	0.000373	0.011297	
14585	    0	8.956378	6.702287	-1.821267	1.002712	0.158694	1.837192	0.088928	0.067932	-0.017944	0.999945	0.005013	0.000793	0.009186	
14586	    0	8.089394	6.816471	-1.445222	1.350046	0.181583	1.569585	0.080342	0.068892	-0.014062	0.999946	0.006750	0.000908	0.007848	
14587	    0	6.911446	9.170705	-2.939992	1.380369	0.307469	1.277180	0.068481	0.092346	-0.028870	0.999954	0.006902	0.001537	0.006386	
14588	    0	4.462420	13.606310	-0.579481	1.314563	0.410276	1.177995	0.043811	0.136357	-0.004990	0.999958	0.006573	0.002051	0.005890	
14589	    0	2.278210	13.824405	2.715325	1.895374	0.182347	1.297026	0.021912	0.138123	0.028442	0.999933	0.009477	0.000912	0.006485	
14590	    0	1.864118	10.374603	6.126229	2.325892	-0.142293	1.392217	0.017878	0.103150	0.062477	0.999907	0.011629	-0.000711	0.006961	
14591	    0	2.490078	6.851506	5.924251	1.754791	-0.277524	1.004809	0.024475	0.068115	0.059875	0.999948	0.008774	-0.001388	0.005024	
14592	    0	2.288389	6.045711	3.445140	0.246048	0.015831	0.297737	0.022797	0.060449	0.034524	0.999998	0.001230	0.000079	0.001489	
14593	    0	0.869411	5.047575	4.019805	-0.333405	0.313759	-0.126648	0.008789	0.050537	0.040100	0.999997	-0.001667	0.001569	-0.000633	
14594	    0	-0.347004	1.492540	3.758615	-0.089455	-0.214958	-0.216484	-0.003494	0.014946	0.037576	0.999998	-0.000447	-0.001075	-0.001082	
14595	    0	-1.635482	-0.416484	1.053096	-0.590329	-1.295482	0.200655	-0.016418	-0.004150	0.010437	0.999973	-0.002952	-0.006477	0.001003	
14596	    0	-1.606190	-5.661810	-1.023868	-1.110485	-1.997996	0.753421	-0.015747	-0.056734	-0.010082	0.999928	-0.005552	-0.009990	0.003767	
14597	    0	1.993863	-11.710206	-2.997473	-0.776494	-1.586177	0.884261	0.020691	-0.117126	-0.029358	0.999950	-0.003882	-0.007931	0.004421	
14598	    0	3.229356	-14.053404	-8.621995	-1.267448	-0.774202	0.789079	0.033180	-0.140946	-0.085200	0.999964	-0.006337	-0.003871	0.003945	
14599	    0	4.213438	-15.232924	-9.769803	-0.946814	0.330546	0.664524	0.042480	-0.152649	-0.097046	0.999982	-0.004734	0.001653	0.003323	
14600	    0	6.170725	-15.899164	-3.657542	0.553141	1.942288	0.432022	0.061688	-0.158755	-0.037614	0.999947	0.002766	0.009711	0.002160	
14601	    0	6.934461	-10.516511	3.668695	0.777450	1.993790	0.230412	0.069824	-0.105225	0.035583	0.999942	0.003887	0.009969	0.001152	
14602	    0	6.072104	-2.246126	5.296705	0.253106	0.877574	0.276757	0.060984	-0.022444	0.052671	0.999989	0.001266	0.004388	0.001384	
14603	    0	3.995900	5.342252	3.468451	-0.399590	0.158692	0.487519	0.039856	0.053589	0.034546	0.999994	-0.001998	0.000793	0.002438	
14604	    0	2.580578	9.068652	1.978013	-0.416947	0.175286	0.582887	0.025558	0.090802	0.019568	0.999992	-0.002085	0.000876	0.002914	
14605	    0	2.456711	7.813001	-0.210717	1.043708	0.578503	0.377657	0.024414	0.078186	-0.001770	0.999980	0.005219	0.002892	0.001888	
14606	    0	1.080403	7.596472	2.769729	0.855645	1.123058	-0.548177	0.011168	0.075815	0.027960	0.999970	0.004278	0.005615	-0.002741	
14607	    0	1.030586	7.845134	-0.067763	-1.141185	0.650035	-1.432823	0.010864	0.078369	-0.001160	0.999952	-0.005706	0.003250	-0.007164	
14608	    0	7.515541	-8.395148	-11.303611	-1.929892	-0.533877	-0.727477	0.075147	-0.085309	-0.112017	0.999943	-0.009649	-0.002669	-0.003637	
14609	    0	34.909656	-29.971771	-9.454029	1.145378	0.630959	1.203934	0.350586	-0.297058	-0.097351	0.999960	0.005727	0.003155	0.006020	
14610	    0	38.030917	-30.446165	-4.265486	1.248373	0.008965	1.000224	0.381823	-0.302280	-0.044563	0.999968	0.006242	0.000045	0.005001	
14611	    0	15.515090	-1.091259	-0.208805	0.022316	-1.120008	-1.197065	0.155090	-0.011841	-0.001221	0.999966	0.000112	-0.005600	-0.005985	
14612	    0	-0.367838	27.709239	1.969372	1.065488	-1.181269	-2.680315	-0.000088	0.276999	0.021162	0.999878	0.005327	-0.005906	-0.013401	
14613	    0	-2.848499	34.738429	-2.666357	1.123071	-0.525486	-1.917308	-0.025085	0.347778	-0.024780	0.999934	0.005615	-0.002627	-0.009586	
14614	    0	7.990470	25.955572	-4.586374	-0.506977	0.090790	-1.136215	0.081356	0.258979	-0.046557	0.999980	-0.002535	0.000454	-0.005681	
14615	    0	20.222124	15.571969	-4.708450	-1.264790	-0.445566	-1.825753	0.203735	0.153564	-0.047607	0.999935	-0.006324	-0.002228	-0.009129	
14616	    0	23.088390	11.757492	-10.906351	-2.500880	-0.897272	-2.794057	0.232974	0.112963	-0.109453	0.999814	-0.012504	-0.004486	-0.013969	
14617	    0	19.474649	6.145209	-12.130857	-2.726923	-0.161563	-2.851290	0.195679	0.057007	-0.121948	0.999804	-0.013634	-0.000808	-0.014256	
14618	    0	17.247752	1.798688	-7.996942	-2.508101	0.073818	-2.448589	0.172643	0.014869	-0.080233	0.999846	-0.012540	0.000369	-0.012242	
14619	    0	18.498211	1.385033	-7.701458	-1.562551	-0.154691	-2.312545	0.185181	0.011108	-0.076965	0.999902	-0.007812	-0.000773	-0.011562	
14620	    0	20.801436	-1.778225	-6.344241	0.212866	-0.266083	-2.642710	0.207840	-0.020462	-0.063187	0.999910	0.001064	-0.001330	-0.013213	
14621	    0	20.218313	-2.823773	-5.716869	1.406927	-0.791778	-2.954241	0.201965	-0.030823	-0.056580	0.999858	0.007034	-0.003959	-0.014771	
14622	    0	20.043689	-2.536440	-5.015526	1.653576	-1.129406	-3.140822	0.200290	-0.028101	-0.049249	0.999826	0.008267	-0.005647	-0.015703	
14623	    0	19.973513	-3.152416	-2.422349	1.290975	-1.129031	-3.489142	0.199280	-0.034851	-0.023315	0.999810	0.006454	-0.005645	-0.017445	
14624	    0	17.584698	-3.597197	0.088452	0.489455	-1.022592	-3.645355	0.175145	-0.039172	0.001688	0.999817	0.002447	-0.005113	-0.018226	
14625	    0	14.305935	-3.509682	1.564533	-0.427270	-0.888684	-3.556263	0.142334	-0.037598	0.016357	0.999829	-0.002136	-0.004443	-0.017780	
14626	    0	12.819200	-2.903280	1.526529	-0.993020	-0.724832	-3.418157	0.127615	-0.031139	0.015880	0.999835	-0.004965	-0.003624	-0.017090	
14627	    0	12.078659	-3.868542	1.551335	-1.459387	-0.513485	-3.152628	0.120117	-0.040466	0.016113	0.999846	-0.007297	-0.002567	-0.015762	
14628	    0	11.351931	-5.575471	1.214916	-1.869100	-0.298324	-2.806798	0.112704	-0.057222	0.012848	0.999856	-0.009345	-0.001492	-0.014033	
14629	    0	9.902364	-6.650754	1.525602	-2.522407	-0.020410	-2.430849	0.098206	-0.067505	0.016113	0.999846	-0.012611	-0.000102	-0.012154	
14630	    0	8.338979	-8.064580	1.809653	-2.982496	0.213635	-2.091524	0.082562	-0.081231	0.019217	0.999833	-0.014912	0.001068	-0.010457	
14631	    0	7.064309	-11.907350	2.519741	-2.709315	0.226794	-1.730422	0.069641	-0.119324	0.026733	0.999869	-0.013546	0.001134	-0.008652	
14632	    0	6.407471	-16.261628	1.915332	-2.017642	-0.034905	-1.302560	0.063011	-0.162825	0.020806	0.999928	-0.010088	-0.000175	-0.006513	
14633	    0	6.307987	-18.371513	-0.711161	-1.367012	-0.374608	-0.842295	0.062317	-0.184021	-0.005737	0.999966	-0.006835	-0.001873	-0.004211	
14634	    0	6.093591	-19.101604	-2.909603	-0.846486	-0.568393	-0.439646	0.060596	-0.191270	-0.028114	0.999984	-0.004232	-0.002842	-0.002198	
14635	    0	5.964491	-19.522611	-2.810630	-0.469018	-0.407410	-0.071716	0.059631	-0.195312	-0.027527	0.999994	-0.002345	-0.002037	-0.000359	
14636	    0	4.833030	-18.484710	-1.024913	-0.166702	0.013924	0.244331	0.048555	-0.184796	-0.010098	0.999998	-0.000834	0.000070	0.001222	
14637	    0	3.744035	-14.736380	1.795314	-0.102997	0.449563	0.407410	0.037781	-0.147278	0.017944	0.999995	-0.000515	0.002248	0.002037	
14638	    0	3.481553	-8.828151	4.745872	-0.238419	0.752261	0.454523	0.035194	-0.088145	0.047432	0.999990	-0.001192	0.003761	0.002273	
14639	    0	3.940241	-3.284805	5.157578	-0.129700	0.729563	0.504305	0.039673	-0.032715	0.051453	0.999990	-0.000648	0.003648	0.002522	
14640	    0	5.032291	-1.531637	4.237217	-0.125695	0.640491	0.826077	0.050521	-0.015081	0.042220	0.999986	-0.000628	0.003202	0.004130	
14641	    0	5.831082	-1.885398	3.518085	-0.315860	0.602155	1.251994	0.058533	-0.018433	0.035034	0.999974	-0.001579	0.003011	0.006260	
14642	    0	6.217572	-2.004266	3.387768	-0.717363	0.591095	1.527044	0.062426	-0.019445	0.033764	0.999960	-0.003587	0.002955	0.007635	
14643	    0	6.723631	-1.537745	3.086325	-1.190779	0.564585	1.619750	0.067444	-0.014648	0.030762	0.999945	-0.005954	0.002823	0.008099	
14644	    0	7.438013	-0.905297	1.560765	-1.389725	0.538075	1.764146	0.074497	-0.008288	0.015467	0.999933	-0.006948	0.002690	0.008821	
14645	    0	8.350361	-0.742424	-0.419597	-1.302369	0.583090	1.914261	0.083557	-0.006653	-0.004395	0.999928	-0.006512	0.002915	0.009571	
14646	    0	10.074246	-0.031258	-2.840639	-0.657476	0.567829	1.976433	0.100658	0.000588	-0.028693	0.999941	-0.003287	0.002839	0.009882	
14647	    0	13.022293	1.193358	-4.852943	0.434310	0.408179	1.853209	0.130005	0.013245	-0.048767	0.999952	0.002172	0.002041	0.009266	
14648	    0	17.820532	0.703054	-5.372718	1.523812	0.180820	1.591333	0.178091	0.008858	-0.053825	0.999938	0.007619	0.000904	0.007957	
14649	    0	25.070738	-2.702505	-5.661182	1.654085	-0.096704	1.416044	0.250916	-0.024780	-0.056702	0.999940	0.008270	-0.000484	0.007080	
14650	    0	31.249053	-3.827412	-5.649388	1.025980	-0.137522	1.692227	0.312837	-0.035338	-0.056465	0.999950	0.005130	-0.000688	0.008461	
14651	    0	26.499926	-0.977691	-6.194664	0.528731	-0.150112	2.417817	0.265137	-0.006409	-0.061768	0.999923	0.002644	-0.000751	0.012089	
14652	    0	19.286827	2.013242	-6.868510	0.564594	-0.086406	2.778146	0.192592	0.023003	-0.068540	0.999899	0.002823	-0.000432	0.013890	
14653	    0	15.780061	4.431429	-6.764309	0.785092	-0.179106	2.761936	0.157227	0.046753	-0.067322	0.999896	0.003925	-0.000896	0.013809	
14654	    0	15.732542	7.933659	-9.005782	0.793868	-0.529500	2.850068	0.156407	0.081925	-0.089321	0.999887	0.003969	-0.002647	0.014250	
14655	    0	19.417357	10.523003	-13.009589	0.550102	-0.735313	2.971006	0.193054	0.108459	-0.129089	0.999879	0.002750	-0.003676	0.014854	
14656	    0	22.864023	12.749141	-14.623629	0.304426	-0.607897	3.095756	0.227071	0.131236	-0.145347	0.999874	0.001522	-0.003039	0.015478	
14657	    0	22.376486	14.820458	-13.017614	0.181016	-0.360888	3.399824	0.221436	0.152100	-0.129639	0.999853	0.000905	-0.001804	0.016998	
14658	    0	19.207052	15.212529	-10.649341	0.077824	-0.259033	3.700850	0.189349	0.155687	-0.106187	0.999827	0.000389	-0.001295	0.018503	
14659	    0	15.133972	12.915374	-8.796115	-0.091558	-0.337047	3.633319	0.149109	0.131836	-0.087769	0.999833	-0.000458	-0.001685	0.018166	
14660	    0	11.576405	9.587156	-7.107639	0.038912	-0.369088	3.189224	0.114347	0.097716	-0.070846	0.999870	0.000195	-0.001845	0.015945	
14661	    0	9.517016	7.095490	-5.540843	0.499931	-0.241096	2.608567	0.094299	0.072327	-0.055115	0.999910	0.002500	-0.001205	0.013042	
14662	    0	8.881949	6.242944	-4.776922	1.142336	0.004006	2.000853	0.088186	0.063585	-0.047410	0.999933	0.005712	0.000020	0.010004	
14663	    0	8.312950	8.281331	-4.515864	1.709975	0.267797	1.464112	0.082458	0.083801	-0.044556	0.999935	0.008550	0.001339	0.007320	
14664	    0	6.935379	10.591633	-2.334981	2.465513	0.350009	1.031907	0.068766	0.106550	-0.022160	0.999908	0.012327	0.001750	0.005159	
14665	    0	4.852174	14.143237	-2.690559	2.488205	0.271614	0.637835	0.048035	0.141907	-0.025208	0.999916	0.012441	0.001358	0.003189	
14666	    0	2.200201	17.681184	-0.657405	2.395118	0.140194	0.540175	0.021521	0.176932	-0.004471	0.999924	0.011975	0.000701	0.002701	
14667	    0	1.227314	14.284189	2.246836	1.955446	-0.018120	0.431831	0.011963	0.142639	0.023865	0.999949	0.009777	-0.000091	0.002159	
14668	    0	0.550158	9.042250	4.755605	1.079374	-0.215150	0.109482	0.005401	0.090167	0.048049	0.999984	0.005397	-0.001076	0.000547	
14669	    0	0.077763	6.257558	3.616905	0.074768	-0.358391	-0.257874	0.000793	0.062561	0.036194	0.999997	0.000374	-0.001792	-0.001289	
14670	    0	1.424894	2.747861	4.303624	0.106240	-0.414468	-0.608255	0.014243	0.027412	0.043080	0.999992	0.000531	-0.002072	-0.003041	
14671	    0	3.019211	-3.500363	4.276138	0.408175	-0.639919	-0.842290	0.029907	-0.035217	0.042786	0.999984	0.002041	-0.003200	-0.004211	
14672	    0	3.790436	-7.526508	2.425899	0.560383	-1.023682	-0.651364	0.037535	-0.075456	0.024240	0.999977	0.002802	-0.005118	-0.003257	
14673	    0	2.817709	-11.133509	1.863986	1.101124	-1.154340	-0.100709	0.028015	-0.111450	0.018188	0.999968	0.005506	-0.005772	-0.000504	
14674	    0	3.295232	-15.714359	0.885613	2.062838	-0.579654	0.258260	0.033133	-0.157182	0.007331	0.999941	0.010314	-0.002898	0.001291	
14675	    0	4.158701	-17.613652	-1.290555	1.840237	0.298504	0.206760	0.041748	-0.175964	-0.014587	0.999955	0.009201	0.001493	0.001034	
14676	    0	4.983871	-16.638207	-5.027529	0.940327	0.521281	0.116349	0.049803	-0.166114	-0.051187	0.999985	0.004702	0.002606	0.000582	
14677	    0	7.885966	-14.435938	-3.884285	0.997172	1.212514	-0.008392	0.078613	-0.144165	-0.040039	0.999969	0.004986	0.006063	-0.000042	
14678	    0	8.323706	-8.072011	2.116393	0.848207	1.368156	0.031090	0.083390	-0.080794	0.020251	0.999968	0.004241	0.006841	0.000155	
14679	    0	6.164318	-1.405596	4.374932	0.096130	0.529671	0.125885	0.061768	-0.014038	0.043579	0.999995	0.000481	0.002648	0.000629	
14680	    0	3.262222	4.211365	2.225219	-0.678064	0.030136	0.168991	0.032590	0.042216	0.022104	0.999993	-0.003390	0.000151	0.000845	
14681	    0	1.772615	7.798566	1.186871	-0.987057	0.101471	0.238038	0.017639	0.078064	0.011475	0.999987	-0.004935	0.000507	0.001190	
14682	    0	2.137403	8.521106	0.897230	-0.202179	0.257874	0.316239	0.021251	0.085254	0.008859	0.999997	-0.001011	0.001289	0.001581	
14683	    0	3.346627	5.052660	1.849879	1.245132	1.175895	0.024414	0.033569	0.050415	0.018616	0.999963	0.006226	0.005879	0.000122	
14684	    0	-0.034460	5.831409	5.351543	0.320821	1.541351	-0.986686	0.000356	0.058228	0.053608	0.999956	0.001604	0.007707	-0.004933	
14685	    0	-1.910990	-3.073418	-5.022311	-1.324291	-0.314336	-1.262683	-0.019226	-0.030945	-0.050049	0.999956	-0.006621	-0.001572	-0.006313	
14686	    0	13.741142	-23.474927	-14.126686	1.012616	-0.420191	-0.086976	0.137608	-0.234091	-0.142164	0.999985	0.005063	-0.002101	-0.000435	
14687	    0	35.138023	-20.325384	-7.205207	2.237186	0.711841	0.745411	0.351868	-0.201111	-0.075562	0.999924	0.011186	0.003559	0.003727	
14688	    0	28.715440	-2.768812	-6.309830	0.525860	-1.181802	0.205804	0.287549	-0.027229	-0.061472	0.999978	0.002629	-0.005909	0.001029	
14689	    0	9.552165	17.482718	-3.585155	0.373277	-1.648752	-1.696818	0.097290	0.174072	-0.034729	0.999928	0.001866	-0.008244	-0.008484	
14690	    0	-1.594757	32.326715	-4.909899	1.209680	-0.964387	-2.333336	-0.011942	0.323711	-0.047206	0.999902	0.006048	-0.004822	-0.011666	
14691	    0	2.565521	27.928970	-6.919263	-0.656711	-0.293736	-1.837188	0.028320	0.278809	-0.070068	0.999950	-0.003284	-0.001469	-0.009186	
14692	    0	15.953629	16.352501	-3.667953	-1.090840	-0.365457	-2.188166	0.161379	0.161564	-0.037271	0.999923	-0.005454	-0.001827	-0.010941	
14693	    0	23.820986	13.213350	-5.686657	-1.689989	-0.848237	-2.751287	0.240234	0.128357	-0.056946	0.999860	-0.008450	-0.004241	-0.013756	
14694	    0	23.674078	10.161710	-6.940362	-2.313558	-0.531990	-2.885796	0.238352	0.097379	-0.069914	0.999825	-0.011567	-0.002660	-0.014428	
14695	    0	19.608700	3.742125	-4.521820	-1.824832	-0.321210	-2.445317	0.196594	0.034607	-0.045227	0.999882	-0.009124	-0.001606	-0.012226	
14696	    0	20.221510	1.040543	-3.922574	-0.846311	-0.371561	-2.238710	0.202386	0.007976	-0.038887	0.999927	-0.004231	-0.001858	-0.011193	
14697	    0	21.614913	-1.787071	-4.919015	0.561539	-0.611703	-2.397983	0.216064	-0.020325	-0.048584	0.999919	0.002808	-0.003058	-0.011990	
14698	    0	21.107368	-1.282929	-5.782927	1.467768	-0.905839	-2.714083	0.211137	-0.015274	-0.056979	0.999870	0.007339	-0.004529	-0.013570	
14699	    0	19.969881	0.115734	-5.537020	1.678748	-1.175753	-2.959602	0.200012	-0.001343	-0.054199	0.999838	0.008393	-0.005878	-0.014797	
14700	    0	19.061808	-1.038728	-4.604795	1.371650	-1.110901	-3.173812	0.190677	-0.013102	-0.045073	0.999835	0.006858	-0.005554	-0.015868	
14701	    0	18.220495	-3.219451	-2.481097	0.521113	-0.936745	-3.258674	0.181763	-0.035095	-0.024048	0.999852	0.002605	-0.004683	-0.016293	
14702	    0	17.248170	-2.927735	-0.197702	-0.370235	-0.858159	-3.319142	0.171970	-0.032137	-0.001181	0.999851	-0.001851	-0.004291	-0.016595	
14703	    0	15.903388	-1.737681	0.532035	-1.009423	-0.710907	-3.364743	0.158691	-0.020020	0.005981	0.999839	-0.005047	-0.003554	-0.016823	
14704	    0	14.740921	-1.157694	0.940359	-1.751239	-0.516922	-3.274537	0.147169	-0.013903	0.009899	0.999824	-0.008756	-0.002584	-0.016372	
14705	    0	13.385813	-2.063529	2.094396	-2.469794	-0.405719	-3.035169	0.133484	-0.022400	0.021484	0.999806	-0.012348	-0.002028	-0.015175	
14706	    0	11.292895	-2.739687	3.081069	-2.933514	-0.314544	-2.806285	0.112485	-0.028520	0.031401	0.999792	-0.014667	-0.001573	-0.014030	
14707	    0	9.097362	-3.206885	2.965605	-3.071610	-0.259417	-2.578146	0.090515	-0.032776	0.030273	0.999798	-0.015357	-0.001297	-0.012890	
14708	    0	7.095536	-5.220002	1.815550	-3.090477	-0.249306	-2.274463	0.070334	-0.052712	0.019055	0.999815	-0.015451	-0.001246	-0.011372	
14709	    0	5.988919	-8.876618	0.200029	-3.067187	-0.377485	-1.935685	0.059021	-0.089294	0.003479	0.999833	-0.015335	-0.001887	-0.009678	
14710	    0	6.655960	-13.537870	-1.010590	-2.853334	-0.579289	-1.611021	0.065491	-0.136033	-0.007977	0.999861	-0.014266	-0.002896	-0.008055	
14711	    0	7.851371	-17.690941	-4.098628	-2.216979	-0.827052	-1.309244	0.077515	-0.177856	-0.038696	0.999908	-0.011085	-0.004135	-0.006546	
14712	    0	8.896013	-22.093576	-5.511711	-1.396199	-0.824558	-0.838291	0.088254	-0.221683	-0.053206	0.999958	-0.006981	-0.004123	-0.004191	
14713	    0	8.264516	-24.477308	-2.826827	-0.736811	-0.350190	-0.440981	0.082153	-0.245056	-0.027222	0.999989	-0.003684	-0.001751	-0.002205	
14714	    0	5.768887	-20.968325	1.013469	-0.475693	0.175858	-0.262642	0.057423	-0.209734	0.010583	0.999995	-0.002378	0.000879	-0.001313	
14715	    0	3.101937	-15.382624	3.671901	-0.202751	0.456238	-0.126648	0.031006	-0.153809	0.036804	0.999996	-0.001014	0.002281	-0.000633	
14716	    0	1.701932	-10.666706	5.536887	-0.045967	0.592805	-0.053787	0.017155	-0.106659	0.055343	0.999995	-0.000230	0.002964	-0.000269	
14717	    0	2.381491	-6.320760	5.185407	-0.113678	0.594521	0.056458	0.023987	-0.063171	0.051819	0.999995	-0.000568	0.002973	0.000282	
14718	    0	4.344958	-4.514326	4.348254	-0.329972	0.619890	0.345612	0.043662	-0.044996	0.043422	0.999991	-0.001650	0.003099	0.001728	
14719	    0	5.675056	-4.932480	3.882625	-0.453951	0.633434	0.791935	0.057068	-0.049011	0.038757	0.999984	-0.002270	0.003167	0.003960	
14720	    0	6.104629	-4.784299	4.019827	-0.615698	0.617033	1.161395	0.061446	-0.047363	0.040155	0.999973	-0.003078	0.003085	0.005807	
14721	    0	6.051366	-3.232350	4.148788	-0.841342	0.590522	1.352708	0.060852	-0.031738	0.041443	0.999964	-0.004207	0.002953	0.006763	
14722	    0	6.225439	-1.874910	3.417796	-0.985160	0.549515	1.532959	0.062489	-0.018103	0.034097	0.999954	-0.004926	0.002748	0.007665	
14723	    0	6.451393	-1.539341	2.016181	-1.137374	0.514231	1.762424	0.064697	-0.014709	0.020081	0.999941	-0.005687	0.002571	0.008812	
14724	    0	6.881596	-0.829303	-0.634529	-1.193264	0.414857	1.916737	0.068878	-0.007671	-0.006441	0.999933	-0.005966	0.002074	0.009583	
14725	    0	8.385955	0.684967	-3.562094	-0.820175	0.276380	1.919591	0.083740	0.007507	-0.035767	0.999944	-0.004101	0.001382	0.009598	
14726	    0	12.393587	1.271992	-5.826667	0.227549	0.103189	1.627368	0.123796	0.013794	-0.058315	0.999966	0.001138	0.000516	0.008137	
14727	    0	20.425947	-1.649185	-7.637656	1.036082	-0.159265	1.118480	0.204407	-0.014954	-0.076294	0.999970	0.005180	-0.000796	0.005592	
14728	    0	31.546794	-5.815214	-7.749317	0.875289	-0.141145	0.970466	0.315799	-0.056281	-0.077519	0.999978	0.004376	-0.000706	0.004852	
14729	    0	34.983079	-5.009337	-5.487866	0.288395	-0.044060	1.828029	0.350281	-0.046814	-0.054871	0.999957	0.001442	-0.000220	0.009140	
14730	    0	25.166184	0.098054	-4.377012	0.393309	-0.090411	2.818584	0.251634	0.004613	-0.043650	0.999898	0.001966	-0.000452	0.014092	
14731	    0	16.583941	3.091397	-4.590728	1.360387	0.185594	3.127441	0.165283	0.033813	-0.045837	0.999854	0.006802	0.000928	0.015636	
14732	    0	13.118483	4.518571	-5.681970	1.789381	0.204479	3.122499	0.130395	0.047732	-0.056534	0.999837	0.008946	0.001022	0.015612	
14733	    0	16.258396	6.725516	-9.120539	1.257382	-0.088314	3.070972	0.161560	0.070312	-0.090698	0.999862	0.006287	-0.000442	0.015354	
14734	    0	21.623251	9.506554	-12.335854	0.648718	-0.432033	3.139824	0.214966	0.098845	-0.122577	0.999868	0.003243	-0.002160	0.015698	
14735	    0	23.452468	12.113657	-13.195058	0.377101	-0.525691	3.360149	0.232788	0.125305	-0.131104	0.999853	0.001885	-0.002628	0.016800	
14736	    0	21.487595	14.210082	-11.769037	0.226415	-0.410867	3.703905	0.212435	0.146183	-0.117088	0.999825	0.001132	-0.002054	0.018518	
14737	    0	18.565557	13.846680	-8.966912	0.167285	-0.345634	3.924815	0.183044	0.142151	-0.089233	0.999805	0.000836	-0.001728	0.019623	
14738	    0	15.876106	10.777750	-6.056801	0.206769	-0.433757	3.720120	0.156850	0.110769	-0.060113	0.999824	0.001034	-0.002169	0.018600	
14739	    0	13.447553	7.459084	-4.216306	0.458547	-0.542284	3.225092	0.133362	0.076843	-0.041626	0.999864	0.002293	-0.002711	0.016125	
14740	    0	11.419622	5.836177	-3.140954	1.108973	-0.486964	2.707199	0.113466	0.060073	-0.030803	0.999889	0.005545	-0.002435	0.013535	
14741	    0	10.215632	6.156072	-3.041952	1.989248	-0.264750	2.221763	0.101501	0.062988	-0.029663	0.999887	0.009946	-0.001324	0.011108	
14742	    0	9.587602	7.996554	-3.765351	2.764062	-0.071529	1.734048	0.095188	0.081303	-0.036502	0.999866	0.013820	-0.000358	0.008670	
14743	    0	8.609695	11.967806	-5.767277	3.022140	0.136000	1.313841	0.085266	0.121094	-0.055908	0.999864	0.015110	0.000680	0.006569	
14744	    0	7.521871	16.751632	-3.739973	2.953081	0.197037	1.133775	0.074230	0.168468	-0.034990	0.999874	0.014765	0.000985	0.005669	
14745	    0	6.422009	19.303494	0.237784	2.844542	-0.001526	1.211596	0.063049	0.193359	0.005127	0.999880	0.014222	-0.000008	0.006058	
14746	    0	4.937795	15.590295	1.889625	2.181305	-0.203711	1.385537	0.048277	0.156021	0.020647	0.999915	0.010906	-0.001019	0.006927	
14747	    0	2.345333	13.030363	0.271925	0.208474	-0.117493	1.145179	0.022705	0.130432	0.002869	0.999983	0.001042	-0.000587	0.005726	
14748	    0	-0.828310	11.815331	0.584313	-1.411453	0.098229	0.731667	-0.008713	0.118159	0.005013	0.999968	-0.007057	0.000491	0.003658	
14749	    0	-1.918201	9.545533	3.431255	-1.313792	0.069619	0.372317	-0.019348	0.095642	0.033691	0.999976	-0.006569	0.000348	0.001862	
14750	    0	0.328691	4.508526	6.531471	0.163460	-0.353432	-0.019073	0.003176	0.045032	0.065357	0.999998	0.000817	-0.001767	-0.000095	
14751	    0	2.952244	-1.902597	7.276865	1.144421	-1.072513	-0.189211	0.029114	-0.019470	0.072815	0.999969	0.005722	-0.005363	-0.000946	
14752	    0	3.014327	-8.720868	2.632314	1.233311	-1.509690	0.081254	0.029982	-0.087358	0.026011	0.999952	0.006166	-0.007548	0.000406	
14753	    0	0.715954	-14.458219	-2.844880	1.078239	-1.406880	0.453192	0.007690	-0.144409	-0.029175	0.999958	0.005391	-0.007034	0.002266	
14754	    0	1.702086	-16.582880	-6.009553	1.446546	-0.122453	0.291827	0.017300	-0.165363	-0.061282	0.999972	0.007233	-0.000612	0.001459	
14755	    0	1.291404	-11.996489	-1.836050	1.503207	1.345848	0.154116	0.012878	-0.119812	-0.019348	0.999949	0.007516	0.006729	0.000771	
14756	    0	2.336152	-8.250190	0.773079	0.860228	1.735142	0.103380	0.023468	-0.082521	0.007173	0.999952	0.004301	0.008676	0.000517	
14757	    0	5.213009	-8.978769	0.795066	0.617224	1.339925	-0.125886	0.052124	-0.089844	0.007324	0.999972	0.003086	0.006700	-0.000629	
14758	    0	6.825831	-8.719052	1.531015	0.243569	0.588037	-0.058174	0.068277	-0.087229	0.015003	0.999994	0.001218	0.002940	-0.000291	
14759	    0	5.815994	-3.597733	2.276418	-0.746157	0.243569	0.222016	0.058228	-0.035828	0.022827	0.999991	-0.003731	0.001218	0.001110	
14760	    0	3.900763	3.142298	1.873577	-1.414885	0.277522	0.425724	0.038966	0.031637	0.018458	0.999971	-0.007074	0.001388	0.002129	
14761	    0	2.413557	7.146208	1.162964	-1.299298	0.469403	0.489812	0.023987	0.071594	0.011108	0.999972	-0.006496	0.002347	0.002449	
14762	    0	3.097148	5.734892	-2.357232	0.484088	0.992972	0.442317	0.030727	0.057474	-0.023586	0.999982	0.002420	0.004965	0.002212	
14763	    0	2.632836	0.865379	1.598974	0.357252	1.952394	-0.148013	0.026489	0.008606	0.015747	0.999950	0.001786	0.009762	-0.000740	
14764	    0	5.683111	-15.609623	-11.441720	-0.401879	-0.083542	-0.028992	0.056856	-0.156334	-0.114079	0.999997	-0.002009	-0.000418	-0.000145	
14765	    0	36.290535	-38.241210	-12.510509	2.623839	0.556393	1.029241	0.364502	-0.378845	-0.131104	0.999896	0.013119	0.002782	0.005146	
14766	    0	44.444361	-27.437704	-11.837501	2.245384	-0.419245	0.690095	0.445635	-0.271496	-0.120501	0.999928	0.011227	-0.002096	0.003450	
14767	    0	16.632424	4.285460	1.019936	-0.091363	-1.556415	-0.675972	0.166382	0.042297	0.011475	0.999964	-0.000457	-0.007782	-0.003380	
14768	    0	-2.359172	29.872418	6.591250	1.884158	-1.313646	-2.174659	-0.020791	0.298323	0.068582	0.999874	0.009420	-0.006568	-0.010873	
14769	    0	-7.159815	37.347765	-3.287949	1.282711	-0.453193	-1.335164	-0.069031	0.374146	-0.030640	0.999954	0.006413	-0.002266	-0.006676	
14770	    0	4.945268	28.016068	-3.542247	-1.277558	0.490576	-1.022733	0.050794	0.279669	-0.037333	0.999963	-0.006388	0.002453	-0.005114	
14771	    0	17.096892	17.833063	-3.719200	-2.807758	-0.072292	-2.044781	0.172791	0.176025	-0.039612	0.999848	-0.014038	-0.000361	-0.010223	
14772	    0	22.583255	18.422060	-9.110978	-3.539390	-0.606971	-2.787067	0.228637	0.179405	-0.093622	0.999742	-0.017695	-0.003035	-0.013934	
14773	    0	22.699578	14.229545	-8.929496	-2.275199	-0.162323	-2.596412	0.228882	0.138306	-0.090698	0.999850	-0.011375	-0.000812	-0.012981	
14774	    0	18.822240	3.794740	-6.892256	-0.571834	-0.067903	-2.024879	0.188616	0.035842	-0.068963	0.999944	-0.002859	-0.000340	-0.010124	
14775	    0	17.601560	-5.645106	-7.435328	-0.113489	-0.463110	-1.625843	0.175720	-0.057922	-0.073914	0.999964	-0.000567	-0.002316	-0.008129	
14776	    0	21.597979	-7.162606	-7.694349	0.946642	-0.767919	-2.192555	0.215474	-0.073627	-0.076461	0.999921	0.004733	-0.003839	-0.010962	
14777	    0	22.682718	-1.675107	-9.259070	2.429365	-1.217544	-3.001609	0.227112	-0.019043	-0.091431	0.999795	0.012146	-0.006087	-0.015007	
14778	    0	20.325124	2.344900	-10.227124	2.471738	-1.403157	-3.302454	0.204325	0.021331	-0.100568	0.999763	0.012358	-0.007015	-0.016511	
14779	    0	16.239775	3.706726	-6.782967	1.447384	-1.205327	-3.312884	0.163391	0.034851	-0.066589	0.999818	0.007236	-0.006026	-0.016563	
14780	    0	16.142497	1.916552	-2.530871	0.452065	-1.104985	-3.350816	0.161853	0.016512	-0.024376	0.999842	0.002260	-0.005525	-0.016753	
14781	    0	18.244611	-0.559949	0.049107	-0.600274	-0.975851	-3.367792	0.182312	-0.008667	0.001404	0.999842	-0.003001	-0.004879	-0.016838	
14782	    0	18.024062	-2.483102	1.309498	-1.571375	-0.835091	-3.499828	0.179713	-0.027871	0.014057	0.999806	-0.007856	-0.004175	-0.017498	
14783	    0	15.762649	-3.942625	3.060783	-2.236344	-0.621652	-3.556328	0.156799	-0.041870	0.031555	0.999774	-0.011181	-0.003108	-0.017780	
14784	    0	12.851467	-4.115287	4.561951	-2.671458	-0.487558	-3.470511	0.127669	-0.042756	0.046495	0.999757	-0.013356	-0.002438	-0.017351	
14785	    0	10.235394	-3.632403	3.983725	-2.734389	-0.360134	-3.221372	0.101685	-0.037415	0.040527	0.999775	-0.013671	-0.001801	-0.016106	
14786	    0	8.676589	-5.093274	3.234849	-2.772326	-0.241486	-2.879907	0.085985	-0.051719	0.033166	0.999799	-0.013861	-0.001207	-0.014399	
14787	    0	7.990161	-8.993081	2.945919	-2.691803	-0.219548	-2.508687	0.078735	-0.090515	0.030762	0.999829	-0.013458	-0.001098	-0.012543	
14788	    0	7.024804	-12.085072	2.431211	-2.675379	-0.351923	-2.134428	0.068911	-0.121250	0.026054	0.999851	-0.013376	-0.001760	-0.010672	
14789	    0	6.414420	-14.408853	0.063107	-2.675553	-0.579096	-1.677013	0.062927	-0.144592	0.002747	0.999870	-0.013377	-0.002895	-0.008385	
14790	    0	6.605631	-17.873008	-4.147452	-2.236049	-0.828385	-1.078446	0.065255	-0.179530	-0.039199	0.999914	-0.011180	-0.004142	-0.005392	
14791	    0	6.804907	-23.189883	-5.266496	-1.497670	-0.786410	-0.589760	0.067566	-0.232483	-0.050659	0.999959	-0.007488	-0.003932	-0.002949	
14792	    0	6.440084	-26.862713	-1.487271	-1.247797	-0.383571	-0.317004	0.064001	-0.268814	-0.013073	0.999977	-0.006239	-0.001918	-0.001585	
14793	    0	4.688076	-24.383470	1.366164	-0.995449	-0.074768	-0.050354	0.046814	-0.243774	0.014893	0.999987	-0.004977	-0.000374	-0.000252	
14794	    0	2.455988	-18.100973	3.482619	-0.551797	0.280571	0.183869	0.024776	-0.180890	0.035291	0.999994	-0.002759	0.001403	0.000919	
14795	    0	0.525388	-12.613196	5.293009	-0.102043	0.583650	0.231171	0.005554	-0.126099	0.052979	0.999994	-0.000510	0.002918	0.001156	
14796	    0	0.312720	-6.974725	5.218880	0.302697	0.653459	0.058365	0.003318	-0.069825	0.052073	0.999993	0.001513	0.003267	0.000292	
14797	    0	2.241000	-2.079246	3.889417	0.116730	0.566293	0.019074	0.022522	-0.020813	0.038818	0.999995	0.000584	0.002831	0.000095	
14798	    0	5.444271	-2.408730	2.955045	-0.245476	0.474740	0.543596	0.054578	-0.023903	0.029450	0.999992	-0.001227	0.002374	0.002718	
14799	    0	6.768724	-3.611663	2.181503	-0.266840	0.395968	1.126106	0.067932	-0.035706	0.021729	0.999981	-0.001334	0.001980	0.005630	
14800	    0	5.902095	-3.130778	2.132174	-0.346950	0.350955	1.327335	0.059264	-0.030878	0.021272	0.999974	-0.001735	0.001755	0.006637	
14801	    0	5.548701	-2.293356	1.870451	-0.595670	0.342563	1.280224	0.055664	-0.022522	0.018677	0.999973	-0.002978	0.001713	0.006401	
14802	    0	6.110300	-2.056094	1.822885	-1.191346	0.419622	1.280230	0.061271	-0.020061	0.018221	0.999959	-0.005957	0.002098	0.006401	
14803	    0	7.140641	-0.465531	1.430387	-1.685369	0.502216	1.419861	0.071472	-0.004028	0.014160	0.999936	-0.008427	0.002511	0.007099	
14804	    0	8.135889	1.120466	-1.356517	-1.847314	0.445949	1.582377	0.081237	0.011721	-0.013853	0.999923	-0.009236	0.002230	0.007912	
14805	    0	9.163640	2.071545	-5.694712	-1.223586	0.116732	1.643400	0.091431	0.021118	-0.057129	0.999947	-0.006118	0.000584	0.008217	
14806	    0	12.166910	2.443985	-7.270191	0.452046	-0.175478	1.486984	0.121546	0.025508	-0.072538	0.999969	0.002260	-0.000877	0.007435	
14807	    0	18.827333	-1.500642	-6.399976	2.166040	-0.390444	1.136046	0.188477	-0.013245	-0.063782	0.999923	0.010830	-0.001952	0.005680	
14808	    0	30.597998	-7.996064	-7.329734	2.233183	-0.646799	0.973918	0.306599	-0.077651	-0.073182	0.999920	0.011166	-0.003234	0.004869	
14809	    0	35.255443	-7.815948	-7.062210	1.290919	-0.591099	1.664004	0.353394	-0.074768	-0.070068	0.999940	0.006454	-0.002955	0.008320	
14810	    0	26.066464	-2.772423	-6.908152	0.977737	-0.470748	2.480773	0.261141	-0.024151	-0.068591	0.999907	0.004889	-0.002354	0.012403	
14811	    0	19.596663	1.578199	-5.984457	1.548825	-0.201996	2.546787	0.195801	0.018738	-0.059509	0.999888	0.007744	-0.001010	0.012733	
14812	    0	17.839134	5.277316	-6.591347	1.939469	-0.382439	2.378177	0.177867	0.055524	-0.065043	0.999880	0.009697	-0.001912	0.011890	
14813	    0	20.920480	8.803163	-10.384434	1.611387	-0.612472	2.404110	0.208435	0.091370	-0.102478	0.999890	0.008057	-0.003062	0.012020	
14814	    0	25.391541	11.648789	-12.471488	1.118126	-0.496309	2.599615	0.252674	0.120470	-0.123421	0.999896	0.005590	-0.002481	0.012998	
14815	    0	25.240331	13.849339	-10.641340	0.775177	-0.121884	2.975581	0.250366	0.142639	-0.105713	0.999881	0.003876	-0.000609	0.014877	
14816	    0	21.872890	15.537082	-7.361733	0.381870	0.097470	3.416802	0.215995	0.159217	-0.073421	0.999851	0.001909	0.000487	0.017083	
14817	    0	18.415679	14.903605	-4.920214	0.040438	-0.108916	3.684443	0.181396	0.152405	-0.049072	0.999829	0.000202	-0.000545	0.018421	
14818	    0	14.445930	11.516699	-3.163297	0.015069	-0.325601	3.511611	0.142459	0.117682	-0.031391	0.999844	0.000075	-0.001628	0.017557	
14819	    0	11.503086	7.499381	-1.984027	0.255023	-0.370804	3.086215	0.113892	0.076782	-0.019531	0.999878	0.001275	-0.001854	0.015430	
14820	    0	9.964949	5.223536	-1.244782	0.724432	-0.311097	2.496791	0.099006	0.053518	-0.012101	0.999914	0.003622	-0.001555	0.012484	
14821	    0	8.603252	5.496140	-1.009847	1.360352	-0.179867	1.911970	0.085510	0.055847	-0.009644	0.999930	0.006802	-0.000899	0.009560	
14822	    0	6.911356	7.772211	-2.026138	1.894232	-0.031091	1.432262	0.068557	0.078402	-0.019510	0.999929	0.009471	-0.000155	0.007161	
14823	    0	5.120635	12.755471	-3.033694	1.923410	0.268751	1.079582	0.050476	0.128113	-0.029175	0.999938	0.009617	0.001344	0.005398	
14824	    0	3.602207	15.912551	1.126375	2.278768	0.312432	0.919556	0.035310	0.159147	0.013021	0.999923	0.011394	0.001562	0.004598	
14825	    0	2.486700	13.820862	4.014020	2.163746	0.058175	0.939200	0.024231	0.137878	0.041626	0.999930	0.010818	0.000291	0.004696	
14826	    0	2.526506	9.499020	2.602605	0.518038	-0.073624	0.829509	0.024861	0.095026	0.026281	0.999988	0.002590	-0.000368	0.004148	
14827	    0	1.045215	8.773000	-0.363526	-2.146001	0.022889	0.450906	0.010254	0.087708	-0.004578	0.999939	-0.010730	0.000114	0.002254	
14828	    0	-1.024816	8.312056	-0.755599	-3.539270	-0.064853	0.144585	-0.010305	0.082962	-0.009028	0.999843	-0.017695	-0.000324	0.000723	
14829	    0	-0.904875	3.496112	3.044261	-2.510714	-0.708028	-0.000763	-0.009155	0.035339	0.029968	0.999914	-0.012553	-0.003540	-0.000004	
14830	    0	0.824880	-3.360439	4.522665	-1.268031	-1.777303	-0.075914	0.007833	-0.033319	0.045509	0.999940	-0.006340	-0.008886	-0.000380	
14831	    0	2.023280	-7.655260	-0.313952	-1.319167	-2.500809	0.313579	0.020386	-0.076538	-0.002380	0.999898	-0.006596	-0.012504	0.001568	
14832	    0	2.102882	-13.273049	-5.328895	-0.898005	-2.294795	0.798820	0.022164	-0.132880	-0.052443	0.999916	-0.004490	-0.011474	0.003994	
14833	    0	2.256923	-18.198729	-8.690405	0.128938	-0.916869	0.919349	0.023804	-0.181824	-0.086914	0.999978	0.000645	-0.004584	0.004597	
14834	    0	1.186142	-16.011269	-7.587936	0.780687	1.198401	0.808916	0.012051	-0.159766	-0.076575	0.999966	0.003903	0.005992	0.004045	
14835	    0	2.045147	-11.490154	-2.475290	1.695516	2.694820	0.592830	0.020447	-0.114624	-0.026001	0.999868	0.008477	0.013474	0.002964	
14836	    0	4.427805	-11.894931	2.523901	2.727692	2.939612	0.186551	0.044738	-0.119231	0.022959	0.999798	0.013638	0.014697	0.000933	
14837	    0	7.111730	-11.008518	4.705452	2.952746	2.255570	-0.064091	0.071594	-0.110779	0.044617	0.999827	0.014763	0.011277	-0.000320	
14838	    0	7.461441	-5.546254	4.765013	2.330280	1.426550	0.015831	0.074953	-0.056003	0.046466	0.999907	0.011651	0.007133	0.000079	
14839	    0	5.905772	2.880959	3.892148	1.677158	0.954452	0.273900	0.059204	0.028564	0.038879	0.999952	0.008386	0.004772	0.001369	
14840	    0	4.730135	7.408514	-0.408220	2.658745	0.878555	0.649284	0.047045	0.074286	-0.003303	0.999896	0.013293	0.004393	0.003246	
14841	    0	2.068888	8.128447	-0.379385	3.521395	1.957835	0.223556	0.020569	0.081360	-0.002563	0.999796	0.017606	0.009789	0.001118	
14842	    0	-2.364790	12.960797	7.067758	0.507556	1.963275	-0.948544	-0.022336	0.129536	0.071230	0.999937	0.002538	0.009816	-0.004743	
14843	    0	-0.080582	0.302445	-0.332372	-2.229935	0.065614	-0.896475	-0.000793	0.002991	-0.003357	0.999928	-0.011149	0.000328	-0.004482	
14844	    0	16.315375	-20.237111	-23.211699	-0.830656	-0.425723	0.815015	0.164472	-0.202663	-0.230927	0.999980	-0.004153	-0.002129	0.004075	
14845	    0	37.686686	-15.521627	-10.794955	1.568063	0.734726	1.358060	0.377502	-0.151794	-0.110535	0.999939	0.007840	0.003674	0.006790	
14846	    0	27.370998	-0.255559	-20.046039	0.551421	-1.647016	0.115587	0.275350	-0.001848	-0.198203	0.999962	0.002757	-0.008235	0.000578	
14847	    0	8.904629	18.234615	-7.799380	-0.388919	-1.702165	-1.896720	0.091431	0.181335	-0.077576	0.999916	-0.001945	-0.008511	-0.009483	
14848	    0	3.489839	32.469401	-4.046387	-0.289733	-0.499737	-2.313669	0.038753	0.324202	-0.040840	0.999928	-0.001449	-0.002499	-0.011568	
14849	    0	8.378712	28.251794	-4.720998	-2.140123	0.305378	-2.014233	0.086548	0.281128	-0.050354	0.999890	-0.010700	0.001527	-0.010071	
14850	    0	20.166410	9.410959	-0.960338	-2.167038	-0.436612	-2.465361	0.202825	0.091506	-0.010162	0.999863	-0.010835	-0.002183	-0.012326	
14851	    0	26.545342	6.435143	-3.118232	-1.783856	-0.681154	-3.201479	0.266541	0.059814	-0.030823	0.999825	-0.008919	-0.003406	-0.016006	
14852	    0	24.035369	8.686602	-3.983582	-1.839574	-0.246637	-3.629936	0.241922	0.082115	-0.040308	0.999792	-0.009197	-0.001233	-0.018148	
14853	    0	14.848525	4.198661	-2.949181	-1.094667	-0.067904	-2.726844	0.149048	0.039795	-0.029663	0.999891	-0.005473	-0.000340	-0.013634	
14854	    0	15.462057	2.251016	-4.361620	-0.480278	-0.161364	-1.890213	0.154859	0.020943	-0.043543	0.999951	-0.002401	-0.000807	-0.009451	
14855	    0	21.220867	3.785533	-5.027142	1.000426	-0.267035	-2.028700	0.212646	0.035950	-0.049805	0.999935	0.005002	-0.001335	-0.010143	
14856	    0	24.348372	3.130067	-5.096872	2.308773	-0.622018	-2.564180	0.244020	0.028754	-0.049869	0.999846	0.011543	-0.003110	-0.012820	
14857	    0	20.891282	0.594100	-4.529926	2.488120	-1.418976	-2.939049	0.209290	0.003418	-0.043762	0.999789	0.012440	-0.007094	-0.014694	
14858	    0	16.494322	1.588722	-4.848904	2.048256	-1.664470	-3.166995	0.165567	0.013755	-0.046965	0.999787	0.010241	-0.008322	-0.015834	
14859	    0	17.519890	0.007966	-2.576828	0.699653	-0.995499	-3.395265	0.175293	-0.002808	-0.024902	0.999837	0.003498	-0.004977	-0.016975	
14860	    0	19.326607	-2.741100	2.441439	-0.266853	-0.819060	-3.524211	0.192641	-0.030776	0.025244	0.999835	-0.001334	-0.004095	-0.017620	
14861	    0	16.736404	-4.745555	3.702313	-0.982724	-0.984822	-3.480734	0.166321	-0.050171	0.038086	0.999824	-0.004913	-0.004924	-0.017403	
14862	    0	14.202719	-5.746124	2.291360	-1.580714	-0.726171	-3.361903	0.140951	-0.059650	0.023892	0.999821	-0.007903	-0.003631	-0.016809	
14863	    0	11.912544	-5.169503	1.106499	-2.075901	-0.485261	-3.296110	0.118225	-0.053528	0.011902	0.999807	-0.010379	-0.002426	-0.016479	
14864	    0	9.679672	-5.388712	1.568646	-2.364305	-0.329229	-3.027340	0.095942	-0.055152	0.016492	0.999814	-0.011821	-0.001646	-0.015136	
14865	    0	8.059480	-6.895151	2.441976	-2.511538	-0.095372	-2.509440	0.079712	-0.069641	0.025330	0.999842	-0.012557	-0.000477	-0.012547	
14866	    0	6.738007	-8.971366	2.616997	-2.843241	-0.003815	-2.077782	0.066445	-0.090023	0.027450	0.999845	-0.014215	-0.000019	-0.010388	
14867	    0	5.949542	-11.919186	1.607921	-3.136424	-0.184641	-1.790716	0.058411	-0.119446	0.018005	0.999836	-0.015681	-0.000923	-0.008953	
14868	    0	5.935181	-16.594898	-2.518181	-2.836160	-0.640897	-1.401199	0.058261	-0.166693	-0.022634	0.999869	-0.014180	-0.003204	-0.007006	
14869	    0	5.809608	-22.558582	-5.792840	-1.947064	-0.854320	-0.852222	0.057373	-0.226379	-0.055481	0.999934	-0.009735	-0.004272	-0.004261	
14870	    0	6.018702	-28.118878	-3.998028	-0.754550	-0.497820	-0.405313	0.059714	-0.281458	-0.038770	0.999988	-0.003773	-0.002489	-0.002027	
14871	    0	5.359531	-27.639404	1.086239	-0.038910	-0.034142	-0.135803	0.053406	-0.276428	0.010925	0.999999	-0.000195	-0.000171	-0.000679	
14872	    0	3.028794	-19.506420	4.612409	0.340844	0.270844	-0.166512	0.030188	-0.195168	0.045751	0.999997	0.001704	0.001354	-0.000833	
14873	    0	0.180050	-10.001400	6.124811	0.661471	0.435068	-0.447847	0.001709	-0.100220	0.060913	0.999990	0.003307	0.002175	-0.002239	
14874	    0	-0.429305	-1.449766	5.692183	0.390817	0.449182	-0.608065	-0.004210	-0.014596	0.056903	0.999990	0.001954	0.002246	-0.003040	
14875	    0	3.089706	1.262485	3.779178	0.107575	0.509072	-0.202179	0.031006	0.012573	0.037720	0.999995	0.000538	0.002545	-0.001011	
14876	    0	6.562874	-1.195428	2.064807	-0.076866	0.498964	0.605966	0.065716	-0.011747	0.020489	0.999991	-0.000384	0.002495	0.003030	
14877	    0	6.821645	-3.115550	1.501153	-0.388339	0.523571	1.067359	0.068420	-0.030762	0.014893	0.999980	-0.001942	0.002618	0.005337	
14878	    0	5.466394	-2.884521	2.217464	-0.856217	0.532727	1.113330	0.054882	-0.028445	0.022151	0.999971	-0.004281	0.002664	0.005567	
14879	    0	5.105303	-1.990662	2.500013	-1.406116	0.444227	1.018538	0.051208	-0.019470	0.025024	0.999959	-0.007030	0.002221	0.005093	
14880	    0	5.676530	-1.712159	2.727152	-1.708060	0.370414	1.049441	0.056904	-0.016590	0.027309	0.999948	-0.008540	0.001852	0.005247	
14881	    0	6.060323	-1.298166	2.436314	-1.788939	0.404366	1.231409	0.060730	-0.012390	0.024353	0.999939	-0.008945	0.002022	0.006157	
14882	    0	5.698117	0.054705	0.797066	-1.733630	0.484669	1.532209	0.056993	0.001052	0.007825	0.999929	-0.008668	0.002423	0.007661	
14883	    0	5.172711	1.148281	-2.026669	-1.200129	0.425157	1.860849	0.051575	0.011841	-0.020447	0.999936	-0.006001	0.002126	0.009304	
14884	    0	6.203837	1.818380	-4.655152	0.152400	0.098802	1.955636	0.061833	0.018825	-0.046568	0.999951	0.000762	0.000494	0.009778	
14885	    0	10.651265	0.631239	-6.648420	1.984463	-0.353060	1.695300	0.106567	0.007874	-0.066223	0.999913	0.009922	-0.001765	0.008476	
14886	    0	21.763347	-5.468178	-10.862864	1.852459	-0.796146	1.196507	0.218383	-0.052373	-0.108253	0.999930	0.009262	-0.003981	0.005982	
14887	    0	36.573106	-9.140613	-11.317755	0.277903	-0.544743	1.200876	0.366577	-0.089050	-0.112305	0.999977	0.001390	-0.002724	0.006004	
14888	    0	35.735432	-5.904930	-5.498240	-0.581561	-0.394447	1.947628	0.358015	-0.055723	-0.054111	0.999946	-0.002908	-0.001972	0.009738	
14889	    0	22.868340	2.114392	-3.943630	0.430499	-0.497448	2.307184	0.228516	0.023865	-0.038818	0.999928	0.002152	-0.002487	0.011536	
14890	    0	16.657165	5.801664	-6.113367	1.640755	-0.640127	2.168154	0.166120	0.060315	-0.060113	0.999902	0.008204	-0.003201	0.010840	
14891	    0	16.409442	8.173451	-9.318846	1.616721	-0.801685	2.134774	0.163574	0.084229	-0.091858	0.999902	0.008083	-0.004008	0.010674	
14892	    0	22.722448	10.921900	-12.551544	0.855660	-0.824570	2.287165	0.226465	0.112345	-0.124104	0.999916	0.004278	-0.004123	0.011436	
14893	    0	27.436912	13.047742	-13.594197	0.449385	-0.730728	2.600942	0.273132	0.134338	-0.134644	0.999906	0.002247	-0.003654	0.013004	
14894	    0	23.518989	14.339478	-11.429893	0.421731	-0.459498	3.009915	0.233255	0.147155	-0.113454	0.999882	0.002109	-0.002297	0.015049	
14895	    0	19.243023	14.790372	-8.529320	0.551059	-0.298324	3.320470	0.190063	0.151306	-0.084595	0.999857	0.002755	-0.001492	0.016602	
14896	    0	16.778258	13.679000	-5.764042	0.729026	-0.382825	3.416046	0.165521	0.139838	-0.056816	0.999846	0.003645	-0.001914	0.017079	
14897	    0	14.414366	10.332113	-3.597505	0.882762	-0.326363	3.209836	0.142517	0.105774	-0.035278	0.999860	0.004414	-0.001632	0.016048	
14898	    0	12.454552	6.970168	-2.045804	0.984800	-0.124173	2.774530	0.123574	0.071520	-0.020032	0.999891	0.004924	-0.000621	0.013872	
14899	    0	10.611516	5.641140	-1.136586	1.365129	0.021363	2.253788	0.105469	0.057678	-0.010986	0.999912	0.006825	0.000107	0.011269	
14900	    0	9.066569	6.303574	-1.146381	1.940974	0.206953	1.770643	0.090091	0.063943	-0.010940	0.999912	0.009705	0.001035	0.008853	
14901	    0	7.421085	8.765815	-2.428044	2.394373	0.576801	1.349684	0.073547	0.088440	-0.023438	0.999901	0.011971	0.002884	0.006748	
14902	    0	5.253547	12.372887	2.359489	3.353493	0.754016	1.133218	0.051929	0.123608	0.025472	0.999836	0.016767	0.003770	0.005666	
14903	    0	4.681582	11.557044	4.818206	3.878468	0.255602	0.856075	0.046387	0.114807	0.050354	0.999802	0.019391	0.001278	0.004280	
14904	    0	4.448774	9.793177	2.732484	2.416865	-0.252540	0.615327	0.044151	0.097728	0.028563	0.999921	0.012084	-0.001263	0.003077	
14905	    0	2.643753	9.294038	1.580685	0.222969	-0.149536	0.257111	0.026306	0.092957	0.015930	0.999998	0.001115	-0.000748	0.001286	
14906	    0	-0.187395	8.033403	-0.121105	-1.372920	-0.093842	-0.002861	-0.001872	0.080323	-0.001763	0.999976	-0.006865	-0.000469	-0.000014	
14907	    0	-1.049406	6.430427	0.334546	-1.804377	-0.353818	-0.003815	-0.010498	0.064331	0.002747	0.999957	-0.009022	-0.001769	-0.000019	
14908	    0	0.730825	-0.322837	3.937617	-0.701526	-0.755504	-0.072098	0.007158	-0.003093	0.039414	0.999987	-0.003508	-0.003778	-0.000360	
14909	    0	1.652672	-5.989226	4.895474	-0.048828	-1.260194	0.058747	0.016235	-0.059875	0.049072	0.999980	-0.000244	-0.006301	0.000294	
14910	    0	-0.106317	-9.770748	3.013094	0.140191	-1.294910	0.609022	-0.000960	-0.097732	0.030056	0.999973	0.000701	-0.006474	0.003045	
14911	    0	-1.511309	-12.721362	-2.216720	0.190164	-0.690464	0.897222	-0.014465	-0.127258	-0.022339	0.999983	0.000951	-0.003452	0.004486	
14912	    0	-0.870506	-13.879618	-5.273359	0.424386	-0.048065	0.528718	-0.008326	-0.138706	-0.053030	0.999993	0.002122	-0.000240	0.002644	
14913	    0	1.696208	-14.053463	-5.662709	1.118666	0.260927	0.201417	0.017029	-0.140198	-0.057434	0.999983	0.005593	0.001305	0.001007	
14914	    0	5.745400	-14.525579	-3.643300	1.702355	1.901106	0.119785	0.057183	-0.144901	-0.038212	0.999918	0.008512	0.009505	0.000599	
14915	    0	7.083956	-10.849153	2.106613	1.036109	2.736190	0.210579	0.071228	-0.108521	0.019531	0.999892	0.005180	0.013680	0.001053	
14916	    0	6.817723	-5.804698	4.720302	0.461585	1.816014	0.369268	0.068708	-0.058028	0.046447	0.999954	0.002308	0.009080	0.001846	
14917	    0	4.681232	0.467768	3.527980	-0.156212	0.771335	0.497438	0.046936	0.004822	0.035095	0.999989	-0.000781	0.003857	0.002487	
14918	    0	2.723583	6.163245	3.002677	-0.813297	0.379183	0.565532	0.027118	0.061831	0.029724	0.999986	-0.004066	0.001896	0.002828	
14919	    0	2.267547	8.761337	2.773787	-1.091583	0.330355	0.592045	0.022461	0.087830	0.027222	0.999979	-0.005458	0.001652	0.002960	
14920	    0	2.871605	8.322355	2.092650	-1.222429	0.438694	0.467304	0.028566	0.083416	0.020354	0.999976	-0.006112	0.002193	0.002337	
14921	    0	3.266502	7.482383	1.210683	-0.774387	0.601389	0.125123	0.032654	0.074890	0.011719	0.999988	-0.003872	0.003007	0.000626	
14922	    0	2.642559	4.841940	-0.841086	0.265123	1.159294	-0.426677	0.026480	0.048374	-0.008500	0.999980	0.001326	0.005796	-0.002133	
14923	    0	1.071776	-3.775635	-4.369854	-1.074799	0.442508	-0.650029	0.010498	-0.038025	-0.043518	0.999977	-0.005374	0.002213	-0.003250	
14924	    0	17.803532	-34.675923	-20.149471	1.498626	-0.521858	1.021973	0.180328	-0.344321	-0.203612	0.999955	0.007493	-0.002609	0.005110	
14925	    0	51.206133	-43.975808	-5.612937	3.943372	1.290232	1.290232	0.514465	-0.435181	-0.068054	0.999763	0.019715	0.006451	0.006451	
14926	    0	31.745548	-6.201305	-5.942372	0.945290	-1.025399	-0.318721	0.317657	-0.062243	-0.058089	0.999974	0.004726	-0.005127	-0.001594	
14927	    0	3.412764	26.012877	3.193518	1.388598	-1.798120	-1.774659	0.036133	0.259583	0.034058	0.999896	0.006943	-0.008990	-0.008873	
14928	    0	-8.388689	42.637096	-1.953702	2.904090	-0.972799	-1.780794	-0.080009	0.427322	-0.013732	0.999843	0.014520	-0.004864	-0.008904	
14929	    0	-2.092958	34.514143	-5.659493	-0.097466	0.004578	-1.023106	-0.019165	0.345215	-0.056763	0.999987	-0.000487	0.000023	-0.005116	
14930	    0	15.852964	21.177026	-6.910345	-1.779420	-0.404179	-1.996292	0.160770	0.209549	-0.070651	0.999908	-0.008897	-0.002021	-0.009981	
14931	    0	27.846897	18.840328	-11.432651	-3.660200	-1.055827	-3.222228	0.282043	0.181763	-0.116211	0.999688	-0.018299	-0.005279	-0.016109	
14932	    0	28.062122	14.904556	-15.433988	-3.963329	-0.097667	-3.221290	0.283016	0.141405	-0.157055	0.999673	-0.019814	-0.000488	-0.016105	
14933	    0	20.226953	0.885339	-8.273578	-3.418208	0.462564	-2.220309	0.202148	0.005188	-0.083313	0.999789	-0.017090	0.002313	-0.011101	
14934	    0	15.446915	-3.446934	-6.906817	-2.220232	-0.043108	-1.869077	0.154148	-0.036674	-0.068636	0.999894	-0.011101	-0.000216	-0.009345	
14935	    0	18.429330	-6.251104	-6.627068	0.223738	-0.328836	-2.525398	0.183594	-0.064758	-0.066040	0.999918	0.001119	-0.001644	-0.012627	
14936	    0	20.673339	-2.663198	-4.853031	2.667237	-0.671435	-3.113780	0.206454	-0.029203	-0.048215	0.999784	0.013335	-0.003357	-0.015568	
14937	    0	21.241752	2.769441	-5.556946	3.244321	-1.348812	-3.163442	0.213196	0.025208	-0.053711	0.999721	0.016220	-0.006743	-0.015816	
14938	    0	19.940641	5.477593	-4.363590	2.647034	-1.429288	-3.111701	0.200534	0.052220	-0.041503	0.999765	0.013234	-0.007146	-0.015557	
14939	    0	18.476890	4.507146	-1.272456	1.056920	-1.037655	-3.325837	0.185547	0.042053	-0.011536	0.999834	0.005284	-0.005188	-0.016628	
14940	    0	17.302572	1.193312	1.912337	-0.354404	-0.880670	-3.466984	0.173112	0.008967	0.019868	0.999838	-0.001772	-0.004403	-0.017334	
14941	    0	17.504854	-2.650884	2.998830	-1.649388	-0.827841	-3.412079	0.174438	-0.029236	0.030945	0.999811	-0.008246	-0.004139	-0.017059	
14942	    0	16.292451	-4.965779	2.454212	-2.419075	-0.537530	-3.357559	0.161996	-0.052077	0.025599	0.999782	-0.012094	-0.002687	-0.016787	
14943	    0	13.159186	-6.086726	2.602869	-2.727522	-0.250263	-3.237395	0.130554	-0.062622	0.027039	0.999775	-0.013637	-0.001251	-0.016186	
14944	    0	10.019398	-6.407876	2.418466	-2.792745	-0.145732	-3.003140	0.099202	-0.065227	0.025163	0.999789	-0.013963	-0.000729	-0.015015	
14945	    0	7.761744	-6.368894	2.911666	-2.841362	-0.005913	-2.604074	0.076782	-0.064270	0.030029	0.999814	-0.014206	-0.000030	-0.013020	
14946	    0	6.731936	-7.332775	2.800826	-2.828180	0.092893	-2.246597	0.066506	-0.073672	0.029017	0.999836	-0.014140	0.000464	-0.011232	
14947	    0	6.146602	-9.941596	1.470172	-2.785436	-0.077061	-1.954745	0.060486	-0.099792	0.016113	0.999855	-0.013927	-0.000385	-0.009773	
14948	    0	5.922240	-13.618100	-1.061915	-2.433865	-0.480097	-1.586399	0.058162	-0.136760	-0.008817	0.999891	-0.012169	-0.002400	-0.007932	
14949	    0	6.127198	-18.390262	-4.417118	-1.647026	-0.769057	-1.032276	0.060486	-0.184570	-0.042419	0.999945	-0.008235	-0.003845	-0.005161	
14950	    0	6.057167	-23.458131	-5.280641	-0.775914	-0.650028	-0.601390	0.060035	-0.234964	-0.051700	0.999982	-0.003880	-0.003250	-0.003007	
14951	    0	5.417310	-25.757526	-2.721496	-0.253105	-0.350190	-0.300598	0.053833	-0.257690	-0.026794	0.999996	-0.001266	-0.001751	-0.001503	
14952	    0	5.146048	-22.196836	0.829709	-0.040627	-0.039291	-0.037384	0.051417	-0.221976	0.008352	0.999999	-0.000203	-0.000196	-0.000187	
14953	    0	3.854988	-15.105035	3.011257	0.339699	0.366211	0.202179	0.038757	-0.151062	0.029785	0.999996	0.001698	0.001831	0.001011	
14954	    0	1.425891	-8.028128	4.379815	0.527765	0.654413	0.115776	0.014448	-0.080388	0.043539	0.999990	0.002639	0.003272	0.000579	
14955	    0	0.967361	-3.243139	4.490592	0.432016	0.734713	-0.071717	0.009827	-0.032532	0.044800	0.999990	0.002160	0.003674	-0.000359	
14956	    0	3.383256	-1.244310	4.387707	-0.011253	0.686647	0.112152	0.033990	-0.012422	0.043761	0.999993	-0.000056	0.003433	0.000561	
14957	    0	6.024212	-0.968812	3.378378	-0.320245	0.559236	0.576021	0.060364	-0.009460	0.033630	0.999990	-0.001601	0.002796	0.002880	
14958	    0	6.584925	-0.953003	2.768740	-0.534061	0.455096	0.971228	0.065957	-0.009136	0.027562	0.999982	-0.002670	0.002275	0.004856	
14959	    0	5.656814	-0.511643	2.602032	-0.830848	0.354961	1.091013	0.056641	-0.004700	0.025940	0.999974	-0.004154	0.001775	0.005455	
14960	    0	5.115107	-0.493834	2.065004	-1.329439	0.341229	1.119819	0.051212	-0.004515	0.020594	0.999960	-0.006647	0.001706	0.005599	
14961	    0	5.577327	-1.035627	0.653314	-1.850167	0.342758	1.243618	0.055847	-0.009949	0.006531	0.999936	-0.009251	0.001714	0.006218	
14962	    0	6.628499	-0.782498	-1.709448	-1.979496	0.302895	1.408612	0.066313	-0.007527	-0.017119	0.999925	-0.009897	0.001514	0.007043	
14963	    0	7.997654	0.512899	-5.257391	-1.370263	0.158122	1.508358	0.079895	0.005371	-0.052673	0.999948	-0.006851	0.000791	0.007542	
14964	    0	11.305811	2.031739	-7.245565	0.325778	-0.032997	1.364147	0.112927	0.021206	-0.072403	0.999975	0.001629	-0.000165	0.006821	
14965	    0	19.759893	-0.876844	-6.508346	1.989789	-0.158504	1.115442	0.197693	-0.007019	-0.065002	0.999934	0.009949	-0.000793	0.005577	
14966	    0	34.558272	-6.537827	-6.334598	1.742017	-0.298888	1.306369	0.346092	-0.062567	-0.063382	0.999939	0.008710	-0.001494	0.006532	
14967	    0	36.880868	-6.521230	-4.783663	0.781268	-0.355347	2.161456	0.369568	-0.061035	-0.047424	0.999932	0.003906	-0.001777	0.010807	
14968	    0	21.913298	-2.099103	-4.785596	0.700592	-0.351345	2.689068	0.219471	-0.017875	-0.047537	0.999902	0.003503	-0.001757	0.013445	
14969	    0	14.082963	0.692373	-4.488493	1.567328	-0.114445	2.584937	0.140747	0.009094	-0.044739	0.999886	0.007836	-0.000572	0.012924	
14970	    0	13.745334	2.690432	-5.990349	2.180957	-0.332656	2.350337	0.137218	0.029167	-0.059365	0.999869	0.010904	-0.001663	0.011751	
14971	    0	19.920131	6.019527	-10.387516	1.879382	-0.692775	2.263728	0.198853	0.063416	-0.102600	0.999886	0.009397	-0.003464	0.011318	
14972	    0	27.121135	10.418849	-14.229669	1.160659	-0.808360	2.382164	0.270509	0.108232	-0.140582	0.999904	0.005803	-0.004042	0.011910	
14973	    0	27.767094	14.944731	-14.273125	0.789098	-0.426498	2.749730	0.275879	0.153809	-0.141541	0.999895	0.003945	-0.002132	0.013748	
14974	    0	22.680138	17.333892	-10.986276	0.500321	-0.049021	3.292045	0.223931	0.177315	-0.109367	0.999861	0.002501	-0.000245	0.016459	
14975	    0	18.237887	16.555459	-7.914779	0.147255	-0.117308	3.627214	0.179382	0.168884	-0.078918	0.999835	0.000736	-0.000587	0.018135	
14976	    0	14.511214	13.041881	-5.881540	0.015832	-0.380345	3.504172	0.142909	0.132940	-0.058532	0.999845	0.000079	-0.001902	0.017520	
14977	    0	11.746183	8.752288	-4.365970	0.212869	-0.499555	3.063325	0.116211	0.089355	-0.043274	0.999879	0.001064	-0.002498	0.015316	
14978	    0	9.983701	5.785954	-3.394600	0.662442	-0.465979	2.540664	0.099169	0.059234	-0.033520	0.999910	0.003312	-0.002330	0.012703	
14979	    0	8.634474	4.950391	-2.566385	1.304658	-0.299652	2.017261	0.085876	0.050537	-0.025208	0.999927	0.006523	-0.001498	0.010086	
14980	    0	7.312040	6.272459	-2.794339	1.920368	-0.090601	1.586383	0.072631	0.063566	-0.027303	0.999922	0.009602	-0.000453	0.007932	
14981	    0	5.745885	10.741079	-3.091041	2.218688	0.250442	1.220736	0.056763	0.108093	-0.029785	0.999919	0.011093	0.001252	0.006104	
14982	    0	3.786044	14.070945	1.400719	2.832140	0.264369	1.059764	0.037135	0.140691	0.015950	0.999885	0.014160	0.001322	0.005299	
14983	    0	2.180931	13.211176	2.339170	2.652830	-0.040246	1.039922	0.021118	0.131897	0.025146	0.999898	0.013264	-0.000201	0.005199	
14984	    0	1.321219	11.217965	1.828058	1.372926	-0.137521	0.987255	0.012646	0.112114	0.019059	0.999964	0.006865	-0.000688	0.004936	
14985	    0	0.163609	9.109635	1.220867	-0.403596	0.121498	0.659944	0.001343	0.091125	0.012024	0.999991	-0.002018	0.000607	0.003300	
14986	    0	-0.696016	8.371566	0.789328	-1.486412	0.458341	0.341038	-0.007086	0.083759	0.007287	0.999968	-0.007432	0.002292	0.001705	
14987	    0	-0.170735	5.644836	4.255169	-0.912289	0.449373	0.126649	-0.001648	0.056641	0.042297	0.999987	-0.004561	0.002247	0.000633	
14988	    0	0.657615	-0.743177	7.997479	0.210571	-0.431633	0.061035	0.006406	-0.007514	0.079981	0.999996	0.001053	-0.002158	0.000305	
14989	    0	0.658534	-5.523864	4.384717	0.045014	-1.541726	0.363926	0.006348	-0.055237	0.043884	0.999969	0.000225	-0.007709	0.001820	
14990	    0	-0.797040	-10.152444	-1.814286	-0.596821	-1.898038	0.742736	-0.007422	-0.101606	-0.017912	0.999943	-0.002984	-0.009490	0.003714	
14991	    0	1.416970	-14.639961	-6.265437	-0.449184	-0.944526	0.751501	0.015015	-0.146484	-0.062256	0.999979	-0.002246	-0.004723	0.003757	
14992	    0	1.327809	-14.607595	-6.566770	-0.426293	0.198746	0.537873	0.013606	-0.146179	-0.065370	0.999993	-0.002131	0.000994	0.002689	
14993	    0	3.144162	-14.293784	-3.829957	0.261689	0.943951	0.413515	0.031555	-0.142822	-0.038635	0.999986	0.001308	0.004720	0.002068	
14994	    0	6.811415	-16.123215	-0.167870	1.590014	2.147739	0.248726	0.068282	-0.161123	-0.003693	0.999909	0.007950	0.010738	0.001244	
14995	    0	7.857160	-13.318057	4.227146	1.544993	1.964048	0.189977	0.079102	-0.133423	0.040466	0.999921	0.007725	0.009820	0.000950	
14996	    0	6.849537	-6.669644	4.792338	1.158152	0.807006	0.312617	0.068791	-0.066864	0.047259	0.999973	0.005791	0.004035	0.001563	
14997	    0	4.373885	2.283654	3.135722	0.404359	0.143624	0.526429	0.043701	0.022888	0.031372	0.999993	0.002022	0.000718	0.002632	
14998	    0	3.079046	7.715036	2.295342	-0.059128	0.046539	0.703241	0.030524	0.077265	0.022923	0.999993	-0.000296	0.000233	0.003516	
14999	    0	2.958850	8.537606	2.046693	-0.288201	0.129700	0.713350	0.029297	0.085510	0.020325	0.999992	-0.001441	0.000648	0.003567	
15000	    0	3.240815	6.867567	2.130287	-0.421334	0.276185	0.505067	0.032264	0.068802	0.021113	0.999993	-0.002107	0.001381	0.002525	
15001	    0	2.825538	5.044003	-0.305931	0.556375	0.508882	0.196076	0.028198	0.050476	-0.002991	0.999992	0.002782	0.002544	0.000980	
15002	    0	1.096676	2.241165	0.154544	0.349810	1.206216	-0.407603	0.011022	0.022387	0.001518	0.999978	0.001749	0.006031	-0.002038	
15003	    0	2.737168	-15.582730	-16.243944	-0.314332	-0.611688	0.110626	0.027954	-0.156067	-0.162109	0.999993	-0.001572	-0.003058	0.000553	
15004	    0	29.444543	-42.854643	-12.791934	3.770139	0.678301	1.462848	0.297103	-0.423855	-0.136944	0.999789	0.018849	0.003391	0.007314	
15005	    0	45.421149	-30.511014	-2.809903	3.104737	0.604276	1.119285	0.455811	-0.302063	-0.034180	0.999859	0.015523	0.003021	0.005596	
15006	    0	23.041475	14.064207	-2.901018	0.978865	-1.504156	-0.179865	0.230747	0.140569	-0.026587	0.999959	0.004894	-0.007521	-0.000899	
15007	    0	0.155162	36.956616	-1.051442	2.828587	-1.942567	-1.864743	0.005066	0.369629	-0.005249	0.999809	0.014142	-0.009712	-0.009323	
15008	    0	-6.068254	39.219753	-3.538367	1.804205	-0.954842	-1.295503	-0.057981	0.392879	-0.032123	0.999927	0.009021	-0.004774	-0.006477	
15009	    0	7.267750	29.641712	-5.063325	-1.309989	-0.382048	-1.470209	0.074951	0.295532	-0.052429	0.999949	-0.006550	-0.001910	-0.007351	
15010	    0	22.354720	15.842682	-8.577593	-3.660727	-1.204601	-2.656035	0.226133	0.153847	-0.087263	0.999725	-0.018302	-0.006022	-0.013279	
15011	    0	30.517544	17.069116	-13.504451	-4.744466	-0.542530	-3.546665	0.308472	0.161987	-0.138123	0.999557	-0.023719	-0.002712	-0.017731	
15012	    0	25.049104	10.557254	-9.444031	-4.217659	0.643045	-3.301449	0.251856	0.099389	-0.097388	0.999636	-0.021086	0.003215	-0.016505	
15013	    0	16.525897	-1.893342	-4.211401	-3.520264	0.587506	-2.117309	0.164917	-0.021423	-0.042236	0.999784	-0.017600	0.002937	-0.010586	
15014	    0	14.708205	-4.227477	-4.920479	-1.891570	-0.058557	-1.763584	0.146713	-0.044032	-0.048751	0.999916	-0.009458	-0.000293	-0.008818	
15015	    0	20.818659	-4.393057	-6.333987	1.020269	-0.325784	-2.320925	0.207764	-0.046021	-0.063232	0.999918	0.005101	-0.001629	-0.011604	
15016	    0	23.426642	-2.139544	-6.305596	3.045894	-0.977212	-2.940791	0.234233	-0.023888	-0.062263	0.999763	0.015228	-0.004886	-0.014703	
15017	    0	20.817547	1.868716	-6.334310	3.467935	-1.925677	-3.200114	0.209045	0.016418	-0.061035	0.999675	0.017338	-0.009627	-0.015999	
15018	    0	17.120310	5.277553	-6.464646	2.879988	-1.788881	-3.356107	0.172631	0.050796	-0.062366	0.999715	0.014399	-0.008944	-0.016779	
15019	    0	16.234947	1.745201	-3.434120	1.088208	-0.919397	-3.523466	0.162781	0.014771	-0.033508	0.999819	0.005441	-0.004597	-0.017616	
15020	    0	18.206215	-1.817251	0.667773	-0.669137	-0.776908	-3.598423	0.181668	-0.021420	0.007452	0.999825	-0.003345	-0.003884	-0.017991	
15021	    0	18.254722	-3.222628	1.729017	-2.120936	-0.587506	-3.560135	0.181885	-0.035278	0.018188	0.999781	-0.010604	-0.002937	-0.017799	
15022	    0	15.967694	-4.710554	3.211872	-2.475352	-0.358036	-3.426236	0.158785	-0.049426	0.033006	0.999775	-0.012376	-0.001790	-0.017130	
15023	    0	12.669639	-5.541719	3.368170	-2.626229	-0.291273	-3.236625	0.125732	-0.057007	0.034607	0.999782	-0.013130	-0.001456	-0.016182	
15024	    0	9.677460	-5.224834	3.127379	-2.720822	-0.240914	-2.896882	0.095970	-0.053209	0.032109	0.999802	-0.013603	-0.001204	-0.014483	
15025	    0	8.573823	-5.641964	3.707368	-2.796335	-0.082974	-2.468252	0.085022	-0.056946	0.037903	0.999825	-0.013981	-0.000415	-0.012341	
15026	    0	7.674347	-7.722092	3.428319	-3.017785	-0.072293	-2.075121	0.075928	-0.077482	0.035479	0.999832	-0.015088	-0.000361	-0.010375	
15027	    0	6.441886	-10.184378	0.891906	-3.045047	-0.267615	-1.699916	0.063538	-0.102234	0.010559	0.999846	-0.015224	-0.001338	-0.008499	
15028	    0	5.902657	-13.060746	-2.987150	-2.609349	-0.602554	-1.286363	0.058270	-0.131357	-0.027985	0.999889	-0.013046	-0.003013	-0.006432	
15029	    0	6.808761	-18.101208	-4.646659	-2.208003	-0.626199	-0.931573	0.067383	-0.181824	-0.044250	0.999923	-0.011040	-0.003131	-0.004658	
15030	    0	6.857125	-23.291132	-4.084800	-1.652549	-0.372701	-0.609406	0.067934	-0.233445	-0.038794	0.999959	-0.008263	-0.001863	-0.003047	
15031	    0	5.653456	-24.957398	-1.738639	-1.120002	-0.205804	-0.319673	0.056152	-0.249756	-0.015930	0.999982	-0.005600	-0.001029	-0.001598	
15032	    0	4.231870	-21.537201	0.732598	-0.507737	-0.017357	-0.043106	0.042272	-0.215362	0.007876	0.999996	-0.002539	-0.000087	-0.000216	
15033	    0	2.842306	-15.981106	2.513030	0.150299	0.327492	0.278473	0.028687	-0.159790	0.024963	0.999997	0.000751	0.001637	0.001392	
15034	    0	1.093694	-9.238859	3.447023	0.439073	0.617220	0.265694	0.011166	-0.092449	0.034233	0.999991	0.002195	0.003086	0.001328	
15035	    0	0.754903	-4.179872	3.545436	0.415994	0.731661	0.057221	0.007690	-0.041870	0.035339	0.999990	0.002080	0.003658	0.000286	
15036	    0	2.985310	-1.544518	4.104898	-0.014305	0.770952	0.199700	0.030026	-0.015412	0.040935	0.999991	-0.000072	0.003855	0.000998	
15037	    0	5.668849	-0.679642	3.369644	-0.132561	0.678256	0.642397	0.056824	-0.006592	0.033508	0.999989	-0.000663	0.003391	0.003212	
15038	    0	6.572492	-0.960074	2.138401	-0.129891	0.617794	1.051146	0.065840	-0.009241	0.021187	0.999981	-0.000649	0.003089	0.005256	
15039	    0	6.100637	-1.718766	1.825953	-0.415042	0.547223	1.195536	0.061157	-0.016785	0.018127	0.999976	-0.002075	0.002736	0.005978	
15040	    0	5.893741	-2.075703	1.843131	-0.911341	0.527769	1.209463	0.059110	-0.020316	0.018369	0.999968	-0.004557	0.002639	0.006047	
15041	    0	6.472613	-1.502319	2.248132	-1.379988	0.563058	1.243611	0.064880	-0.014465	0.022400	0.999952	-0.006900	0.002815	0.006218	
15042	    0	7.293675	-0.754782	2.086834	-1.591333	0.588429	1.403455	0.073048	-0.006870	0.020710	0.999939	-0.007957	0.002942	0.007017	
15043	    0	7.326814	0.196353	-0.223797	-1.554906	0.505268	1.688424	0.073242	0.002563	-0.002441	0.999930	-0.007774	0.002526	0.008442	
15044	    0	7.181342	1.512534	-3.620182	-1.149774	0.248914	1.907389	0.071621	0.015600	-0.036380	0.999937	-0.005749	0.001245	0.009537	
15045	    0	8.399999	2.210460	-6.656331	0.573167	-0.218967	1.850157	0.083862	0.023071	-0.066406	0.999952	0.002866	-0.001095	0.009251	
15046	    0	13.464110	-1.435633	-8.944208	2.405628	-0.555820	1.382302	0.134979	-0.012350	-0.089224	0.999900	0.012028	-0.002779	0.006911	
15047	    0	25.805170	-7.967485	-12.657490	2.020307	-0.743691	0.682845	0.258789	-0.077515	-0.126404	0.999936	0.010101	-0.003718	0.003414	
15048	    0	38.911239	-9.630379	-10.074996	0.495151	-0.288202	1.159295	0.389806	-0.093797	-0.100423	0.999979	0.002476	-0.001441	0.005796	
15049	    0	33.474786	-2.867317	-4.944750	0.013924	-0.079348	2.431548	0.335083	-0.024597	-0.049316	0.999926	0.000070	-0.000397	0.012157	
15050	    0	20.888275	4.386164	-5.056156	1.188324	-0.064089	2.787887	0.208258	0.047067	-0.050221	0.999885	0.005941	-0.000320	0.013939	
15051	    0	15.170790	7.000983	-6.710052	1.870997	-0.273144	2.565111	0.150879	0.072571	-0.066223	0.999872	0.009355	-0.001366	0.012825	
15052	    0	15.868428	9.024949	-9.925768	1.412823	-0.477235	2.495663	0.157771	0.092918	-0.098230	0.999894	0.007064	-0.002386	0.012478	
15053	    0	22.163057	10.828047	-12.708915	0.776888	-0.508134	2.591024	0.220520	0.111633	-0.126099	0.999905	0.003884	-0.002541	0.012955	
15054	    0	25.445414	12.503577	-12.874059	0.491923	-0.352300	2.858645	0.252855	0.128973	-0.127980	0.999893	0.002460	-0.001761	0.014293	
15055	    0	22.429246	14.414096	-10.524111	0.320449	-0.132567	3.323519	0.221924	0.148010	-0.104858	0.999860	0.001602	-0.000663	0.016617	
15056	    0	18.468714	14.953406	-8.198076	0.226225	-0.216878	3.706955	0.181961	0.153016	-0.081611	0.999826	0.001131	-0.001084	0.018534	
15057	    0	14.488980	12.483969	-6.365972	0.305384	-0.411248	3.663081	0.142700	0.127563	-0.063171	0.999828	0.001527	-0.002056	0.018314	
15058	    0	11.264816	8.083779	-4.819263	0.526261	-0.370233	3.175874	0.111433	0.082740	-0.047770	0.999868	0.002631	-0.001851	0.015879	
15059	    0	9.293441	4.849596	-3.229951	0.818659	-0.248535	2.544479	0.092346	0.049805	-0.031982	0.999909	0.004093	-0.001243	0.012722	
15060	    0	8.481043	4.283300	-2.369343	1.483191	-0.065805	1.922082	0.084400	0.043819	-0.023343	0.999926	0.007416	-0.000329	0.009610	
15061	    0	7.562747	5.970335	-2.363761	2.241772	0.126652	1.386301	0.075195	0.060486	-0.023010	0.999912	0.011209	0.000633	0.006931	
15062	    0	6.427260	9.367236	-3.991774	2.501946	0.384724	0.954848	0.063747	0.094468	-0.038862	0.999908	0.012509	0.001924	0.004774	
15063	    0	4.842329	14.300573	0.645000	3.018313	0.519774	0.742371	0.047913	0.143066	0.008484	0.999875	0.015091	0.002599	0.003712	
15064	    0	4.230634	14.083844	3.890557	3.348702	0.166138	0.554874	0.041950	0.140278	0.041223	0.999855	0.016743	0.000831	0.002774	
15065	    0	3.223339	11.561909	2.662584	1.624318	-0.148584	0.505072	0.031921	0.115479	0.027588	0.999963	0.008121	-0.000743	0.002525	
15066	    0	1.880149	8.456991	2.920715	-0.205803	0.016594	0.199127	0.018720	0.084619	0.029119	0.999998	-0.001029	0.000083	0.000996	
15067	    0	-0.040046	6.052650	1.853952	-1.561753	0.139810	-0.070954	-0.000366	0.060669	0.018066	0.999969	-0.007809	0.000699	-0.000355	
15068	    0	0.514614	3.547081	4.140154	-1.024632	0.013542	-0.096131	0.005166	0.035680	0.041219	0.999987	-0.005123	0.000068	-0.000481	
15069	    0	2.848181	-3.912553	6.418410	0.295258	-0.584222	-0.178528	0.028259	-0.039246	0.064209	0.999993	0.001476	-0.002921	-0.000893	
15070	    0	4.383441	-7.844639	3.693244	0.577933	-1.469818	0.017929	0.043570	-0.078549	0.037026	0.999969	0.002890	-0.007349	0.000090	
15071	    0	2.501102	-9.023697	-1.131654	0.169375	-1.769092	0.621805	0.025391	-0.090149	-0.011169	0.999955	0.000847	-0.008845	0.003109	
15072	    0	1.348948	-11.792175	-4.408309	0.320247	-1.078425	0.962457	0.014295	-0.117784	-0.044196	0.999972	0.001601	-0.005392	0.004812	
15073	    0	1.289750	-13.710340	-4.933033	0.354768	-0.192834	0.793460	0.013489	-0.136963	-0.049561	0.999990	0.001774	-0.000964	0.003967	
15074	    0	2.839264	-13.502488	-6.381928	0.647928	0.144005	0.546839	0.028715	-0.134739	-0.064277	0.999990	0.003240	0.000720	0.002734	
15075	    0	6.093956	-12.211872	-4.270181	1.489477	1.506071	0.295263	0.060791	-0.121704	-0.044067	0.999943	0.007447	0.007530	0.001476	
15076	    0	6.743396	-7.871218	2.747788	1.271281	2.154598	0.220877	0.067808	-0.078807	0.026248	0.999921	0.006356	0.010773	0.001104	
15077	    0	5.889885	-3.597940	5.688087	0.825700	1.339736	0.270083	0.059326	-0.036133	0.056335	0.999968	0.004128	0.006699	0.001350	
15078	    0	3.704295	2.408226	3.979622	0.048447	0.393677	0.422097	0.037070	0.024151	0.039729	0.999995	0.000242	0.001968	0.002110	
15079	    0	2.120635	7.383475	2.519938	-0.620844	0.061798	0.589754	0.020996	0.073975	0.024963	0.999990	-0.003104	0.000309	0.002949	
15080	    0	1.842062	9.341524	1.772030	-0.713161	0.109864	0.666049	0.018119	0.093538	0.017377	0.999988	-0.003566	0.000549	0.003330	
15081	    0	2.670387	7.253827	-0.939466	0.440408	0.320435	0.550081	0.026489	0.072632	-0.009277	0.999992	0.002202	0.001602	0.002750	
15082	    0	1.224313	4.618197	1.803035	0.812156	1.152048	-0.234797	0.012402	0.046094	0.018147	0.999974	0.004061	0.005760	-0.001174	
15083	    0	-0.473750	3.030775	0.057442	-1.088537	0.772104	-1.042188	-0.004578	0.030334	0.000427	0.999964	-0.005443	0.003860	-0.005211	
15084	    0	7.069222	-17.279882	-13.921526	-1.264773	-0.607686	-0.204469	0.070935	-0.173746	-0.137903	0.999974	-0.006324	-0.003038	-0.001022	
15085	    0	41.390472	-40.335324	-8.702670	2.716200	1.207221	1.760952	0.416870	-0.398438	-0.094971	0.999850	0.013580	0.006036	0.008804	
15086	    0	43.766349	-29.315446	-4.336932	2.435373	-0.061037	0.970105	0.439091	-0.290471	-0.046783	0.999913	0.012177	-0.000305	0.004850	
15087	    0	15.458543	7.934882	-3.133531	1.194023	-1.470785	-1.024647	0.155212	0.078735	-0.029724	0.999942	0.005970	-0.007354	-0.005123	
15088	    0	-2.768042	36.271283	0.143708	2.339877	-1.463401	-2.451273	-0.023263	0.362967	0.005502	0.999829	0.011699	-0.007317	-0.012256	
15089	    0	-5.777964	37.661455	-5.496609	1.158161	-0.701725	-1.410698	-0.054932	0.377319	-0.052979	0.999951	0.005791	-0.003509	-0.007053	
15090	    0	6.957510	23.802309	-4.841038	-0.991831	-0.011826	-1.218045	0.071025	0.237350	-0.049584	0.999969	-0.004959	-0.000059	-0.006090	
15091	    0	21.696568	13.250850	-4.136761	-2.387917	-0.577571	-2.172949	0.218506	0.129639	-0.042297	0.999865	-0.011939	-0.002888	-0.010864	
15092	    0	27.824931	14.210673	-10.454240	-3.445377	-0.717421	-3.189959	0.280828	0.135824	-0.105914	0.999718	-0.017225	-0.003587	-0.015948	
15093	    0	23.377669	8.384892	-10.165828	-3.299980	-0.068479	-2.917716	0.234985	0.078735	-0.102905	0.999757	-0.016499	-0.000342	-0.014587	
15094	    0	16.493804	1.394125	-6.635077	-2.533268	0.002861	-2.192218	0.165071	0.011291	-0.066507	0.999859	-0.012666	0.000014	-0.010961	
15095	    0	16.415614	-2.316535	-6.989662	-1.397549	-0.251013	-1.970721	0.164001	-0.025269	-0.069519	0.999926	-0.006988	-0.001255	-0.009853	
15096	    0	20.346609	-4.737218	-6.253220	0.797484	-0.268562	-2.427168	0.202957	-0.049588	-0.062454	0.999917	0.003987	-0.001343	-0.012136	
15097	    0	21.646508	-3.485385	-5.835617	2.376130	-0.858360	-2.892481	0.216187	-0.037292	-0.057861	0.999815	0.011880	-0.004292	-0.014462	
15098	    0	20.685825	-0.469389	-6.623686	2.632161	-1.476596	-3.171411	0.207240	-0.007119	-0.064791	0.999760	0.013160	-0.007382	-0.015856	
15099	    0	18.594908	1.997254	-3.962130	1.992941	-1.388459	-3.376250	0.186523	0.017212	-0.038147	0.999784	0.009964	-0.006942	-0.016880	
15100	    0	17.066928	1.156455	-0.740851	0.952587	-1.131698	-3.507254	0.170876	0.008601	-0.006396	0.999819	0.004763	-0.005658	-0.017535	
15101	    0	16.622817	-0.119776	0.722072	-0.469997	-0.923780	-3.502087	0.166138	-0.004089	0.007996	0.999833	-0.002350	-0.004619	-0.017509	
15102	    0	16.209512	-1.094177	1.149702	-1.784826	-0.680778	-3.529595	0.161829	-0.013693	0.012162	0.999798	-0.008924	-0.003404	-0.017647	
15103	    0	14.762937	-2.587218	2.409944	-2.539072	-0.452459	-3.499116	0.147095	-0.028137	0.024780	0.999763	-0.012694	-0.002262	-0.017494	
15104	    0	12.209198	-4.007241	3.042565	-2.964840	-0.354796	-3.335468	0.121351	-0.041641	0.031251	0.999749	-0.014823	-0.001774	-0.016676	
15105	    0	9.335513	-4.773729	2.701862	-3.067253	-0.285171	-2.998583	0.092590	-0.048706	0.027893	0.999768	-0.015335	-0.001426	-0.014992	
15106	    0	7.479970	-6.294492	2.739740	-3.013617	-0.140199	-2.568794	0.073967	-0.063476	0.028403	0.999804	-0.015067	-0.000701	-0.012843	
15107	    0	6.665305	-10.096375	2.378685	-2.854118	-0.113684	-2.148552	0.065552	-0.101318	0.025269	0.999840	-0.014270	-0.000568	-0.010742	
15108	    0	6.218502	-14.097769	0.949095	-2.554806	-0.295460	-1.763606	0.060924	-0.141381	0.011386	0.999878	-0.012774	-0.001477	-0.008818	
15109	    0	5.750101	-17.489418	-2.136798	-2.029472	-0.634592	-1.332890	0.056396	-0.175476	-0.019409	0.999921	-0.010147	-0.003173	-0.006664	
15110	    0	5.541490	-20.779894	-3.957554	-1.576640	-0.765241	-0.900283	0.054625	-0.208348	-0.037724	0.999951	-0.007883	-0.003826	-0.004501	
15111	    0	5.228826	-23.359834	-3.021905	-1.135835	-0.553135	-0.470737	0.051819	-0.233887	-0.028748	0.999977	-0.005679	-0.002766	-0.002354	
15112	    0	4.771906	-22.753078	-0.645428	-0.864223	-0.251008	-0.094414	0.047619	-0.227578	-0.005411	0.999990	-0.004321	-0.001255	-0.000472	
15113	    0	3.823066	-18.219892	1.410702	-0.346375	0.094795	0.235748	0.038452	-0.182129	0.014404	0.999997	-0.001732	0.000474	0.001179	
15114	    0	2.566363	-12.359793	2.853634	0.218392	0.442315	0.422669	0.025988	-0.123574	0.028344	0.999994	0.001092	0.002212	0.002113	
15115	    0	1.619484	-6.981748	3.624321	0.509645	0.666239	0.296021	0.016418	-0.069885	0.036011	0.999990	0.002548	0.003331	0.001480	
15116	    0	2.310453	-3.827588	4.144695	0.281335	0.745394	0.181962	0.023293	-0.038313	0.041306	0.999991	0.001407	0.003727	0.000910	
15117	    0	4.527820	-2.265169	4.365204	-0.171662	0.675394	0.406648	0.045471	-0.022522	0.043518	0.999991	-0.000858	0.003377	0.002033	
15118	    0	6.544309	-1.458828	3.654494	-0.310899	0.603870	0.871472	0.065616	-0.014246	0.036369	0.999984	-0.001554	0.003019	0.004357	
15119	    0	6.460070	-1.132975	3.159406	-0.493626	0.581555	1.198588	0.064758	-0.010864	0.031433	0.999974	-0.002468	0.002908	0.005993	
15120	    0	5.873081	-1.201471	3.073241	-0.900089	0.551993	1.350610	0.058894	-0.011479	0.030622	0.999963	-0.004500	0.002760	0.006753	
15121	    0	5.825165	-1.914559	3.035592	-1.457242	0.540362	1.475553	0.058472	-0.018494	0.030334	0.999942	-0.007286	0.002702	0.007378	
15122	    0	6.092382	-1.560509	1.051101	-1.755185	0.492871	1.573791	0.061069	-0.015033	0.010494	0.999927	-0.008776	0.002464	0.007869	
15123	    0	6.578948	-0.515029	-1.822946	-1.715893	0.374040	1.660960	0.065796	-0.004761	-0.018311	0.999927	-0.008579	0.001870	0.008305	
15124	    0	7.637322	0.691154	-5.765532	-1.154158	0.157168	1.727326	0.076266	0.007237	-0.057756	0.999946	-0.005771	0.000786	0.008636	
15125	    0	10.581050	1.510696	-8.795383	0.351147	-0.067139	1.611346	0.105713	0.016113	-0.087891	0.999966	0.001756	-0.000336	0.008057	
15126	    0	18.057939	-0.786452	-7.881397	1.959081	-0.108149	1.213482	0.180662	-0.005997	-0.078781	0.999933	0.009795	-0.000541	0.006067	
15127	    0	32.361303	-7.064887	-6.699207	1.969190	-0.291258	1.118494	0.324097	-0.068176	-0.067200	0.999934	0.009846	-0.001456	0.005592	
15128	    0	40.227191	-7.889790	-4.388252	0.890369	-0.377472	2.013630	0.403120	-0.074648	-0.043461	0.999937	0.004452	-0.001887	0.010068	
15129	    0	25.648421	-2.938848	-4.601891	0.627348	-0.444809	2.764224	0.256958	-0.025696	-0.045532	0.999897	0.003137	-0.002224	0.013821	
15130	    0	14.914289	1.723110	-4.156894	1.423320	-0.147253	2.727807	0.148917	0.019558	-0.041326	0.999881	0.007116	-0.000736	0.013638	
15131	    0	12.802578	3.802326	-4.518823	1.957208	-0.292217	2.373599	0.127625	0.039978	-0.044617	0.999880	0.009786	-0.001461	0.011868	
15132	    0	16.441904	6.795919	-8.380672	1.562172	-0.585004	2.323993	0.163853	0.070515	-0.082783	0.999897	0.007811	-0.002925	0.011620	
15133	    0	22.056571	9.675793	-11.663177	0.894955	-0.646038	2.453687	0.219727	0.099976	-0.115479	0.999909	0.004475	-0.003230	0.012268	
15134	    0	24.332839	12.533873	-11.998362	0.515382	-0.428786	2.689257	0.241867	0.128905	-0.119135	0.999904	0.002577	-0.002144	0.013446	
15135	    0	22.119407	14.850605	-9.681061	0.267230	-0.157935	3.098422	0.218933	0.152039	-0.096436	0.999878	0.001336	-0.000790	0.015491	
15136	    0	18.988386	14.736585	-7.313016	-0.094228	-0.181779	3.436067	0.187382	0.150565	-0.073030	0.999851	-0.000471	-0.000909	0.017179	
15137	    0	14.810528	11.662191	-5.777588	-0.322738	-0.309577	3.307496	0.146240	0.118958	-0.057739	0.999860	-0.001614	-0.001548	0.016537	
15138	    0	11.374157	8.003038	-4.257721	-0.143056	-0.354779	2.824688	0.112672	0.081596	-0.042435	0.999898	-0.000715	-0.001774	0.014123	
15139	    0	9.795559	5.236526	-3.352619	0.414476	-0.311286	2.240803	0.097412	0.053528	-0.033264	0.999933	0.002072	-0.001556	0.011204	
15140	    0	9.153950	4.792215	-3.086571	1.215957	-0.247578	1.664955	0.091173	0.048868	-0.030457	0.999946	0.006080	-0.001238	0.008325	
15141	    0	8.103737	6.525090	-3.737409	1.993034	-0.240331	1.194790	0.080688	0.066101	-0.036621	0.999931	0.009965	-0.001202	0.005974	
15142	    0	6.835261	10.107122	-5.392716	2.174999	-0.211911	0.806827	0.067999	0.101924	-0.052750	0.999931	0.010875	-0.001060	0.004034	
15143	    0	5.898179	12.997895	-2.638853	2.136275	-0.114253	0.617994	0.058594	0.130432	-0.024963	0.999938	0.010681	-0.000571	0.003090	
15144	    0	5.179988	13.651894	2.459839	2.542568	-0.220305	0.530449	0.051410	0.136328	0.026389	0.999914	0.012712	-0.001101	0.002652	
15145	    0	4.265992	10.974072	1.720439	1.387038	-0.475888	0.583655	0.042297	0.109741	0.018066	0.999969	0.006935	-0.002379	0.002918	
15146	    0	2.936614	9.196413	1.027556	-0.231552	-0.091171	0.320816	0.029214	0.092023	0.010182	0.999997	-0.001158	-0.000456	0.001604	
15147	    0	0.526084	7.303344	1.288974	-1.342593	0.340274	0.090791	0.005249	0.073120	0.012390	0.999975	-0.006713	0.001701	0.000454	
15148	    0	0.389524	4.487852	2.679982	-1.317988	0.230219	0.032044	0.003919	0.045054	0.026499	0.999977	-0.006590	0.001151	0.000160	
15149	    0	2.483489	-1.641773	5.339474	-0.269890	-0.403595	-0.095368	0.024719	-0.016357	0.053467	0.999996	-0.001349	-0.002018	-0.000477	
15150	    0	3.673231	-7.645363	4.237096	0.222589	-1.132018	0.020790	0.036500	-0.076497	0.042493	0.999983	0.001113	-0.005660	0.000104	
15151	    0	2.334455	-11.976554	0.878649	0.042916	-1.275646	0.657659	0.023682	-0.119690	0.008911	0.999973	0.000215	-0.006378	0.003288	
15152	    0	1.683957	-15.991583	-2.084093	0.772674	-0.574880	1.102267	0.017781	-0.159738	-0.021408	0.999972	0.003863	-0.002874	0.005511	
15153	    0	0.739387	-15.998908	-4.307506	1.297012	0.438886	0.949871	0.008057	-0.159668	-0.044128	0.999965	0.006485	0.002194	0.004749	
15154	    0	0.887452	-13.062947	-5.246231	1.087580	0.730140	0.694853	0.009134	-0.130310	-0.053205	0.999972	0.005438	0.003651	0.003474	
15155	    0	3.951581	-11.607046	-3.912706	1.421576	1.688420	0.325782	0.039368	-0.115723	-0.040283	0.999937	0.007108	0.008442	0.001629	
15156	    0	5.973373	-7.239779	2.377365	1.446012	2.509777	0.131612	0.060069	-0.072524	0.022497	0.999894	0.007230	0.012548	0.000658	
15157	    0	5.869953	-2.341194	6.025978	1.216913	1.847305	0.112154	0.059265	-0.023743	0.059570	0.999938	0.006084	0.009236	0.000561	
15158	    0	4.488445	3.384090	4.709485	0.623515	0.881009	0.118638	0.045072	0.033721	0.047002	0.999985	0.003118	0.004405	0.000593	
15159	    0	2.520865	9.453721	2.957318	-0.340271	0.431252	0.136566	0.025208	0.094604	0.029358	0.999995	-0.001701	0.002156	0.000683	
15160	    0	1.136567	12.867795	1.810884	-0.987057	0.340654	0.099755	0.011332	0.128771	0.017454	0.999986	-0.004935	0.001703	0.000499	
15161	    0	1.380984	12.238526	-0.017076	-1.252756	0.567059	-0.077057	0.013855	0.122375	-0.000977	0.999976	-0.006264	0.002835	-0.000385	
15162	    0	3.614727	3.443302	-3.534722	-0.892835	0.693325	-0.244714	0.036066	0.034230	-0.035625	0.999983	-0.004464	0.003467	-0.001224	
15163	    0	8.546765	-15.458215	-17.180275	0.068856	-0.945287	0.665287	0.086792	-0.154236	-0.171448	0.999983	0.000344	-0.004726	0.003326	
15164	    0	42.375297	-49.384837	-17.219499	3.648285	0.972634	2.189810	0.428229	-0.485901	-0.183183	0.999762	0.018240	0.004863	0.010948	
15165	    0	47.378858	-36.471493	-9.095834	2.351634	0.946071	0.363932	0.473999	-0.362732	-0.097473	0.999918	0.011758	0.004730	0.001820	
15166	    0	14.711726	7.486631	5.073999	0.416761	-1.054587	-1.382846	0.147359	0.073741	0.051671	0.999960	0.002084	-0.005273	-0.006914	
15167	    0	-4.424292	38.474947	5.228119	2.262999	-1.719567	-2.177546	-0.040527	0.384583	0.056274	0.999839	0.011314	-0.008597	-0.010887	
15168	    0	-8.325047	37.118759	-1.670041	1.196875	-0.344471	-1.098455	-0.081183	0.371729	-0.014618	0.999965	0.005984	-0.001722	-0.005492	
15169	    0	3.840201	24.644190	-4.580162	-1.763946	0.322157	-0.896469	0.039429	0.245850	-0.048035	0.999949	-0.008820	0.001611	-0.004482	
15170	    0	18.582145	16.466043	-5.162725	-2.374170	0.066951	-1.952248	0.187395	0.162208	-0.053625	0.999882	-0.011870	0.000335	-0.009761	
15171	    0	24.590213	17.648975	-7.794172	-3.074116	-0.375967	-2.937540	0.248596	0.171631	-0.080139	0.999772	-0.015369	-0.001880	-0.014687	
15172	    0	22.179226	10.713876	-9.989361	-2.216823	-0.018121	-2.492830	0.223104	0.103248	-0.101032	0.999861	-0.011084	-0.000091	-0.012464	
15173	    0	17.554959	0.853492	-8.006106	-1.784557	0.016213	-1.538122	0.175598	0.006470	-0.080139	0.999930	-0.008923	0.000081	-0.007690	
15174	    0	17.020768	-3.594612	-7.644687	-0.795757	-0.211719	-1.592276	0.169993	-0.037603	-0.076119	0.999959	-0.003979	-0.001059	-0.007961	
15175	    0	19.045881	-5.124289	-6.760257	1.178205	-0.492111	-2.372050	0.190002	-0.053101	-0.067444	0.999908	0.005891	-0.002460	-0.011860	
15176	    0	18.239965	-1.280931	-7.417732	2.723689	-0.856839	-2.862935	0.182517	-0.014417	-0.073585	0.999795	0.013618	-0.004284	-0.014314	
15177	    0	18.850053	1.970769	-7.274994	2.469225	-1.046822	-2.935984	0.189148	0.017822	-0.071533	0.999802	0.012345	-0.005234	-0.014679	
15178	    0	18.861943	3.445514	-4.716864	1.522904	-0.973178	-2.966648	0.189332	0.032003	-0.045999	0.999848	0.007614	-0.004866	-0.014832	
15179	    0	18.265129	3.191947	-1.189288	0.276959	-0.745234	-3.150316	0.183167	0.029053	-0.011169	0.999867	0.001385	-0.003726	-0.015751	
15180	    0	17.210546	1.155397	0.740361	-0.821727	-0.710523	-3.296064	0.172237	0.008748	0.007976	0.999849	-0.004108	-0.003552	-0.016479	
15181	    0	16.067378	-1.527989	1.659013	-1.848715	-0.655977	-3.289233	0.160339	-0.017761	0.017273	0.999816	-0.009243	-0.003280	-0.016445	
15182	    0	14.629432	-3.388100	2.951472	-2.257312	-0.567666	-3.331986	0.145621	-0.035972	0.030327	0.999793	-0.011286	-0.002838	-0.016659	
15183	    0	12.755422	-4.048717	3.295331	-2.317974	-0.498044	-3.364801	0.126770	-0.042236	0.033752	0.999787	-0.011589	-0.002490	-0.016823	
15184	    0	10.434784	-4.067170	3.191969	-2.472666	-0.443680	-3.198844	0.103612	-0.041932	0.032663	0.999793	-0.012362	-0.002218	-0.015993	
15185	    0	8.130956	-4.894093	2.590229	-2.463485	-0.397515	-2.791759	0.080566	-0.049744	0.026672	0.999825	-0.012317	-0.001987	-0.013958	
15186	    0	7.007926	-7.456804	1.776123	-2.292167	-0.323692	-2.391544	0.069153	-0.075188	0.018733	0.999861	-0.011460	-0.001618	-0.011957	
15187	    0	6.801115	-10.750614	1.160830	-2.119527	-0.376716	-2.139364	0.066833	-0.108093	0.012878	0.999885	-0.010597	-0.001884	-0.010696	
15188	    0	6.582662	-14.238426	-1.345433	-1.691675	-0.709935	-1.832823	0.064562	-0.143085	-0.012015	0.999915	-0.008458	-0.003550	-0.009164	
15189	    0	6.534602	-18.580956	-4.060615	-1.382474	-0.980969	-1.363400	0.064270	-0.186523	-0.039001	0.999940	-0.006912	-0.004905	-0.006817	
15190	    0	6.497255	-22.471875	-3.131038	-1.201262	-0.684746	-0.935947	0.064023	-0.225202	-0.029738	0.999965	-0.006006	-0.003424	-0.004680	
15191	    0	5.334720	-23.333087	-0.469326	-1.186380	-0.278284	-0.634008	0.052612	-0.233521	-0.003235	0.999976	-0.005932	-0.001391	-0.003170	
15192	    0	3.503607	-20.470548	1.466819	-1.003652	-0.176431	-0.404169	0.034609	-0.204699	0.015726	0.999985	-0.005018	-0.000882	-0.002021	
15193	    0	1.906620	-16.402914	1.977318	-0.372887	-0.016785	-0.100708	0.018982	-0.164001	0.020081	0.999998	-0.001864	-0.000084	-0.000504	
15194	    0	1.033299	-12.488328	2.648038	0.222588	0.292015	0.117111	0.010445	-0.124907	0.026326	0.999998	0.001113	0.001460	0.000586	
15195	    0	1.299807	-8.341400	3.236794	0.543214	0.561716	0.081635	0.013123	-0.083496	0.032104	0.999991	0.002716	0.002809	0.000408	
15196	    0	2.238061	-5.311559	3.811426	0.562288	0.652887	0.022507	0.022511	-0.053220	0.037891	0.999990	0.002811	0.003264	0.000113	
15197	    0	3.587360	-4.033065	3.574568	0.619699	0.545503	0.198365	0.036011	-0.040405	0.035522	0.999990	0.003098	0.002728	0.000992	
15198	    0	5.139478	-2.913593	2.883467	0.795559	0.466349	0.573543	0.051545	-0.029102	0.028599	0.999985	0.003978	0.002332	0.002868	
15199	    0	5.492574	-1.437345	2.994826	0.518229	0.458529	0.834660	0.055054	-0.014221	0.029785	0.999985	0.002591	0.002293	0.004173	
15200	    0	5.888680	-0.380908	3.232263	-0.064087	0.388147	1.010518	0.058968	-0.003501	0.032209	0.999985	-0.000320	0.001941	0.005053	
15201	    0	6.650644	-0.533852	3.043124	-0.710875	0.344089	1.228343	0.066589	-0.004822	0.030334	0.999973	-0.003554	0.001720	0.006142	
15202	    0	6.997285	-0.137734	1.700561	-1.336690	0.317769	1.334020	0.070006	-0.000797	0.016901	0.999953	-0.006683	0.001589	0.006670	
15203	    0	7.122298	0.619624	-1.661347	-1.754797	0.151256	1.351194	0.071167	0.006531	-0.016724	0.999938	-0.008774	0.000756	0.006756	
15204	    0	8.308400	2.257773	-6.450418	-1.402113	-0.144579	1.296254	0.082984	0.022663	-0.064603	0.999953	-0.007010	-0.000723	0.006481	
15205	    0	12.662983	2.821847	-9.303438	0.262453	-0.256158	1.125342	0.126587	0.029053	-0.092834	0.999982	0.001312	-0.001281	0.005627	
15206	    0	23.034747	-1.084556	-8.450534	1.721219	-0.187305	0.934997	0.230472	-0.009042	-0.084373	0.999951	0.008606	-0.000937	0.004675	
15207	    0	38.833446	-7.155411	-6.182610	1.623568	-0.256925	1.448088	0.388916	-0.068237	-0.061890	0.999940	0.008118	-0.001285	0.007240	
15208	    0	37.477861	-7.374701	-4.427727	0.534454	-0.494208	2.486108	0.375764	-0.068963	-0.043538	0.999916	0.002672	-0.002471	0.012430	
15209	    0	21.289752	-2.114843	-4.787512	0.568411	-0.359167	2.879438	0.213257	-0.017944	-0.047546	0.999890	0.002842	-0.001796	0.014397	
15210	    0	14.015194	0.830583	-3.921190	1.537002	-0.156790	2.645024	0.140054	0.010459	-0.039027	0.999883	0.007685	-0.000784	0.013225	
15211	    0	15.503241	2.507937	-5.704140	1.912953	-0.424973	2.302639	0.154846	0.027405	-0.056458	0.999886	0.009564	-0.002125	0.011513	
15212	    0	22.569483	5.872407	-10.572487	1.154169	-0.773642	2.201905	0.225431	0.061812	-0.104502	0.999915	0.005771	-0.003868	0.011009	
15213	    0	28.209443	10.395119	-13.207922	0.512710	-0.845933	2.399512	0.281372	0.107666	-0.130615	0.999915	0.002563	-0.004230	0.011997	
15214	    0	26.773742	14.626318	-11.979115	0.373853	-0.435272	2.844338	0.265879	0.150276	-0.118933	0.999894	0.001869	-0.002176	0.014221	
15215	    0	21.575405	16.904093	-8.414175	0.263990	-0.106626	3.460867	0.212830	0.172852	-0.083801	0.999848	0.001320	-0.000533	0.017303	
15216	    0	17.004825	15.639230	-5.930977	0.018502	-0.187694	3.763612	0.167121	0.159561	-0.059137	0.999822	0.000093	-0.000938	0.018817	
15217	    0	12.661658	11.779643	-3.928236	-0.057986	-0.308816	3.528780	0.124573	0.119995	-0.039124	0.999843	-0.000290	-0.001544	0.017643	
15218	    0	10.186178	7.942711	-2.461699	0.198372	-0.334180	3.030895	0.100683	0.080983	-0.024368	0.999883	0.000992	-0.001671	0.015154	
15219	    0	9.094053	5.578105	-1.733740	0.725003	-0.228888	2.436895	0.090271	0.056946	-0.017029	0.999918	0.003625	-0.001144	0.012184	
15220	    0	8.265967	5.763964	-1.464816	1.354249	-0.058557	1.910826	0.082108	0.058523	-0.014230	0.999931	0.006771	-0.000293	0.009554	
15221	    0	6.964939	7.551746	-2.481547	1.777688	0.086405	1.439698	0.069092	0.076233	-0.024170	0.999934	0.008888	0.000432	0.007198	
15222	    0	5.369501	11.874911	-2.057567	1.795421	0.356872	1.092550	0.053009	0.119219	-0.019602	0.999943	0.008977	0.001784	0.005463	
15223	    0	4.231587	14.155935	3.153595	2.341522	0.236708	0.857566	0.041748	0.141357	0.033142	0.999921	0.011707	0.001184	0.004288	
15224	    0	3.273455	11.942152	2.083624	1.371589	-0.246814	0.820932	0.032218	0.119408	0.021695	0.999967	0.006858	-0.001234	0.004105	
15225	    0	2.503017	9.696815	-0.085865	-0.443841	-0.292970	0.643923	0.024719	0.097046	-0.001038	0.999990	-0.002219	-0.001465	0.003220	
15226	    0	0.192125	7.981507	-2.815960	-2.451006	-0.220495	0.311287	0.001829	0.079465	-0.029133	0.999923	-0.012255	-0.001102	0.001556	
15227	    0	-1.612226	6.430844	-2.794619	-3.163854	-0.410479	0.155646	-0.016113	0.063843	-0.028992	0.999872	-0.015819	-0.002052	0.000778	
15228	    0	-0.624678	0.703140	2.384355	-1.395051	-0.951588	0.028992	-0.006361	0.007196	0.023764	0.999964	-0.006975	-0.004758	0.000145	
15229	    0	1.193165	-6.191140	4.403359	0.181772	-1.538864	0.012970	0.011597	-0.061951	0.044067	0.999969	0.000909	-0.007694	0.000065	
15230	    0	1.581519	-10.717803	1.049090	0.318340	-1.598949	0.416951	0.015955	-0.107162	0.010448	0.999964	0.001592	-0.007995	0.002085	
15231	    0	0.947814	-14.324496	-3.477465	0.430301	-0.970276	0.846869	0.010254	-0.143127	-0.035034	0.999976	0.002151	-0.004851	0.004234	
15232	    0	1.424899	-14.895880	-4.413342	1.420038	0.531775	0.793848	0.014720	-0.148582	-0.045228	0.999963	0.007100	0.002659	0.003969	
15233	    0	1.486055	-10.562468	-3.052153	1.921906	1.925148	0.516527	0.014832	-0.105286	-0.031677	0.999904	0.009609	0.009625	0.002583	
15234	    0	3.852440	-9.467074	-1.221933	2.311821	2.559026	0.176248	0.038438	-0.094483	-0.013804	0.999850	0.011559	0.012794	0.000881	
15235	    0	6.826763	-10.993274	1.480130	2.462898	2.553120	-0.031282	0.068420	-0.110107	0.012573	0.999843	0.012314	0.012765	-0.000156	
15236	    0	8.220535	-8.003480	3.614156	1.819858	2.055423	0.007820	0.082569	-0.080351	0.034564	0.999906	0.009099	0.010277	0.000039	
15237	    0	6.676169	-0.829995	4.030818	0.888833	1.239980	0.164034	0.067017	-0.008423	0.039856	0.999970	0.004444	0.006200	0.000820	
15238	    0	3.951018	6.569057	3.332940	0.246239	0.590326	0.364304	0.039489	0.065722	0.033294	0.999992	0.001231	0.002952	0.001822	
15239	    0	2.387325	10.319323	2.018447	-0.109101	0.401498	0.567628	0.023621	0.103271	0.020081	0.999993	-0.000546	0.002007	0.002838	
15240	    0	2.285511	10.032383	0.527849	-0.157929	0.502969	0.568201	0.022583	0.100392	0.005142	0.999992	-0.000790	0.002515	0.002841	
15241	    0	2.165878	6.083819	-1.654683	0.731854	0.875096	0.135804	0.021545	0.060913	-0.016418	0.999983	0.003659	0.004375	0.000679	
15242	    0	0.221300	3.338028	1.315664	-0.719079	1.277557	-0.810633	0.002432	0.033418	0.013021	0.999965	-0.003595	0.006388	-0.004053	
15243	    0	4.067748	-14.470568	-16.989299	-1.622793	-0.645264	-0.200656	0.041077	-0.146118	-0.168579	0.999961	-0.008114	-0.003226	-0.001003	
15244	    0	33.895381	-41.800589	-13.911372	2.652086	0.970308	1.371821	0.341104	-0.413763	-0.146271	0.999876	0.013260	0.004851	0.006859	
15245	    0	45.075138	-32.077540	-7.430449	2.896235	0.460262	1.028484	0.452209	-0.317322	-0.079956	0.999879	0.014481	0.002301	0.005142	
15246	    0	18.889155	8.517133	-5.043597	0.624665	-1.624893	-0.548943	0.189525	0.084805	-0.048633	0.999958	0.003123	-0.008124	-0.002745	
15247	    0	-2.125201	34.403189	1.533802	2.102767	-1.665390	-2.221029	-0.017578	0.344055	0.018799	0.999848	0.010513	-0.008327	-0.011105	
15248	    0	-6.105087	38.695958	-4.583390	1.634444	-0.692383	-1.498447	-0.057996	0.387760	-0.042871	0.999932	0.008172	-0.003462	-0.007492	
15249	    0	6.011147	26.320985	-5.017071	-1.153579	0.034523	-1.313798	0.061829	0.262512	-0.051697	0.999961	-0.005768	0.000173	-0.006569	
15250	    0	20.056673	14.135831	-5.290969	-2.669858	-0.563651	-2.306107	0.202325	0.138314	-0.054201	0.999840	-0.013349	-0.002818	-0.011530	
15251	    0	26.738832	15.934827	-11.345082	-3.795266	-0.541554	-3.309985	0.270264	0.152710	-0.115662	0.999679	-0.018974	-0.002707	-0.016548	
15252	    0	24.852402	9.960314	-9.369000	-3.472843	0.408020	-3.188049	0.249858	0.093975	-0.095863	0.999720	-0.017363	0.002040	-0.015939	
15253	    0	16.911713	-0.013624	-4.656567	-2.745767	0.394460	-2.111923	0.169006	-0.002563	-0.046875	0.999847	-0.013728	0.001972	-0.010559	
15254	    0	15.267283	-4.108879	-5.089324	-1.494631	-0.094607	-1.722182	0.152333	-0.042780	-0.050506	0.999934	-0.007473	-0.000473	-0.008611	
15255	    0	20.047649	-4.109043	-5.098446	1.187358	-0.332651	-2.300328	0.200073	-0.043091	-0.050903	0.999914	0.005937	-0.001663	-0.011501	
15256	    0	22.186945	-0.826644	-5.625634	3.084224	-0.854938	-2.790470	0.221972	-0.010504	-0.055458	0.999774	0.015420	-0.004274	-0.013951	
15257	    0	21.072467	1.954101	-5.568229	3.251946	-1.589158	-2.984893	0.211426	0.017273	-0.053711	0.999724	0.016258	-0.007945	-0.014923	
15258	    0	18.969224	3.429113	-4.930217	2.531630	-1.618320	-3.100064	0.190588	0.031949	-0.047348	0.999766	0.012657	-0.008091	-0.015499	
15259	    0	18.563113	1.700029	-2.098551	0.676762	-0.919199	-3.327351	0.185974	0.013977	-0.020081	0.999845	0.003384	-0.004596	-0.016636	
15260	    0	17.679518	-0.910409	2.722135	-0.622403	-0.800368	-3.529747	0.176488	-0.012135	0.027963	0.999831	-0.003112	-0.004002	-0.017648	
15261	    0	16.112498	-3.530340	2.746322	-1.629559	-0.843105	-3.598267	0.160339	-0.037964	0.028442	0.999796	-0.008147	-0.004215	-0.017990	
15262	    0	14.640007	-4.441570	1.544249	-2.398679	-0.485840	-3.587051	0.145535	-0.046839	0.016349	0.999763	-0.011992	-0.002429	-0.017934	
15263	    0	12.221315	-4.591167	1.667650	-2.812422	-0.192086	-3.385436	0.121399	-0.047729	0.017456	0.999757	-0.014061	-0.000960	-0.016926	
15264	    0	9.517532	-5.606437	2.506804	-2.994190	-0.070959	-3.014219	0.094311	-0.057106	0.025951	0.999774	-0.014970	-0.000355	-0.015070	
15265	    0	7.939890	-7.607411	3.593457	-2.986147	0.067906	-2.568983	0.078430	-0.076538	0.037048	0.999805	-0.014930	0.000340	-0.012844	
15266	    0	6.855386	-10.550816	3.772328	-2.963231	0.142105	-2.141500	0.067451	-0.105660	0.039240	0.999832	-0.014815	0.000710	-0.010707	
15267	    0	5.614900	-13.700086	1.421313	-2.535918	-0.139623	-1.670139	0.054993	-0.137268	0.015991	0.999884	-0.012679	-0.000698	-0.008350	
15268	    0	4.860270	-17.136923	-1.392026	-1.978539	-0.659958	-1.144055	0.047663	-0.171769	-0.012064	0.999928	-0.009892	-0.003300	-0.005720	
15269	    0	4.870787	-20.555721	-3.093436	-1.448842	-0.858891	-0.659952	0.048157	-0.205933	-0.029236	0.999959	-0.007244	-0.004294	-0.003300	
15270	    0	5.329941	-23.627610	-2.452718	-0.454904	-0.566675	-0.251771	0.053070	-0.236398	-0.023839	0.999992	-0.002275	-0.002833	-0.001259	
15271	    0	5.450328	-21.817343	1.493608	0.371742	0.015259	0.000000	0.054504	-0.218201	0.014526	0.999998	0.001859	0.000076	0.000000	
15272	    0	4.415716	-12.834545	4.339715	0.341034	0.140953	-0.102615	0.044122	-0.128442	0.043147	0.999998	0.001705	0.000705	-0.000513	
15273	    0	2.844437	-4.887600	3.559750	0.509644	0.079537	-0.315094	0.028381	-0.049011	0.035461	0.999995	0.002548	0.000398	-0.001575	
15274	    0	2.577583	-2.676982	1.374734	0.559617	0.203324	-0.152970	0.025769	-0.026828	0.013646	0.999995	0.002798	0.001017	-0.000765	
15275	    0	3.637796	-4.136515	2.561372	0.063324	0.482369	0.287629	0.036499	-0.041321	0.025513	0.999995	0.000317	0.002412	0.001438	
15276	    0	4.886275	-5.210121	3.200543	-0.375177	0.635150	0.658038	0.049135	-0.051880	0.031947	0.999988	-0.001876	0.003176	0.003290	
15277	    0	5.336352	-5.894383	2.886378	-0.802428	0.629430	0.873572	0.053711	-0.058594	0.028931	0.999977	-0.004012	0.003147	0.004368	
15278	    0	5.299861	-5.716000	2.552253	-0.932511	0.549894	1.026163	0.053361	-0.056767	0.025641	0.999971	-0.004663	0.002749	0.005131	
15279	    0	5.718688	-4.338157	2.294467	-0.695616	0.506596	1.160441	0.057495	-0.042969	0.022949	0.999973	-0.003478	0.002533	0.005802	
15280	    0	6.540586	-2.755648	1.808934	-0.347904	0.508313	1.379598	0.065639	-0.027073	0.017970	0.999971	-0.001740	0.002542	0.006898	
15281	    0	6.859851	-2.055005	0.722105	-0.326542	0.506026	1.687645	0.068787	-0.019958	0.007080	0.999959	-0.001633	0.002530	0.008438	
15282	    0	6.803407	-0.868758	-0.887454	-0.358397	0.467500	2.015723	0.068096	-0.008018	-0.009019	0.999945	-0.001792	0.002337	0.010078	
15283	    0	7.543028	0.458366	-3.393597	0.009346	0.323493	2.247668	0.075317	0.005432	-0.034058	0.999935	0.000047	0.001617	0.011238	
15284	    0	10.353520	0.528822	-5.943394	0.893805	0.028039	2.227264	0.103457	0.006706	-0.059421	0.999928	0.004469	0.000140	0.011136	
15285	    0	16.492579	-2.224022	-7.996011	1.503217	-0.268561	1.814313	0.165222	-0.020142	-0.079895	0.999929	0.007516	-0.001343	0.009071	
15286	    0	26.860691	-6.165667	-9.716983	0.777443	-0.357822	1.266683	0.269162	-0.059576	-0.096923	0.999970	0.003887	-0.001789	0.006333	
15287	    0	35.331407	-6.249576	-6.742047	-0.186159	0.045205	1.517501	0.353760	-0.059875	-0.067444	0.999970	-0.000931	0.000226	0.007587	
15288	    0	29.644204	-1.148666	-3.113148	-0.143817	-0.039102	2.336937	0.296556	-0.008044	-0.031067	0.999931	-0.000719	-0.000196	0.011684	
15289	    0	18.831009	3.446237	-3.986230	0.820378	-0.238045	2.707763	0.187866	0.037170	-0.039490	0.999899	0.004102	-0.001190	0.013538	
15290	    0	13.981232	5.061825	-6.017607	1.191945	-0.353826	2.661038	0.139225	0.052830	-0.059619	0.999891	0.005960	-0.001769	0.013305	
15291	    0	14.908706	6.983808	-8.220328	0.823430	-0.575276	2.649777	0.148376	0.072144	-0.081482	0.999899	0.004117	-0.002876	0.013248	
15292	    0	20.689207	8.963556	-10.874031	0.344288	-0.696205	2.716155	0.206024	0.092624	-0.107864	0.999900	0.001721	-0.003481	0.013580	
15293	    0	24.853174	10.860060	-11.922521	0.048067	-0.687242	2.819160	0.247375	0.112122	-0.118347	0.999894	0.000240	-0.003436	0.014095	
15294	    0	23.272563	12.695564	-10.635162	-0.078967	-0.599694	3.044441	0.231075	0.130440	-0.105708	0.999879	-0.000395	-0.002998	0.015222	
15295	    0	19.455727	13.093622	-8.124733	-0.069240	-0.499749	3.297577	0.192566	0.134094	-0.080811	0.999861	-0.000346	-0.002499	0.016487	
15296	    0	16.059642	11.358606	-6.027871	0.103383	-0.544573	3.237679	0.158893	0.116199	-0.059785	0.999865	0.000517	-0.002723	0.016188	
15297	    0	12.717823	7.880080	-4.595941	0.415817	-0.508708	2.834420	0.126160	0.080688	-0.045471	0.999894	0.002079	-0.002543	0.014172	
15298	    0	10.693703	4.925633	-3.363536	0.851463	-0.365458	2.324546	0.106415	0.050637	-0.033227	0.999921	0.004257	-0.001827	0.011622	
15299	    0	9.727166	3.956060	-2.554644	1.535262	-0.186925	1.844069	0.096924	0.040649	-0.025146	0.999928	0.007676	-0.000935	0.009220	
15300	    0	9.037925	4.953145	-2.088093	2.219265	-0.044633	1.447338	0.090021	0.050411	-0.020305	0.999911	0.011096	-0.000223	0.007236	
15301	    0	8.352526	6.921686	-3.114057	2.556121	0.059511	1.107061	0.083130	0.070068	-0.030273	0.999903	0.012780	0.000298	0.005535	
15302	    0	6.867320	11.647781	-1.227157	2.711007	0.251969	0.890381	0.068139	0.116935	-0.010775	0.999897	0.013555	0.001260	0.004452	
15303	    0	5.399539	12.209948	3.439962	3.512188	-0.080113	0.643955	0.053589	0.121643	0.036560	0.999840	0.017560	-0.000401	0.003220	
15304	    0	3.698203	9.746853	1.558584	2.015151	-0.377281	0.491914	0.036712	0.097395	0.016637	0.999944	0.010076	-0.001886	0.002460	
15305	    0	2.293155	7.840652	1.608025	0.049591	-0.118828	0.241852	0.022827	0.078430	0.016113	0.999999	0.000248	-0.000594	0.001209	
15306	    0	0.905285	6.171699	0.513116	-1.319895	0.109101	-0.032807	0.009066	0.061748	0.004719	0.999978	-0.006599	0.000546	-0.000164	
15307	    0	1.565718	4.707159	1.236632	-0.968174	-0.098229	-0.148011	0.015686	0.047119	0.012146	0.999988	-0.004841	-0.000491	-0.000740	
15308	    0	3.184084	-2.123424	3.739539	0.219346	-0.700571	-0.241662	0.031684	-0.021314	0.037483	0.999992	0.001097	-0.003503	-0.001208	
15309	    0	4.440688	-8.047896	3.593998	0.733192	-1.379981	-0.075532	0.044128	-0.080627	0.035950	0.999969	0.003666	-0.006900	-0.000378	
15310	    0	2.803255	-11.600687	0.702316	0.550277	-1.612684	0.481230	0.028255	-0.115958	0.006931	0.999960	0.002751	-0.008063	0.002406	
15311	    0	2.811935	-15.694070	-3.753097	0.933082	-0.808531	0.605779	0.028748	-0.156677	-0.038147	0.999976	0.004665	-0.004043	0.003029	
15312	    0	1.734261	-12.759592	-5.214187	0.919727	0.075341	0.432207	0.017598	-0.127316	-0.052734	0.999987	0.004599	0.000377	0.002161	
15313	    0	2.404358	-8.613161	-4.484087	1.210988	0.917063	0.350956	0.023987	-0.085815	-0.045471	0.999969	0.006055	0.004585	0.001755	
15314	    0	4.461325	-8.559386	-1.320572	1.808787	1.741646	0.201421	0.044578	-0.085423	-0.014367	0.999920	0.009044	0.008708	0.001007	
15315	    0	5.911666	-8.205127	1.205819	1.412229	1.662669	0.131991	0.059265	-0.082092	0.010986	0.999940	0.007061	0.008313	0.000660	
15316	    0	5.395018	-3.428819	3.082747	0.623325	1.022154	0.235178	0.054147	-0.034320	0.030444	0.999981	0.003117	0.005111	0.001176	
15317	    0	3.009299	3.816055	4.849766	0.093079	0.355721	0.465394	0.030090	0.038208	0.048462	0.999995	0.000465	0.001779	0.002327	
15318	    0	1.634451	9.992122	2.890416	0.341035	-0.025177	0.709345	0.015986	0.099929	0.029077	0.999991	0.001705	-0.000126	0.003547	
15319	    0	2.379285	9.933688	0.687756	1.304831	0.673683	0.641639	0.023499	0.099365	0.007446	0.999968	0.006524	0.003368	0.003208	
15320	    0	-0.307939	12.405593	3.084476	0.940906	1.322952	-0.345043	-0.002659	0.123914	0.031446	0.999965	0.004704	0.006615	-0.001725	
15321	    0	-3.095962	16.807374	3.769021	-0.691237	1.233126	-1.701390	-0.029297	0.168457	0.037292	0.999938	-0.003456	0.006166	-0.008507	
15322	    0	-2.571831	15.828367	0.080376	-2.005466	0.633265	-2.260679	-0.023928	0.158559	-0.000708	0.999881	-0.010027	0.003166	-0.011303	
15323	    0	5.987364	-4.244743	-7.599840	-3.290532	-0.292983	-1.061302	0.059753	-0.044006	-0.075195	0.999849	-0.016452	-0.001465	-0.005306	
15324	    0	31.373173	-36.984815	-16.774775	1.309036	0.045777	1.562909	0.316565	-0.366273	-0.170225	0.999948	0.006545	0.000229	0.007814	
15325	    0	51.690977	-40.561364	-12.401622	3.065634	-0.208101	1.329103	0.519714	-0.400208	-0.129639	0.999860	0.015327	-0.001040	0.006645	
15326	    0	25.081744	-8.215006	-20.724868	0.836578	-1.672011	-0.822272	0.252202	-0.082323	-0.205488	0.999948	0.004183	-0.008360	-0.004111	
15327	    0	-0.779939	16.091098	-2.546614	1.240021	-2.108855	-2.083677	-0.005859	0.161133	-0.024536	0.999870	0.006200	-0.010544	-0.010418	
15328	    0	-5.868249	29.732985	0.621374	2.787917	-1.441072	-1.377555	-0.056696	0.297604	0.009948	0.999853	0.013939	-0.007205	-0.006887	
15329	    0	3.969211	26.019690	-2.776854	0.325967	-0.305940	-0.844577	0.040833	0.260071	-0.027283	0.999989	0.001630	-0.001530	-0.004223	
15330	    0	21.023699	16.811229	-2.873795	-1.536984	-0.655383	-1.951462	0.211958	0.165826	-0.029325	0.999917	-0.007685	-0.003277	-0.009757	
15331	    0	27.800990	17.221343	-6.721936	-3.380168	-0.735358	-3.554899	0.281250	0.166077	-0.069031	0.999692	-0.016899	-0.003676	-0.017773	
15332	    0	25.146832	13.787427	-8.115314	-4.527571	0.075351	-3.870392	0.254018	0.131090	-0.084268	0.999556	-0.022635	0.000377	-0.019349	
15333	    0	16.990244	4.663706	-4.406911	-4.526282	0.393913	-2.683569	0.170410	0.043335	-0.045410	0.999652	-0.022629	0.001969	-0.013416	
15334	    0	13.767617	-1.972745	-5.830622	-2.929445	0.033189	-1.664813	0.137491	-0.021724	-0.058021	0.999858	-0.014647	0.000166	-0.008324	
15335	    0	18.566436	-7.649373	-5.826272	0.043679	0.075532	-1.973756	0.184875	-0.078308	-0.058350	0.999950	0.000218	0.000378	-0.009869	
15336	    0	21.238883	-8.747238	-4.932551	2.479505	-0.718730	-2.664528	0.211382	-0.089679	-0.049667	0.999827	0.012397	-0.003593	-0.013322	
15337	    0	20.656208	-4.007817	-5.553403	3.290303	-1.777820	-3.022294	0.206421	-0.042297	-0.054382	0.999710	0.016450	-0.008888	-0.015110	
