// Start Time: Unknown
// Update Rate: 100.0Hz
// Filter Profile: human (34.3)
// Firmware Version: 2.1.4
PacketCounter	SampleTimeFine	Acc_X	Acc_Y	Acc_Z	Gyr_X	Gyr_Y	Gyr_Z	VelInc_X	VelInc_Y	VelInc_Z	OriInc_q0	OriInc_q1	OriInc_q2	OriInc_q3	
46373	    0	-12.202928	4.617790	24.710329	0.269343	0.040630	-4.719220	-0.120850	0.048706	0.247192	0.999721	0.001347	0.000203	-0.023594	
46374	    0	-3.959823	5.660659	3.867726	-0.545172	0.013353	-4.744218	-0.038237	0.057630	0.038524	0.999715	-0.002726	0.000067	-0.023719	
46375	    0	18.283515	12.266615	6.178577	-0.848464	1.317142	-4.356773	0.185852	0.118896	0.060059	0.999732	-0.004242	0.006585	-0.021782	
46376	    0	14.033264	-3.180533	-1.373335	-0.972047	1.042432	-3.634874	0.139649	-0.034416	-0.014299	0.999809	-0.004860	0.005212	-0.018173	
46377	    0	7.857898	9.270399	-3.148551	-1.106135	1.049102	-3.370859	0.079956	0.091187	-0.032410	0.999828	-0.005530	0.005245	-0.016853	
46378	    0	6.685798	10.102284	2.408586	-0.132756	0.814849	-2.843007	0.068382	0.100074	0.023743	0.999890	-0.000664	0.004074	-0.014215	
46379	    0	14.298918	3.286540	-0.548545	-0.586528	0.818660	-2.571951	0.143372	0.031006	-0.006165	0.999905	-0.002933	0.004093	-0.012859	
46380	    0	18.645064	6.939815	-1.923375	-0.284583	0.709742	-2.309856	0.187165	0.067211	-0.019994	0.999926	-0.001423	0.003549	-0.011549	
46381	    0	14.966122	8.698819	-2.858939	-0.381477	0.642599	-2.056926	0.150452	0.085388	-0.029236	0.999940	-0.001907	0.003213	-0.010284	
46382	    0	13.043785	5.528407	-3.251976	-0.865379	0.676548	-1.691656	0.130787	0.054036	-0.033197	0.999949	-0.004327	0.003383	-0.008458	
46383	    0	14.469540	4.187836	-2.305058	-0.927747	0.692186	-1.377887	0.144897	0.040771	-0.023743	0.999959	-0.004639	0.003461	-0.006889	
46384	    0	15.926931	5.311032	-1.089542	-0.651938	0.752457	-1.192868	0.159539	0.052122	-0.011666	0.999969	-0.003260	0.003762	-0.005964	
46385	    0	17.262883	5.511247	-3.540304	-0.646215	0.712019	-1.064310	0.172791	0.054077	-0.036194	0.999974	-0.003231	0.003560	-0.005322	
46386	    0	17.045250	-1.090587	-3.861794	-1.018915	0.629049	-0.876053	0.170280	-0.011850	-0.039095	0.999972	-0.005095	0.003145	-0.004380	
46387	    0	16.344432	0.020153	-2.022185	-1.127445	0.502019	-0.926981	0.163391	-0.000671	-0.020630	0.999969	-0.005637	0.002510	-0.004635	
46388	    0	18.315398	2.043576	-1.023870	-1.374454	0.435835	-1.046385	0.183234	0.019404	-0.010774	0.999960	-0.006872	0.002179	-0.005232	
46389	    0	19.491193	-3.933425	-0.447824	-1.873816	0.486956	-0.993367	0.194702	-0.040344	-0.004578	0.999940	-0.009369	0.002435	-0.004967	
46390	    0	17.792667	-5.480805	-0.318516	-2.377961	0.539986	-1.008063	0.177639	-0.055740	-0.003006	0.999912	-0.011889	0.002700	-0.005040	
46391	    0	15.168469	-5.527869	0.119769	-2.715209	0.646233	-0.936161	0.151428	-0.055969	0.001465	0.999891	-0.013576	0.003231	-0.004681	
46392	    0	13.143481	-6.967269	0.222269	-2.979215	0.759539	-0.886955	0.131134	-0.070216	0.002768	0.999871	-0.014895	0.003798	-0.004435	
46393	    0	11.708747	-8.399863	-0.593615	-3.243988	0.749244	-0.872846	0.116699	-0.084595	-0.005005	0.999851	-0.016219	0.003746	-0.004364	
46394	    0	11.924943	-8.827779	0.856061	-3.009931	0.713380	-1.083423	0.118802	-0.088784	0.009470	0.999866	-0.015049	0.003567	-0.005417	
46395	    0	14.442459	-10.052036	1.761769	-2.123331	1.037823	-1.541189	0.143738	-0.101440	0.017944	0.999900	-0.010616	0.005189	-0.007706	
46396	    0	14.933752	-12.241258	0.002034	-0.670641	1.281961	-1.993039	0.148106	-0.123894	-0.000518	0.999924	-0.003353	0.006410	-0.009965	
46397	    0	13.978230	-9.809254	-2.312519	1.200922	1.438398	-2.747472	0.138245	-0.099854	-0.024719	0.999862	0.006004	0.007192	-0.013737	
46398	    0	13.389223	-9.329848	-6.373605	2.878630	1.383139	-3.270625	0.131902	-0.094527	-0.066008	0.999739	0.014392	0.006915	-0.016352	
46399	    0	13.421797	-10.988481	-5.546397	3.251218	1.358362	-3.486990	0.131897	-0.111267	-0.058167	0.999692	0.016254	0.006791	-0.017433	
46400	    0	12.277463	-8.768705	-4.199542	3.053991	1.303049	-3.818729	0.120796	-0.089343	-0.044143	0.999680	0.015268	0.006515	-0.019092	
46401	    0	11.075486	-4.291617	-1.872754	2.386900	1.165886	-4.066867	0.109741	-0.044922	-0.019897	0.999704	0.011933	0.005829	-0.020332	
46402	    0	10.247117	-1.853428	-2.178184	1.274785	1.074878	-4.091977	0.101946	-0.020482	-0.022457	0.999756	0.006373	0.005374	-0.020458	
46403	    0	7.634816	-0.881874	-3.409020	0.276391	0.680583	-3.733288	0.076050	-0.010193	-0.034363	0.999819	0.001382	0.003403	-0.018665	
46404	    0	9.442922	0.172945	-6.702306	-0.805134	0.297562	-3.417955	0.094337	-0.000154	-0.067165	0.999845	-0.004025	0.001488	-0.017089	
46405	    0	11.203560	-8.218129	-7.840077	-1.587563	0.150306	-3.008416	0.110718	-0.084473	-0.077820	0.999855	-0.007937	0.000751	-0.015041	
46406	    0	12.529695	-7.800382	-6.223736	-2.378778	0.128371	-2.602712	0.124222	-0.080359	-0.061371	0.999844	-0.011893	0.000642	-0.013013	
46407	    0	14.441588	-7.354492	-4.047782	-3.111466	0.165759	-2.368315	0.143494	-0.075867	-0.039429	0.999808	-0.015556	0.000829	-0.011841	
46408	    0	15.501952	-6.868298	-3.379716	-3.570230	0.225464	-1.920832	0.154309	-0.070758	-0.032721	0.999793	-0.017850	0.001127	-0.009604	
46409	    0	17.400473	-5.885893	-3.406264	-3.837092	0.338197	-1.414589	0.173523	-0.060730	-0.033203	0.999789	-0.019184	0.001691	-0.007072	
46410	    0	18.125169	-6.333640	-4.241107	-3.702004	0.248733	-0.767182	0.180953	-0.064804	-0.041446	0.999820	-0.018509	0.001244	-0.003836	
46411	    0	16.614792	-7.757720	-2.725065	-3.136573	0.039102	-0.012971	0.166138	-0.078003	-0.026062	0.999877	-0.015682	0.000196	-0.000065	
46412	    0	12.390218	-6.115673	-0.841307	-2.270370	-0.190739	0.604644	0.124094	-0.060871	-0.007603	0.999930	-0.011352	-0.000954	0.003023	
46413	    0	8.235018	-3.515012	-0.594391	-1.573209	-0.280576	1.277183	0.082581	-0.034668	-0.005554	0.999948	-0.007866	-0.001403	0.006386	
46414	    0	5.559992	-1.369562	-1.919387	-1.429974	-0.207334	1.924561	0.055749	-0.013296	-0.019040	0.999928	-0.007150	-0.001037	0.009623	
46415	    0	4.666796	-0.874410	-2.660545	-1.129950	-0.292788	2.536856	0.046814	-0.008301	-0.026489	0.999902	-0.005650	-0.001464	0.012684	
46416	    0	4.676366	-0.427039	-3.228139	-0.664741	-0.736651	3.148413	0.046943	-0.003639	-0.032096	0.999864	-0.003324	-0.003683	0.015741	
46417	    0	4.761966	0.319863	-3.675362	-0.091559	-1.329703	3.801984	0.047791	0.004089	-0.036438	0.999797	-0.000458	-0.006648	0.019009	
46418	    0	5.021078	0.656852	-3.791785	0.349078	-1.736999	4.467059	0.050373	0.007758	-0.037468	0.999711	0.001745	-0.008684	0.022333	
46419	    0	5.343954	0.779416	-3.593090	0.757122	-2.085377	5.037562	0.053589	0.009277	-0.035339	0.999620	0.003785	-0.010426	0.025185	
46420	    0	5.990539	0.251826	-3.300038	1.296062	-2.414140	5.590197	0.060192	0.004409	-0.032250	0.999516	0.006479	-0.012069	0.027946	
46421	    0	6.883684	-0.400004	-2.894212	1.736025	-2.566074	6.091731	0.069275	-0.001648	-0.028076	0.999415	0.008678	-0.012828	0.030453	
46422	    0	8.297294	-1.436716	-2.409636	2.016127	-2.614784	6.452065	0.083680	-0.011438	-0.023130	0.999343	0.010078	-0.013071	0.032253	
46423	    0	9.884987	-2.071390	-2.552193	2.163448	-2.624945	6.745989	0.099792	-0.017090	-0.024414	0.999286	0.010815	-0.013122	0.033722	
46424	    0	11.783926	-1.812562	-3.067928	2.124937	-2.595979	6.989704	0.118755	-0.013669	-0.029303	0.999249	0.010622	-0.012977	0.034940	
46425	    0	14.778818	-1.106919	-3.078576	2.182590	-2.609760	7.252152	0.148438	-0.005371	-0.028931	0.999198	0.010910	-0.013045	0.036251	
46426	    0	17.585145	-0.319077	-3.023753	2.540382	-2.702936	7.542732	0.176183	0.003815	-0.027839	0.999117	0.012698	-0.013511	0.037703	
46427	    0	19.487452	0.974492	-3.696337	2.843818	-2.761203	7.842489	0.194763	0.017883	-0.034058	0.999035	0.014215	-0.013802	0.039200	
46428	    0	22.045290	1.800812	-3.805926	2.906035	-2.814261	7.891952	0.220003	0.027217	-0.034610	0.999017	0.014525	-0.014067	0.039447	
46429	    0	24.681032	4.733097	-4.628277	2.766710	-2.881759	7.679094	0.245361	0.057373	-0.041992	0.999063	0.013829	-0.014404	0.038383	
46430	    0	27.090904	11.068244	-3.869566	2.360423	-2.713762	7.303156	0.267097	0.120901	-0.033667	0.999171	0.011799	-0.013565	0.036506	
46431	    0	26.281470	17.627904	-2.360063	1.593387	-2.210557	6.940542	0.256714	0.185425	-0.019287	0.999305	0.007965	-0.011050	0.034695	
46432	    0	23.592751	21.524290	-0.232235	1.039125	-1.906176	6.304192	0.228990	0.222535	0.001026	0.999444	0.005195	-0.009529	0.031515	
46433	    0	22.291239	24.379035	-0.259375	0.738050	-1.704630	5.288626	0.216370	0.249573	0.000183	0.999607	0.003690	-0.008522	0.026440	
46434	    0	19.533811	27.462582	0.368513	0.931813	-1.548317	3.953673	0.189816	0.278389	0.006460	0.999763	0.004659	-0.007741	0.019767	
46435	    0	15.800484	32.127973	0.436975	1.159143	-1.319176	2.575788	0.153809	0.323242	0.007263	0.999878	0.005795	-0.006596	0.012878	
46436	    0	12.868707	35.216340	4.748620	1.003281	-1.112193	1.251241	0.126208	0.352712	0.049961	0.999952	0.005016	-0.005561	0.006256	
46437	    0	10.036471	35.817056	9.151277	0.492098	-0.758937	0.055695	0.099915	0.357971	0.092773	0.999990	0.002460	-0.003795	0.000278	
46438	    0	7.420722	33.119198	9.417913	-0.007820	-0.348856	-1.023870	0.075737	0.330811	0.094297	0.999985	-0.000039	-0.001744	-0.005119	
46439	    0	6.194347	27.577311	8.235595	-0.328070	-0.015831	-2.004276	0.064697	0.275269	0.081909	0.999948	-0.001640	-0.000079	-0.010021	
46440	    0	6.390952	21.892264	8.659883	-0.333988	0.251397	-2.788636	0.067063	0.218146	0.086151	0.999900	-0.001670	0.001257	-0.013943	
46441	    0	9.992748	17.497886	7.169290	-0.429367	0.299088	-3.512758	0.103088	0.173340	0.071167	0.999842	-0.002147	0.001495	-0.017563	
46442	    0	6.382521	9.077863	-1.495657	0.095373	0.217069	-3.721071	0.065483	0.089578	-0.014984	0.999825	0.000477	0.001085	-0.018604	
46443	    0	5.650949	-23.475180	-23.585367	1.426947	0.090794	-2.819942	0.053101	-0.233826	-0.237549	0.999874	0.007134	0.000454	-0.014099	
46444	    0	30.574878	-39.253524	-11.810577	1.497696	-0.198561	-2.243873	0.301445	-0.395036	-0.120757	0.999908	0.007488	-0.000993	-0.011219	
46445	    0	65.020715	39.889378	-10.334531	0.648755	-3.131387	-9.197817	0.669128	0.368713	-0.091736	0.998815	0.003242	-0.015651	-0.045971	
46446	    0	50.391462	39.248474	-3.782175	0.331198	0.720394	-7.677840	0.518342	0.372831	-0.039043	0.999255	0.001656	0.003601	-0.038380	
46447	    0	3.100648	-6.520814	10.833089	-2.096854	0.430549	-5.417636	0.029480	-0.064880	0.108948	0.999576	-0.010483	0.002152	-0.027084	
46448	    0	-14.390797	1.752339	20.349517	0.039677	0.176446	-4.713305	-0.143263	0.020864	0.203626	0.999722	0.000198	0.000882	-0.023564	
46449	    0	0.607528	6.883284	7.319483	-0.016596	0.220511	-4.820719	0.007812	0.068665	0.073181	0.999708	-0.000083	0.001102	-0.024101	
46450	    0	16.472112	14.214409	3.211291	-0.373299	1.340023	-4.223027	0.167883	0.138680	0.030734	0.999752	-0.001866	0.006700	-0.021113	
46451	    0	13.986055	-1.951674	-0.193637	-1.353356	1.278773	-3.582244	0.139465	-0.022034	-0.002686	0.999796	-0.006766	0.006393	-0.017910	
46452	    0	8.133702	11.252951	-3.341467	-1.342846	1.083623	-3.152826	0.082910	0.111001	-0.034610	0.999838	-0.006714	0.005418	-0.015763	
46453	    0	8.949284	7.330793	2.810390	-0.609609	0.924142	-2.632994	0.090576	0.072205	0.027466	0.999898	-0.003048	0.004621	-0.013165	
46454	    0	13.571688	4.819966	-2.081983	-0.836206	0.854517	-2.338095	0.136176	0.046520	-0.021598	0.999913	-0.004181	0.004272	-0.011690	
46455	    0	17.656335	5.300275	-2.585599	-0.620283	0.741784	-2.074478	0.177002	0.051086	-0.026672	0.999934	-0.003101	0.003709	-0.010372	
46456	    0	16.233753	6.873486	-2.306608	-0.635731	0.679791	-1.865230	0.162889	0.067142	-0.023834	0.999946	-0.003179	0.003399	-0.009326	
46457	    0	13.796119	4.390177	-1.325797	-0.860608	0.683795	-1.530479	0.138245	0.042786	-0.013916	0.999955	-0.004303	0.003419	-0.007652	
46458	    0	13.170235	6.457114	-2.660826	-1.240176	0.733959	-1.204508	0.131988	0.063608	-0.027489	0.999955	-0.006201	0.003670	-0.006022	
46459	    0	13.516955	6.008488	-2.537855	-1.032268	0.736435	-1.013958	0.135376	0.059265	-0.026184	0.999967	-0.005161	0.003682	-0.005070	
46460	    0	16.230260	4.434503	-2.957969	-0.814254	0.726706	-0.924118	0.162395	0.043472	-0.030348	0.999974	-0.004071	0.003633	-0.004621	
46461	    0	17.769830	0.355350	-2.855838	-0.986299	0.677496	-0.816352	0.177612	0.002686	-0.029175	0.999973	-0.004931	0.003387	-0.004082	
46462	    0	16.492271	0.770784	-2.051552	-1.228345	0.582510	-0.788697	0.164890	0.006929	-0.021040	0.999969	-0.006142	0.002913	-0.003943	
46463	    0	16.947411	1.367858	-1.455168	-1.422900	0.508315	-0.891125	0.169495	0.012817	-0.015076	0.999961	-0.007114	0.002542	-0.004456	
46464	    0	17.623152	-1.624507	-0.315142	-1.686697	0.500497	-0.956170	0.176143	-0.017116	-0.003450	0.999949	-0.008433	0.002502	-0.004781	
46465	    0	15.193898	-5.117037	0.601442	-2.208574	0.552382	-0.862906	0.151733	-0.051758	0.006165	0.999926	-0.011043	0.002762	-0.004314	
46466	    0	12.545801	-4.409338	0.653933	-2.678202	0.667023	-0.861579	0.125289	-0.044544	0.006716	0.999895	-0.013391	0.003335	-0.004308	
46467	    0	11.366964	-5.716564	1.209445	-2.832715	0.803407	-0.888097	0.113464	-0.057495	0.012451	0.999882	-0.014163	0.004017	-0.004440	
46468	    0	11.251138	-7.121125	0.755766	-2.835198	0.884092	-0.961343	0.112203	-0.071639	0.008075	0.999878	-0.014175	0.004420	-0.004807	
46469	    0	11.583392	-9.085689	-0.447893	-2.557270	0.817899	-1.010166	0.115356	-0.091492	-0.003784	0.999897	-0.012786	0.004089	-0.005051	
46470	    0	14.526211	-8.397278	0.311988	-1.781698	0.927948	-1.376758	0.144694	-0.084942	0.003201	0.999926	-0.008908	0.004640	-0.006884	
46471	    0	16.767443	-9.964164	-0.616381	-0.630201	1.184297	-1.763189	0.166748	-0.101135	-0.006836	0.999938	-0.003151	0.005921	-0.008816	
46472	    0	14.632090	-8.941297	-2.833791	0.750755	1.235427	-2.274773	0.145112	-0.090959	-0.029576	0.999908	0.003754	0.006177	-0.011374	
46473	    0	12.682930	-7.022597	-4.523582	2.375188	1.262176	-2.949720	0.125488	-0.071533	-0.046875	0.999801	0.011875	0.006310	-0.014748	
46474	    0	11.771617	-6.981734	-5.596524	3.138271	1.280717	-3.399222	0.116151	-0.070903	-0.057819	0.999711	0.015690	0.006403	-0.016994	
46475	    0	12.247119	-6.156059	-2.571612	3.111032	1.270432	-3.840291	0.121094	-0.063477	-0.027466	0.999674	0.015553	0.006351	-0.019199	
46476	    0	11.982815	-3.426217	-2.192717	2.778949	1.275974	-4.306912	0.118913	-0.036513	-0.023185	0.999651	0.013893	0.006379	-0.021532	
46477	    0	12.046932	-2.629523	-2.096410	1.900688	1.340057	-4.533877	0.119690	-0.028809	-0.022034	0.999675	0.009502	0.006700	-0.022667	
46478	    0	10.841583	-3.845936	-2.977040	0.999925	1.170458	-4.463229	0.107347	-0.040711	-0.030601	0.999721	0.004999	0.005852	-0.022314	
46479	    0	10.200644	-1.242445	-4.006732	0.241107	0.751744	-4.228536	0.101562	-0.014526	-0.040466	0.999768	0.001205	0.003758	-0.021141	
46480	    0	12.244605	-4.321090	-5.044468	-0.453408	0.649688	-4.002467	0.121383	-0.045762	-0.050738	0.999791	-0.002267	0.003248	-0.020011	
46481	    0	13.381674	-10.330262	-4.874616	-0.761454	0.450349	-3.449432	0.131897	-0.105774	-0.048645	0.999841	-0.003807	0.002252	-0.017246	
46482	    0	15.130175	-9.367662	-4.381388	-1.017999	0.370615	-3.130102	0.149728	-0.096251	-0.043607	0.999863	-0.005090	0.001853	-0.015650	
46483	    0	17.448945	-8.668259	-3.857248	-1.052131	0.396933	-2.704717	0.173218	-0.089233	-0.038452	0.999892	-0.005260	0.001985	-0.013523	
46484	    0	19.444360	-7.635440	-4.133674	-1.110677	0.401316	-2.135330	0.193529	-0.078653	-0.041293	0.999925	-0.005553	0.002007	-0.010676	
46485	    0	20.126020	-6.768180	-4.646573	-1.179523	0.264935	-1.496147	0.200684	-0.069458	-0.046326	0.999953	-0.005898	0.001325	-0.007481	
46486	    0	17.222335	-6.339404	-4.651984	-1.190959	0.027085	-0.847633	0.171946	-0.064399	-0.046162	0.999972	-0.005955	0.000135	-0.004238	
46487	    0	12.156665	-6.755654	-3.602019	-1.222809	-0.237276	-0.259401	0.121521	-0.067932	-0.035461	0.999979	-0.006114	-0.001186	-0.001297	
46488	    0	9.314750	-6.636294	-2.973417	-0.988775	-0.367166	0.310899	0.093305	-0.066363	-0.029235	0.999985	-0.004944	-0.001836	0.001554	
46489	    0	6.751099	-4.833316	-3.688034	-0.791746	-0.382235	0.949866	0.067810	-0.048157	-0.036560	0.999979	-0.003959	-0.001911	0.004749	
46490	    0	4.521373	-3.135666	-4.236418	-0.734532	-0.352293	1.773099	0.045565	-0.031109	-0.042170	0.999952	-0.003673	-0.001761	0.008865	
46491	    0	3.975488	-2.032380	-3.834551	-0.439466	-0.467505	2.552869	0.040100	-0.019897	-0.038208	0.999913	-0.002197	-0.002337	0.012764	
46492	    0	4.067619	-1.367079	-4.100433	-0.045015	-0.801695	3.213266	0.041053	-0.013022	-0.040837	0.999863	-0.000225	-0.004008	0.016066	
46493	    0	4.045770	-0.298022	-4.765001	0.180829	-1.120646	3.939332	0.040771	-0.002136	-0.047424	0.999789	0.000904	-0.005603	0.019695	
46494	    0	4.284198	-0.362667	-4.728558	0.380554	-1.377433	4.663167	0.043234	-0.002532	-0.046994	0.999702	0.001903	-0.006886	0.023314	
46495	    0	5.315562	-0.949469	-4.075268	0.641717	-1.627373	5.343569	0.053711	-0.007935	-0.040344	0.999604	0.003208	-0.008136	0.026714	
46496	    0	6.445818	-0.456077	-3.613337	0.822966	-1.865503	5.944658	0.064886	-0.002489	-0.035542	0.999506	0.004114	-0.009326	0.029718	
46497	    0	7.497307	-0.493155	-3.034769	0.814214	-2.016648	6.457243	0.075378	-0.002380	-0.029602	0.999419	0.004070	-0.010081	0.032280	
46498	    0	8.902322	-1.947392	-3.251682	0.719416	-2.118565	6.819281	0.089953	-0.016302	-0.031630	0.999355	0.003596	-0.010591	0.034089	
46499	    0	10.849903	-2.570071	-3.455659	0.575580	-2.151221	7.090102	0.109680	-0.021729	-0.033447	0.999310	0.002877	-0.010754	0.035442	
46500	    0	13.171393	-1.897308	-3.372442	0.481915	-2.215169	7.350445	0.132653	-0.014030	-0.032296	0.999260	0.002409	-0.011073	0.036743	
46501	    0	15.711762	-1.991514	-2.665386	0.445102	-2.342845	7.611576	0.158020	-0.013855	-0.024841	0.999205	0.002225	-0.011711	0.038048	
46502	    0	17.805895	-1.885687	-2.244417	0.794643	-2.673549	7.896060	0.178895	-0.011721	-0.020112	0.999123	0.003972	-0.013364	0.039469	
46503	    0	20.072396	-1.148290	-2.433672	1.112718	-2.929662	8.137802	0.201294	-0.003174	-0.021423	0.999049	0.005562	-0.014644	0.040676	
46504	    0	23.693761	0.637937	-2.673378	1.353135	-3.064016	8.213447	0.236776	0.016272	-0.023017	0.999016	0.006763	-0.015315	0.041054	
46505	    0	27.751482	3.417945	-1.673921	0.986974	-2.996220	7.982797	0.276062	0.045288	-0.012390	0.999079	0.004933	-0.014977	0.039902	
46506	    0	28.738866	9.791642	1.287154	0.473915	-2.704599	7.632059	0.283165	0.108741	0.016970	0.999177	0.002369	-0.013519	0.038150	
46507	    0	25.246343	14.636564	4.044233	0.228174	-2.237286	7.257300	0.246460	0.155334	0.043396	0.999278	0.001141	-0.011184	0.036278	
46508	    0	22.832120	18.633244	5.129646	0.365710	-1.959990	6.526878	0.221563	0.193541	0.053840	0.999417	0.001828	-0.009798	0.032628	
46509	    0	23.701148	22.849866	4.313025	0.534127	-1.635764	5.311511	0.230469	0.234558	0.045654	0.999610	0.002670	-0.008178	0.026554	
46510	    0	22.121841	26.943969	4.479111	1.138204	-1.328190	3.954623	0.215527	0.273473	0.047784	0.999765	0.005691	-0.006640	0.019772	
46511	    0	17.554947	31.852223	6.332804	1.852507	-1.268639	2.571994	0.171021	0.320129	0.067383	0.999854	0.009262	-0.006343	0.012859	
46512	    0	11.529729	34.893030	10.133054	2.034625	-1.118119	1.110871	0.112779	0.348502	0.105513	0.999917	0.010173	-0.005590	0.005554	
46513	    0	8.675570	37.693149	12.740657	1.697754	-0.598916	-0.225833	0.086792	0.375732	0.130859	0.999958	0.008489	-0.002995	-0.001129	
46514	    0	7.974019	34.595417	11.837874	1.117148	-0.040627	-1.320092	0.081994	0.344749	0.120323	0.999962	0.005586	-0.000203	-0.006600	
46515	    0	11.374926	29.030736	8.133507	0.646988	0.202375	-2.320155	0.117188	0.288696	0.082153	0.999927	0.003235	0.001012	-0.011600	
46516	    0	9.002852	25.756467	4.513321	0.952003	0.294890	-3.214225	0.094217	0.255855	0.046217	0.999858	0.004760	0.001474	-0.016070	
46517	    0	11.069435	30.251309	-15.361603	1.408514	-0.217267	-4.439947	0.117554	0.301025	-0.151367	0.999728	0.007042	-0.001086	-0.022198	
46518	    0	20.022015	-19.406259	-21.971056	0.374429	0.932162	-3.080884	0.196176	-0.196692	-0.220998	0.999868	0.001872	0.004661	-0.015404	
46519	    0	43.811921	-27.259112	-4.146213	-1.235305	0.194757	-4.352178	0.432007	-0.282288	-0.040161	0.999743	-0.006176	0.000974	-0.021759	
46520	    0	44.005910	26.639679	-13.352704	0.479650	-2.163384	-8.136681	0.451818	0.248483	-0.128071	0.999111	0.002398	-0.010814	-0.040671	
46521	    0	27.218680	26.169972	-6.866844	-1.149954	-0.005914	-6.423564	0.280396	0.252380	-0.070129	0.999467	-0.005749	-0.000030	-0.032112	
46522	    0	3.946724	8.136063	13.817858	-2.901373	1.214231	-5.512400	0.042559	0.082207	0.136738	0.999496	-0.014504	0.006070	-0.027557	
46523	    0	-11.463860	0.157957	15.787002	-0.681177	0.605067	-4.625367	-0.114075	0.004761	0.158203	0.999722	-0.003406	0.003025	-0.023125	
46524	    0	6.594775	7.858082	5.130103	0.331337	0.594385	-4.689846	0.067917	0.076919	0.051229	0.999719	0.001657	0.002972	-0.023447	
46525	    0	13.012107	8.651654	2.595214	-0.373106	1.542974	-4.018715	0.132019	0.083923	0.024780	0.999766	-0.001865	0.007714	-0.020092	
46526	    0	14.325959	0.466314	2.340481	-1.171382	1.608958	-3.513003	0.143496	0.002276	0.022233	0.999796	-0.005857	0.008044	-0.017564	
46527	    0	9.223027	10.104851	-0.917880	-0.529313	1.214655	-3.032823	0.093689	0.099609	-0.010010	0.999863	-0.002646	0.006073	-0.015163	
46528	    0	10.528827	8.252947	4.592374	-0.404753	1.067579	-2.622694	0.106602	0.081229	0.045192	0.999897	-0.002024	0.005338	-0.013113	
46529	    0	15.407868	4.144439	-1.688836	-0.614756	0.891902	-2.384254	0.154480	0.039551	-0.017700	0.999914	-0.003074	0.004459	-0.011921	
46530	    0	19.065117	4.347294	-0.570890	-0.550092	0.744647	-2.200179	0.191091	0.041355	-0.006536	0.999928	-0.002750	0.003723	-0.011001	
46531	    0	14.974485	6.060850	0.105936	-0.602543	0.602734	-1.954688	0.150330	0.059143	0.000427	0.999943	-0.003013	0.003014	-0.009773	
46532	    0	13.065290	5.249513	-0.435542	-0.952356	0.622951	-1.681357	0.131073	0.051372	-0.005010	0.999948	-0.004762	0.003115	-0.008407	
46533	    0	12.236847	4.566617	-1.719766	-1.066604	0.627336	-1.360340	0.122620	0.044739	-0.017822	0.999957	-0.005333	0.003137	-0.006802	
46534	    0	14.071232	5.034465	-1.998668	-0.756653	0.650222	-1.247229	0.140956	0.049389	-0.020633	0.999968	-0.003783	0.003251	-0.006236	
46535	    0	17.138048	3.320076	-3.527613	-0.708014	0.651747	-1.131450	0.171448	0.032104	-0.035950	0.999972	-0.003540	0.003259	-0.005657	
46536	    0	16.657790	1.071247	-4.226682	-1.010142	0.580794	-1.034366	0.166506	0.009636	-0.042801	0.999969	-0.005051	0.002904	-0.005172	
46537	    0	15.252273	0.590766	-3.328156	-1.244369	0.494581	-0.990307	0.152466	0.004944	-0.033691	0.999965	-0.006222	0.002473	-0.004951	
46538	    0	16.726192	2.020746	-1.755274	-1.329249	0.439650	-1.108566	0.167331	0.019161	-0.018050	0.999960	-0.006646	0.002198	-0.005543	
46539	    0	17.519254	-2.273804	-0.678171	-1.579120	0.482186	-1.084918	0.175049	-0.023743	-0.007019	0.999950	-0.007895	0.002411	-0.005424	
46540	    0	15.362043	-4.192105	-0.619402	-2.008864	0.532353	-0.981162	0.153396	-0.042736	-0.006176	0.999933	-0.010044	0.002662	-0.004906	
46541	    0	12.541602	-3.547050	-0.251500	-2.245389	0.622766	-0.914788	0.125244	-0.036072	-0.002502	0.999921	-0.011227	0.003114	-0.004574	
46542	    0	10.969570	-3.681039	0.188184	-2.437095	0.779558	-0.960380	0.109525	-0.037313	0.001907	0.999907	-0.012185	0.003898	-0.004802	
46543	    0	10.358359	-6.178404	-0.245945	-2.690034	0.873598	-0.973547	0.103271	-0.062317	-0.002075	0.999887	-0.013450	0.004368	-0.004868	
46544	    0	11.278144	-7.603123	-0.504533	-2.649977	0.866350	-1.051560	0.112359	-0.076685	-0.004519	0.999888	-0.013249	0.004332	-0.005258	
46545	    0	14.136394	-7.964645	1.299390	-2.084416	1.089702	-1.410719	0.140869	-0.080505	0.013062	0.999906	-0.010422	0.005448	-0.007053	
46546	    0	15.772987	-9.888237	0.349172	-1.135093	1.339185	-1.803827	0.156851	-0.100282	0.003006	0.999920	-0.005675	0.006696	-0.009019	
46547	    0	13.818012	-10.034987	-2.052231	0.167089	1.366655	-2.236240	0.136902	-0.101868	-0.021545	0.999913	0.000835	0.006833	-0.011181	
46548	    0	13.000387	-8.504616	-3.088860	1.900205	1.286578	-2.821696	0.128584	-0.086563	-0.032537	0.999834	0.009501	0.006433	-0.014108	
46549	    0	12.134014	-7.514758	-5.579074	2.858976	1.232442	-3.261079	0.119751	-0.076294	-0.057617	0.999745	0.014294	0.006162	-0.016304	
46550	    0	12.489011	-9.304933	-2.810673	3.349859	1.189361	-3.663270	0.122988	-0.094817	-0.030420	0.999674	0.016747	0.005946	-0.018314	
46551	    0	11.309784	-5.460529	-2.609648	3.230856	1.049928	-4.079916	0.111816	-0.056458	-0.027588	0.999647	0.016152	0.005249	-0.020397	
46552	    0	11.515165	-0.955330	-1.096034	2.157249	1.093408	-4.417314	0.114842	-0.011969	-0.011709	0.999682	0.010785	0.005466	-0.022084	
46553	    0	11.919894	-1.201152	-2.192726	1.344619	1.050668	-4.482699	0.118774	-0.014526	-0.022644	0.999712	0.006722	0.005253	-0.022411	
46554	    0	9.472222	-1.262291	-4.323079	0.478591	0.703676	-4.243800	0.094275	-0.014523	-0.043596	0.999765	0.002393	0.003518	-0.021217	
46555	    0	10.249828	0.307192	-6.626077	-0.369287	0.158893	-3.969074	0.102478	0.000916	-0.066345	0.999801	-0.001846	0.000794	-0.019844	
46556	    0	14.094632	-6.395986	-6.006509	-0.904325	0.034334	-3.576672	0.139759	-0.066737	-0.059792	0.999829	-0.004521	0.000172	-0.017882	
46557	    0	16.815991	-8.854389	-5.840756	-1.181655	-0.086979	-3.041975	0.166809	-0.091431	-0.057800	0.999866	-0.005908	-0.000435	-0.015209	
46558	    0	20.044451	-7.587982	-4.658255	-1.329852	0.000381	-2.637005	0.199418	-0.078821	-0.046065	0.999890	-0.006649	0.000002	-0.013185	
46559	    0	20.928495	-6.727940	-4.770805	-1.387632	0.069429	-2.063804	0.208557	-0.069763	-0.047302	0.999922	-0.006938	0.000347	-0.010319	
46560	    0	19.299633	-6.720098	-4.070441	-1.467920	0.018502	-1.345084	0.192533	-0.068793	-0.040221	0.999950	-0.007339	0.000093	-0.006725	
46561	    0	15.185488	-6.111773	-3.535840	-1.279461	-0.229456	-0.722510	0.151672	-0.061890	-0.034790	0.999972	-0.006397	-0.001147	-0.003613	
46562	    0	10.699433	-5.409367	-3.195718	-1.323710	-0.359729	-0.134469	0.107015	-0.054375	-0.031405	0.999976	-0.006618	-0.001799	-0.000672	
46563	    0	8.196707	-3.426290	-2.315100	-1.135834	-0.315859	0.520328	0.082092	-0.034180	-0.022827	0.999979	-0.005679	-0.001579	0.002602	
46564	    0	5.410328	-2.033291	-2.767773	-1.086437	-0.246241	1.131642	0.054252	-0.020176	-0.027501	0.999968	-0.005432	-0.001231	0.005658	
46565	    0	3.608464	-1.522067	-3.228878	-1.125929	-0.210575	1.802860	0.036255	-0.015076	-0.032166	0.999943	-0.005630	-0.001053	0.009014	
46566	    0	3.511082	-1.361383	-3.415342	-0.855280	-0.331507	2.493359	0.035335	-0.013320	-0.034038	0.999911	-0.004276	-0.001657	0.012466	
46567	    0	3.469017	-1.134593	-3.978767	-0.408191	-0.529313	3.226617	0.034973	-0.010864	-0.039673	0.999864	-0.002041	-0.002646	0.016132	
46568	    0	3.421958	-0.564019	-4.202382	-0.082975	-0.770240	3.955918	0.034484	-0.004977	-0.041889	0.999797	-0.000415	-0.003851	0.019778	
46569	    0	3.695416	-0.151254	-3.888207	0.200863	-1.006412	4.653608	0.037170	-0.000610	-0.038696	0.999716	0.001004	-0.005032	0.023266	
46570	    0	4.448643	0.042216	-3.645484	0.487388	-1.296967	5.272946	0.044688	0.001687	-0.036162	0.999628	0.002437	-0.006484	0.026361	
46571	    0	5.581162	-0.634382	-3.366556	0.696863	-1.495594	5.883178	0.056213	-0.004578	-0.033264	0.999533	0.003484	-0.007477	0.029411	
46572	    0	7.452297	-2.304848	-2.819673	0.815159	-1.593690	6.371898	0.075426	-0.020541	-0.027685	0.999452	0.004075	-0.007967	0.031854	
46573	    0	9.819662	-3.856872	-2.554762	0.871450	-1.620615	6.662551	0.099609	-0.035156	-0.024902	0.999402	0.004356	-0.008101	0.033306	
46574	    0	11.873396	-3.521400	-2.661897	0.904464	-1.649631	6.850730	0.120059	-0.030998	-0.025779	0.999369	0.004521	-0.008246	0.034246	
46575	    0	13.602217	-2.574197	-2.582472	0.960182	-1.685707	7.034336	0.137024	-0.020813	-0.024780	0.999334	0.004800	-0.008427	0.035164	
46576	    0	15.514939	-2.567747	-2.953955	1.168339	-1.795053	7.263584	0.156199	-0.019849	-0.028268	0.999283	0.005840	-0.008973	0.036309	
46577	    0	17.364811	-3.021836	-2.616828	1.599729	-2.036816	7.471887	0.174866	-0.023499	-0.024597	0.999218	0.007997	-0.010181	0.037350	
46578	    0	18.801890	-1.375683	-2.617954	2.266961	-2.347474	7.622041	0.188644	-0.006293	-0.024067	0.999141	0.011332	-0.011734	0.038099	
46579	    0	21.220632	1.672701	-2.795381	2.516164	-2.499184	7.695784	0.211670	0.025208	-0.025024	0.999103	0.012577	-0.012492	0.038467	
46580	    0	23.735813	4.005163	-3.531809	2.390426	-2.598961	7.661803	0.236010	0.049505	-0.031691	0.999110	0.011949	-0.012991	0.038298	
46581	    0	24.927340	6.320533	-4.197324	1.992010	-2.576391	7.435360	0.247192	0.072815	-0.038086	0.999176	0.009957	-0.012878	0.037167	
46582	    0	23.583445	11.498529	-4.001671	1.731539	-2.416829	7.119991	0.231988	0.123615	-0.036152	0.999255	0.008656	-0.012081	0.035591	
46583	    0	20.615445	15.963274	-2.346854	1.353741	-2.005238	6.698498	0.200867	0.166565	-0.020325	0.999366	0.006767	-0.010024	0.033485	
46584	    0	20.322612	18.508218	-0.832423	1.383057	-1.915868	5.846611	0.197760	0.190960	-0.005105	0.999502	0.006914	-0.009578	0.029228	
46585	    0	21.822438	24.288817	-0.910502	1.184216	-1.724248	4.775016	0.212402	0.248047	-0.005798	0.999660	0.005920	-0.008620	0.023872	
46586	    0	20.484004	28.781766	-0.158989	0.961369	-1.476006	3.620583	0.199583	0.291461	0.001291	0.999797	0.004807	-0.007380	0.018102	
46587	    0	16.695066	32.185525	2.067958	0.701929	-1.309060	2.528472	0.162720	0.323853	0.022888	0.999892	0.003510	-0.006545	0.012642	
46588	    0	11.378922	33.442863	6.808269	0.361257	-1.105324	1.404782	0.111056	0.335091	0.069306	0.999958	0.001806	-0.005527	0.007024	
46589	    0	7.502175	32.883311	9.503734	0.004768	-0.618745	0.234986	0.074341	0.328918	0.095276	0.999994	0.000024	-0.003094	0.001175	
46590	    0	5.261033	30.005625	8.872349	-0.258256	-0.245667	-0.908664	0.053864	0.299928	0.088402	0.999988	-0.001291	-0.001228	-0.004543	
46591	    0	8.361535	26.139313	7.570598	-0.399786	-0.025750	-1.880675	0.086060	0.260742	0.075195	0.999953	-0.001999	-0.000129	-0.009403	
46592	    0	8.965612	21.030732	5.661192	-0.130657	0.140385	-2.648241	0.092470	0.209132	0.056411	0.999911	-0.000653	0.000702	-0.013241	
46593	    0	11.268980	23.498365	-4.636494	0.740858	0.162706	-3.672243	0.116943	0.233032	-0.045593	0.999824	0.003704	0.000813	-0.018360	
46594	    0	21.130172	-15.995812	-15.058653	0.331131	1.625516	-2.855812	0.207757	-0.162690	-0.152553	0.999864	0.001656	0.008127	-0.014278	
46595	    0	40.691426	-36.012090	-3.593139	0.278678	-0.727881	-3.380754	0.400879	-0.366882	-0.034973	0.999849	0.001393	-0.003639	-0.016903	
46596	    0	44.925607	32.929236	-20.147074	0.296317	-4.213311	-8.236010	0.466409	0.310605	-0.191294	0.998929	0.001481	-0.021059	-0.041165	
46597	    0	40.939385	50.461573	-8.091341	-0.746133	1.481964	-7.177832	0.426514	0.489197	-0.085876	0.999321	-0.003730	0.007408	-0.035881	
46598	    0	6.134797	-9.882366	18.500023	-2.410054	1.692036	-4.711757	0.060601	-0.098022	0.185670	0.999614	-0.012049	0.008459	-0.023556	
46599	    0	-8.450923	-0.962958	18.816972	-1.433535	0.168629	-5.005449	-0.084534	-0.006165	0.188293	0.999660	-0.007167	0.000843	-0.025024	
46600	    0	7.029395	0.591695	7.229980	0.337825	0.187320	-4.852011	0.070476	0.004086	0.072242	0.999703	0.001689	0.000937	-0.024258	
46601	    0	14.599280	7.704968	2.355167	0.052647	1.011923	-4.089658	0.147644	0.074036	0.022827	0.999778	0.000263	0.005059	-0.020447	
46602	    0	12.981499	1.375901	1.870195	-1.076771	1.108053	-3.707944	0.130142	0.011446	0.017916	0.999798	-0.005383	0.005540	-0.018538	
46603	    0	7.379247	12.637301	-2.448518	-0.933693	0.851482	-3.183902	0.075684	0.125061	-0.025391	0.999853	-0.004668	0.004257	-0.015919	
46604	    0	9.787324	6.420660	2.232472	-0.756863	0.930628	-2.653216	0.098816	0.062983	0.021626	0.999893	-0.003784	0.004653	-0.013266	
46605	    0	12.927544	3.372177	-2.245168	-0.969535	0.807215	-2.420882	0.129578	0.032043	-0.023132	0.999907	-0.004848	0.004036	-0.012104	
46606	    0	17.120952	3.841479	-3.634436	-0.516140	0.699631	-2.114723	0.171474	0.036508	-0.037040	0.999934	-0.002581	0.003498	-0.010573	
46607	    0	16.743687	6.523998	-2.434719	-0.790230	0.650800	-1.911964	0.167969	0.063538	-0.025146	0.999941	-0.003951	0.003254	-0.009560	
46608	    0	12.505284	2.382753	-0.938652	-0.860227	0.626573	-1.569962	0.125204	0.022803	-0.009878	0.999954	-0.004301	0.003133	-0.007850	
46609	    0	11.700226	7.292827	-2.708235	-1.183145	0.653086	-1.268024	0.117371	0.072021	-0.027893	0.999956	-0.005916	0.003265	-0.006340	
46610	    0	13.356073	7.006157	-2.576010	-1.027309	0.686272	-1.048481	0.133835	0.069225	-0.026576	0.999967	-0.005136	0.003431	-0.005242	
46611	    0	15.605046	1.697300	-3.589232	-0.941285	0.679023	-0.961313	0.156006	0.016052	-0.036499	0.999971	-0.004706	0.003395	-0.004807	
46612	    0	15.692569	0.165830	-3.110669	-0.992974	0.609785	-0.855072	0.156835	0.000832	-0.031590	0.999973	-0.004965	0.003049	-0.004275	
46613	    0	15.507149	1.800366	-2.009620	-1.210798	0.551802	-0.861368	0.155090	0.017212	-0.020630	0.999969	-0.006054	0.002759	-0.004307	
46614	    0	15.930373	2.636746	-1.804828	-1.461622	0.529678	-0.956167	0.159378	0.025471	-0.018659	0.999958	-0.007308	0.002648	-0.004781	
46615	    0	16.800702	-2.544519	-1.333503	-1.857794	0.544177	-0.949115	0.167847	-0.026367	-0.013550	0.999942	-0.009289	0.002721	-0.004745	
46616	    0	16.383366	-4.653537	-0.296370	-2.218684	0.601784	-0.874923	0.163619	-0.047284	-0.002934	0.999924	-0.011093	0.003009	-0.004375	
46617	    0	14.236535	-3.068403	-0.373999	-2.443578	0.682851	-0.901822	0.142212	-0.031372	-0.003845	0.999908	-0.012218	0.003414	-0.004509	
46618	    0	12.797475	-5.653719	-0.959434	-2.745352	0.821908	-0.968589	0.127660	-0.057285	-0.009336	0.999886	-0.013726	0.004109	-0.004843	
46619	    0	12.029429	-9.495833	-2.035071	-2.806969	0.870740	-1.084181	0.119690	-0.095886	-0.019531	0.999877	-0.014034	0.004354	-0.005421	
46620	    0	12.499110	-10.972628	-1.412482	-2.451984	0.831252	-1.367427	0.124180	-0.110744	-0.013288	0.999892	-0.012259	0.004156	-0.006837	
46621	    0	15.305935	-8.723592	-0.008170	-1.722774	1.129378	-1.897492	0.152222	-0.088684	-0.000183	0.999902	-0.008614	0.005647	-0.009487	
46622	    0	15.452456	-11.452818	-0.159821	-0.727485	1.336330	-2.272867	0.153196	-0.116282	-0.002204	0.999906	-0.003637	0.006681	-0.011364	
46623	    0	12.284071	-10.978189	-2.236980	0.621251	1.389374	-2.860385	0.121094	-0.111450	-0.023560	0.999868	0.003106	0.006947	-0.014301	
46624	    0	11.855898	-9.319146	-3.978019	2.130102	1.334485	-3.514945	0.116629	-0.094816	-0.041567	0.999766	0.010650	0.006672	-0.017573	
46625	    0	12.108701	-9.154908	-5.878750	2.866096	1.131559	-3.997464	0.118896	-0.093079	-0.060791	0.999681	0.014329	0.005657	-0.019985	
46626	    0	12.819125	-8.820260	-3.826367	2.855250	1.041915	-4.310535	0.126053	-0.090370	-0.040204	0.999652	0.014275	0.005209	-0.021550	
46627	    0	12.343238	-4.362065	-2.526279	2.331240	1.039244	-4.607161	0.122253	-0.046143	-0.026428	0.999653	0.011655	0.005196	-0.023033	
46628	    0	12.437568	-0.778475	-1.763939	1.179819	1.175050	-4.739878	0.124040	-0.010620	-0.018426	0.999684	0.005898	0.005875	-0.023697	
46629	    0	10.840184	-1.405614	-3.279320	0.083359	1.198687	-4.511671	0.107849	-0.016479	-0.033447	0.999727	0.000417	0.005993	-0.022556	
46630	    0	9.330674	-5.314200	-3.228385	-0.181783	0.832616	-4.001706	0.092083	-0.055022	-0.032619	0.999790	-0.000909	0.004163	-0.020007	
46631	    0	11.741202	-7.235080	-5.351765	-0.198185	0.457791	-3.747019	0.115906	-0.074585	-0.053711	0.999821	-0.000991	0.002289	-0.018734	
46632	    0	13.734986	-13.057565	-4.932794	0.110822	0.366608	-3.153934	0.135178	-0.132691	-0.049650	0.999873	0.000554	0.001833	-0.015769	
46633	    0	15.401437	-9.860875	-4.680891	0.279245	0.222976	-2.748959	0.152588	-0.100647	-0.047119	0.999904	0.001396	0.001115	-0.013744	
46634	    0	16.780903	-6.360827	-4.418641	0.068857	0.184445	-2.361353	0.167002	-0.065568	-0.044363	0.999929	0.000344	0.000922	-0.011806	
46635	    0	18.026489	-4.510838	-4.858370	-0.320248	0.218204	-1.741051	0.179810	-0.046753	-0.048706	0.999960	-0.001601	0.001091	-0.008705	
46636	    0	18.126111	-5.315246	-4.627750	-0.658039	0.214197	-0.995451	0.180943	-0.054206	-0.046294	0.999981	-0.003290	0.001071	-0.004977	
46637	    0	15.190817	-7.067207	-4.378929	-0.718500	0.058746	-0.284577	0.151794	-0.071045	-0.043579	0.999992	-0.003592	0.000294	-0.001423	
46638	    0	11.437979	-6.856675	-3.699712	-0.551606	-0.113678	0.393105	0.114535	-0.068443	-0.036743	0.999993	-0.002758	-0.000568	0.001966	
46639	    0	8.914710	-4.768155	-3.654368	-0.531009	-0.091363	1.065833	0.089417	-0.047302	-0.036377	0.999982	-0.002655	-0.000457	0.005329	
46640	    0	6.421429	-1.492292	-4.141695	-0.809683	0.116732	1.820404	0.064323	-0.014505	-0.041395	0.999949	-0.004048	0.000584	0.009102	
46641	    0	5.472337	-0.988126	-3.618154	-0.932342	0.206954	2.597892	0.054810	-0.009338	-0.036194	0.999904	-0.004662	0.001035	0.012989	
46642	    0	5.568603	-1.369265	-3.435403	-0.802460	0.002098	3.276790	0.055902	-0.012916	-0.034302	0.999857	-0.004012	0.000010	0.016383	
46643	    0	5.380266	-0.577138	-3.756455	-0.645300	-0.268573	3.972132	0.053955	-0.004822	-0.037476	0.999796	-0.003226	-0.001343	0.019859	
46644	    0	5.425476	-0.079287	-3.530477	-0.508737	-0.490616	4.671531	0.054341	0.000386	-0.035172	0.999721	-0.002543	-0.002453	0.023355	
46645	    0	5.817998	0.214847	-3.403622	-0.195336	-0.775812	5.313750	0.058228	0.003662	-0.033813	0.999639	-0.000977	-0.003879	0.026566	
46646	    0	6.435544	0.359575	-3.361233	-0.005723	-1.090786	5.902604	0.064394	0.005495	-0.033261	0.999549	-0.000029	-0.005453	0.029509	
46647	    0	7.290886	-0.184141	-2.931797	0.113126	-1.394898	6.332744	0.073120	0.000488	-0.028809	0.999474	0.000566	-0.006973	0.031658	
46648	    0	8.681157	-1.483193	-2.919702	0.208133	-1.626907	6.673028	0.087475	-0.011890	-0.028501	0.999410	0.001040	-0.008133	0.033359	
46649	    0	10.473798	-2.345688	-2.849939	0.360947	-1.801491	6.890040	0.105713	-0.019775	-0.027588	0.999364	0.001804	-0.009006	0.034443	
46650	    0	11.987032	-1.760705	-3.083190	0.500982	-1.973786	7.054578	0.120687	-0.013284	-0.029680	0.999326	0.002504	-0.009867	0.035265	
46651	    0	13.645918	-1.365555	-3.598679	0.499272	-2.141320	7.245078	0.137207	-0.008606	-0.034546	0.999283	0.002496	-0.010704	0.036217	
46652	    0	15.171010	-1.886207	-3.065159	0.810260	-2.405405	7.445729	0.152623	-0.013071	-0.028880	0.999227	0.004050	-0.012024	0.037219	
46653	    0	16.751391	-1.833400	-3.579017	1.385128	-2.754802	7.655218	0.168518	-0.011658	-0.033569	0.999148	0.006924	-0.013770	0.038265	
46654	    0	19.941142	0.156610	-3.484407	1.845916	-2.986854	7.743306	0.199634	0.009597	-0.031799	0.999096	0.009227	-0.014930	0.038705	
46655	    0	23.005951	3.637031	-3.470769	2.108641	-3.157047	7.641631	0.228943	0.045471	-0.030640	0.999089	0.010540	-0.015780	0.038197	
46656	    0	25.235824	6.707278	-3.146020	1.936507	-3.164616	7.364261	0.250103	0.076586	-0.026779	0.999149	0.009680	-0.015819	0.036811	
46657	    0	26.433120	12.158700	0.052367	1.596653	-2.789229	6.977271	0.259827	0.130676	0.005188	0.999262	0.007981	-0.013943	0.034878	
46658	    0	23.250401	17.105520	2.492969	1.183566	-2.058077	6.664903	0.226357	0.178507	0.028322	0.999373	0.005917	-0.010288	0.033318	
46659	    0	20.272125	21.941923	1.545189	0.579926	-1.738062	5.901513	0.195984	0.225220	0.017822	0.999522	0.002899	-0.008689	0.029503	
46660	    0	20.125073	25.325773	-0.802636	-0.034526	-1.284535	4.691205	0.195284	0.257884	-0.006804	0.999703	-0.000173	-0.006422	0.023454	
46661	    0	18.605332	27.591388	0.041457	0.096326	-1.068936	3.433413	0.181274	0.279053	0.001526	0.999838	0.000482	-0.005344	0.017166	
46662	    0	15.006052	31.648288	4.207626	0.414287	-1.089888	2.218305	0.146304	0.318030	0.043538	0.999921	0.002071	-0.005449	0.011091	
46663	    0	9.524111	32.953934	8.317038	0.359347	-0.991639	0.948342	0.093262	0.329834	0.084229	0.999974	0.001797	-0.004958	0.004742	
46664	    0	7.226691	32.206562	9.939678	0.071716	-0.531198	-0.367928	0.072595	0.321897	0.099705	0.999994	0.000359	-0.002656	-0.001840	
46665	    0	8.319276	28.650385	10.764737	-0.368503	0.007820	-1.488509	0.085327	0.286072	0.107117	0.999970	-0.001842	0.000039	-0.007442	
46666	    0	9.216214	22.089497	10.587054	-0.326736	0.432025	-2.306611	0.094931	0.219983	0.105308	0.999929	-0.001634	0.002160	-0.011533	
46667	    0	10.799966	17.444889	5.701146	-0.055697	0.364891	-3.157939	0.110840	0.172729	0.056763	0.999873	-0.000278	0.001824	-0.015789	
46668	    0	7.007232	17.064488	-3.235780	1.037090	0.037005	-3.725666	0.073231	0.169465	-0.031490	0.999812	0.005185	0.000185	-0.018627	
46669	    0	12.995591	-5.006873	-23.625679	1.957839	0.391606	-3.560886	0.128601	-0.050049	-0.237000	0.999791	0.009789	0.001958	-0.017803	
46670	    0	35.715450	-36.130395	-10.903283	0.494977	0.538466	-3.034524	0.351324	-0.366391	-0.110887	0.999878	0.002475	0.002692	-0.015172	
46671	    0	52.599069	18.307200	-11.574522	0.694682	-3.070261	-8.050755	0.534485	0.162048	-0.106995	0.999065	0.003472	-0.015347	-0.040241	
46672	    0	40.793600	43.745252	-10.798555	0.557266	-0.125533	-7.444394	0.423909	0.422168	-0.106532	0.999303	0.002786	-0.000628	-0.037213	
46673	    0	14.635585	14.834775	15.552517	-2.604167	1.853497	-5.552097	0.151855	0.146179	0.152222	0.999487	-0.013019	0.009266	-0.027756	
46674	    0	-10.320200	-5.606047	19.582247	-1.674258	0.720101	-4.717567	-0.103753	-0.051973	0.196642	0.999680	-0.008370	0.003600	-0.023585	
46675	    0	1.584543	2.983578	9.453170	-0.244738	0.158708	-5.007697	0.016663	0.029541	0.094482	0.999685	-0.001224	0.000793	-0.025036	
46676	    0	12.150634	8.561397	2.594435	-0.097283	0.989043	-4.368194	0.123464	0.082944	0.025296	0.999748	-0.000486	0.004945	-0.021839	
46677	    0	16.502102	1.203161	2.608656	-1.480988	1.491098	-3.927937	0.165405	0.008972	0.024780	0.999751	-0.007404	0.007455	-0.019638	
46678	    0	7.341454	6.914016	-3.317363	-1.334846	1.091835	-3.466823	0.074411	0.067631	-0.034033	0.999812	-0.006674	0.005459	-0.017333	
46679	    0	7.937834	9.065813	1.321459	-0.595119	1.082850	-3.033583	0.080811	0.089478	0.012512	0.999866	-0.002975	0.005414	-0.015167	
46680	    0	12.608733	5.096571	-0.161387	-1.017803	0.982897	-2.813455	0.126777	0.049174	-0.002489	0.999876	-0.005089	0.004914	-0.014067	
46681	    0	16.279856	4.053634	-0.306725	-0.257690	0.817132	-2.475046	0.163269	0.038513	-0.003784	0.999914	-0.001288	0.004086	-0.012375	
46682	    0	15.595119	6.236520	-1.170256	-0.741216	0.704212	-2.319780	0.156617	0.060506	-0.012480	0.999919	-0.003706	0.003521	-0.011599	
46683	    0	12.728908	5.374955	-2.149001	-0.798815	0.712792	-2.027938	0.127747	0.052368	-0.022156	0.999934	-0.003994	0.003564	-0.010139	
46684	    0	10.615624	6.657141	-2.084228	-0.922409	0.642215	-1.671819	0.106639	0.065583	-0.021488	0.999949	-0.004612	0.003211	-0.008359	
46685	    0	12.328004	8.503659	-2.590499	-0.922979	0.710306	-1.406117	0.123779	0.084045	-0.026733	0.999958	-0.004615	0.003551	-0.007030	
46686	    0	14.804861	6.017615	-2.509798	-0.845537	0.708969	-1.143658	0.148298	0.059220	-0.025875	0.999968	-0.004228	0.003545	-0.005718	
46687	    0	16.213074	2.976926	-2.799130	-1.037609	0.746354	-1.002513	0.162170	0.028809	-0.028748	0.999967	-0.005188	0.003732	-0.005013	
46688	    0	15.934101	1.339264	-1.805114	-1.142896	0.734909	-0.861177	0.159328	0.012601	-0.018710	0.999968	-0.005714	0.003675	-0.004306	
46689	    0	16.058936	2.655666	-1.705345	-1.303880	0.746355	-0.929272	0.160645	0.025696	-0.017822	0.999961	-0.006519	0.003732	-0.004646	
46690	    0	16.757772	0.890100	-1.766585	-1.385709	0.703631	-1.036850	0.167557	0.007907	-0.018312	0.999956	-0.006928	0.003518	-0.005184	
46691	    0	17.360447	-4.375645	-0.928136	-1.552417	0.674450	-1.048296	0.173340	-0.044739	-0.009521	0.999950	-0.007762	0.003372	-0.005241	
46692	    0	16.827714	-3.451700	-1.013846	-1.662666	0.683606	-1.054211	0.168056	-0.035489	-0.010421	0.999946	-0.008313	0.003418	-0.005271	
46693	    0	16.137246	-4.750288	-1.467654	-1.737246	0.711264	-1.030751	0.161072	-0.048462	-0.014832	0.999942	-0.008686	0.003556	-0.005154	
46694	    0	15.698103	-6.626777	-2.398278	-1.916929	0.770205	-1.118113	0.156514	-0.067373	-0.023944	0.999930	-0.009584	0.003851	-0.005590	
46695	    0	14.147244	-8.064301	-2.504262	-2.193324	0.807213	-1.235998	0.140869	-0.081787	-0.024719	0.999912	-0.010966	0.004036	-0.006180	
46696	    0	13.637657	-9.341398	-1.011403	-2.268677	0.919945	-1.442195	0.135653	-0.094505	-0.009671	0.999899	-0.011343	0.004600	-0.007211	
46697	    0	16.102675	-9.862812	0.800645	-1.874418	1.252791	-1.848668	0.160156	-0.100037	0.007935	0.999893	-0.009372	0.006264	-0.009243	
46698	    0	15.791615	-12.546341	-0.576605	-0.668547	1.260606	-2.350500	0.156388	-0.127328	-0.006331	0.999905	-0.003343	0.006303	-0.011752	
46699	    0	14.209285	-11.028534	-2.342627	0.969742	1.153810	-3.034355	0.140259	-0.112305	-0.024780	0.999856	0.004848	0.005769	-0.015171	
46700	    0	14.417895	-8.378818	-4.777383	2.397542	1.026619	-3.577143	0.142406	-0.085759	-0.049528	0.999755	0.011987	0.005133	-0.017884	
46701	    0	14.241739	-8.483564	-3.968648	2.440863	0.995916	-3.823433	0.140564	-0.087036	-0.041443	0.999730	0.012203	0.004979	-0.019115	
46702	    0	12.798935	-4.921345	-3.007779	2.251455	0.861249	-4.092792	0.126819	-0.051470	-0.031197	0.999718	0.011256	0.004306	-0.020462	
46703	    0	11.708025	-0.660222	-3.067023	1.245420	0.904928	-4.386534	0.116760	-0.008972	-0.031250	0.999729	0.006227	0.004524	-0.021931	
46704	    0	11.469490	-1.634569	-3.610928	0.058179	0.979698	-4.422184	0.114118	-0.018863	-0.036674	0.999743	0.000291	0.004898	-0.022109	
46705	    0	8.057414	-4.207793	-2.884914	-0.618597	0.843871	-3.990456	0.079590	-0.043762	-0.029053	0.999786	-0.003093	0.004219	-0.019951	
46706	    0	9.449022	-2.948335	-6.638210	-0.813535	0.263421	-3.768774	0.093822	-0.031526	-0.066381	0.999813	-0.004067	0.001317	-0.018843	
46707	    0	12.340088	-13.748651	-5.837307	-0.521680	0.154883	-2.995416	0.121277	-0.139465	-0.058105	0.999884	-0.002608	0.000774	-0.014977	
46708	    0	14.252638	-11.819608	-5.448244	-0.225836	-0.042535	-2.550004	0.141015	-0.120062	-0.054317	0.999918	-0.001129	-0.000213	-0.012750	
46709	    0	15.070653	-8.686592	-4.888007	-0.021935	-0.218968	-2.089730	0.149841	-0.088440	-0.048706	0.999945	-0.000110	-0.001095	-0.010448	
46710	    0	15.668703	-5.888559	-4.335260	-0.120164	-0.225451	-1.509300	0.156285	-0.060092	-0.043140	0.999970	-0.000601	-0.001127	-0.007546	
46711	    0	15.338835	-4.594142	-4.167605	-0.360681	-0.274659	-0.801852	0.153259	-0.046631	-0.041382	0.999989	-0.001803	-0.001373	-0.004009	
46712	    0	13.351012	-5.554053	-3.265382	-0.530625	-0.387383	-0.110626	0.133542	-0.055700	-0.032248	0.999994	-0.002653	-0.001937	-0.000553	
46713	    0	10.436185	-6.641710	-2.516138	-0.318719	-0.527193	0.563814	0.104614	-0.066162	-0.024780	0.999990	-0.001594	-0.002636	0.002819	
46714	    0	8.327221	-4.881709	-2.561226	-0.060845	-0.529675	1.243601	0.083641	-0.048306	-0.025376	0.999977	-0.000304	-0.002648	0.006218	
46715	    0	5.996483	-1.586364	-3.352214	-0.236515	-0.391204	1.940950	0.060181	-0.015320	-0.033386	0.999949	-0.001183	-0.001956	0.009705	
46716	    0	4.429203	-0.329265	-3.127448	-0.587481	-0.359165	2.613338	0.044387	-0.002805	-0.031186	0.999908	-0.002937	-0.001796	0.013066	
46717	    0	4.415609	-0.550318	-2.978839	-0.637656	-0.492882	3.231198	0.044312	-0.004883	-0.029663	0.999861	-0.003188	-0.002464	0.016155	
46718	    0	5.046069	-0.683331	-3.427317	-0.571480	-0.622981	3.898688	0.050689	-0.005944	-0.034098	0.999801	-0.002857	-0.003115	0.019492	
46719	    0	5.453431	-0.771240	-3.153023	-0.440065	-0.745459	4.571183	0.054810	-0.006531	-0.031311	0.999729	-0.002200	-0.003727	0.022854	
46720	    0	5.625119	-0.757571	-2.953458	-0.176832	-0.973243	5.208435	0.056566	-0.006131	-0.029254	0.999648	-0.000884	-0.004866	0.026039	
46721	    0	6.368505	-0.441332	-3.054723	-0.020412	-1.238432	5.801479	0.063965	-0.002563	-0.030151	0.999559	-0.000102	-0.006191	0.029003	
46722	    0	7.393450	-0.192552	-2.860418	-0.039489	-1.414925	6.284274	0.074146	0.000397	-0.028080	0.999481	-0.000197	-0.007073	0.031416	
46723	    0	8.452623	-1.123190	-2.457922	-0.082986	-1.530753	6.643438	0.085022	-0.008423	-0.023926	0.999418	-0.000415	-0.007652	0.033211	
46724	    0	9.916023	-2.197659	-2.350862	-0.011828	-1.671765	6.939645	0.100035	-0.018517	-0.022674	0.999363	-0.000059	-0.008357	0.034691	
46725	    0	11.613901	-1.976757	-2.876795	0.122861	-1.830519	7.172506	0.117004	-0.015564	-0.027710	0.999314	0.000614	-0.009151	0.035854	
46726	    0	13.980039	-1.997830	-3.274705	0.097489	-1.949215	7.412054	0.140722	-0.014758	-0.031386	0.999266	0.000487	-0.009744	0.037051	
46727	    0	16.204879	-2.520843	-2.802068	0.364971	-2.228365	7.588652	0.163147	-0.018982	-0.026245	0.999216	0.001824	-0.011139	0.037933	
46728	    0	18.474807	-2.390099	-3.338859	0.892892	-2.554855	7.790675	0.185895	-0.016531	-0.031103	0.999149	0.004463	-0.012771	0.038942	
46729	    0	21.673765	-0.637688	-3.488227	1.455366	-2.843383	7.903394	0.217224	0.002441	-0.031799	0.999091	0.007275	-0.014213	0.039505	
46730	    0	24.798280	2.188929	-3.757759	1.911565	-3.078080	7.830569	0.247400	0.031919	-0.033493	0.999069	0.009555	-0.015386	0.039141	
46731	    0	27.601753	4.891137	-2.724560	1.860012	-3.102246	7.502626	0.274292	0.059448	-0.022461	0.999132	0.009297	-0.015507	0.037502	
46732	    0	28.059131	10.691448	-0.403229	1.714564	-2.820913	7.019086	0.276621	0.116677	0.000861	0.999248	0.008571	-0.014101	0.035087	
46733	    0	24.978580	15.449420	1.667934	1.420132	-2.188384	6.645851	0.244263	0.162537	0.020508	0.999362	0.007099	-0.010940	0.033222	
46734	    0	22.345246	20.099127	1.304985	1.058556	-1.847560	5.792202	0.217370	0.207266	0.016163	0.999523	0.005292	-0.009236	0.028956	
46735	    0	20.891892	25.720936	-0.543055	0.615752	-1.479293	4.566638	0.203003	0.261902	-0.003113	0.999707	0.003078	-0.007396	0.022831	
46736	    0	17.684649	29.290048	0.185577	0.639378	-1.259110	3.333465	0.171912	0.295783	0.003891	0.999836	0.003197	-0.006295	0.016666	
46737	    0	14.353265	33.054315	3.999955	0.904109	-1.220547	2.117217	0.139771	0.331848	0.042358	0.999915	0.004520	-0.006103	0.010586	
46738	    0	9.979676	35.131640	7.567443	0.755699	-1.054012	0.880632	0.097844	0.351460	0.077521	0.999969	0.003778	-0.005270	0.004403	
46739	    0	6.800562	33.635103	9.089730	0.303651	-0.603296	-0.447084	0.068481	0.336060	0.091614	0.999991	0.001518	-0.003016	-0.002235	
46740	    0	6.849591	30.524732	9.906049	-0.268748	-0.087739	-1.600665	0.070893	0.304819	0.098681	0.999967	-0.001344	-0.000439	-0.008003	
46741	    0	8.078395	24.929499	10.076831	-0.385104	0.315102	-2.446047	0.083984	0.248474	0.100159	0.999922	-0.001925	0.001575	-0.012230	
46742	    0	10.175960	20.049245	5.604432	-0.332466	0.324836	-3.256945	0.105098	0.198892	0.055544	0.999865	-0.001662	0.001624	-0.016284	
46743	    0	8.410209	15.921979	-2.153654	0.744867	0.254838	-3.821043	0.087097	0.157654	-0.021057	0.999809	0.003724	0.001274	-0.019104	
46744	    0	15.709878	-17.949456	-16.165644	1.610275	1.192351	-3.089889	0.153341	-0.180569	-0.164029	0.999830	0.008051	0.005961	-0.015449	
46745	    0	39.701798	-35.362417	-1.219748	1.031737	0.649294	-3.273940	0.391113	-0.359985	-0.015320	0.999847	0.005158	0.003246	-0.016369	
46746	    0	52.494430	24.117805	-10.322168	1.691589	-2.778358	-8.074258	0.535475	0.220518	-0.093906	0.999053	0.008455	-0.013887	-0.040359	
46747	    0	37.144178	37.242813	-9.769746	0.287117	-0.357131	-7.099886	0.384521	0.359070	-0.096497	0.999367	0.001435	-0.001785	-0.035492	
46748	    0	11.590847	10.911907	13.303535	-2.054544	1.293199	-5.704649	0.119835	0.107092	0.131162	0.999519	-0.010271	0.006465	-0.028519	
46749	    0	-10.210017	-4.879385	16.672266	-1.064223	0.757679	-4.869595	-0.102600	-0.045410	0.167358	0.999681	-0.005321	0.003788	-0.024345	
46750	    0	5.179036	6.234162	8.919231	0.134101	0.155465	-5.043947	0.053409	0.060948	0.089192	0.999681	0.000670	0.000777	-0.025217	
46751	    0	12.519655	8.051371	0.835097	0.148213	1.137639	-4.350648	0.126953	0.077759	0.007690	0.999746	0.000741	0.005688	-0.021751	
46752	    0	13.997932	3.079914	0.630449	-1.499873	1.654191	-3.874148	0.140586	0.028120	0.004926	0.999749	-0.007499	0.008270	-0.019369	
46753	    0	5.744149	6.347269	-0.992020	-1.348960	1.372040	-3.315938	0.058411	0.062439	-0.010742	0.999816	-0.006744	0.006860	-0.016579	
46754	    0	8.408703	12.107231	-0.155985	-0.842895	1.327001	-2.856763	0.085790	0.119845	-0.002632	0.999866	-0.004214	0.006635	-0.014283	
46755	    0	12.663146	3.399463	0.302889	-1.142928	1.110311	-2.615459	0.127075	0.032349	0.002136	0.999883	-0.005714	0.005551	-0.013077	
46756	    0	15.316446	4.825094	-2.635332	-0.514997	0.870727	-2.237758	0.153574	0.046465	-0.027143	0.999924	-0.002575	0.004354	-0.011189	
46757	    0	16.035234	5.105069	-1.161602	-0.871107	0.769061	-2.092793	0.160828	0.049316	-0.012451	0.999928	-0.004355	0.003845	-0.010464	
46758	    0	13.677396	4.804842	-0.156068	-0.800529	0.758948	-1.822888	0.137197	0.046791	-0.002270	0.999943	-0.004003	0.003795	-0.009114	
46759	    0	12.424354	3.761452	-0.465369	-0.988023	0.761617	-1.556422	0.124512	0.036621	-0.005310	0.999949	-0.004940	0.003808	-0.007782	
46760	    0	13.008890	8.262065	-2.383888	-0.971998	0.797855	-1.324481	0.130534	0.081638	-0.024757	0.999958	-0.004860	0.003989	-0.006622	
46761	    0	15.792899	4.451014	-2.690446	-0.812349	0.794229	-1.191725	0.158081	0.043457	-0.027710	0.999966	-0.004062	0.003971	-0.005959	
46762	    0	17.133931	0.758323	-2.939793	-0.906764	0.773248	-1.105321	0.171262	0.006501	-0.030091	0.999967	-0.004534	0.003866	-0.005527	
46763	    0	16.297050	1.399401	-2.137696	-1.055158	0.719651	-1.078046	0.162964	0.013000	-0.022034	0.999965	-0.005276	0.003598	-0.005390	
46764	    0	16.735613	2.835752	-1.769679	-1.166931	0.665864	-1.165215	0.167457	0.027276	-0.018415	0.999960	-0.005835	0.003329	-0.005826	
46765	    0	17.050281	-0.869263	-1.007073	-1.364921	0.648700	-1.247426	0.170410	-0.009827	-0.010559	0.999951	-0.006824	0.003243	-0.006237	
46766	    0	16.090313	-4.065914	-0.812167	-1.635011	0.683988	-1.219964	0.160623	-0.041707	-0.008333	0.999942	-0.008175	0.003420	-0.006100	
46767	    0	14.432235	-4.502468	-0.411114	-1.870769	0.731103	-1.158168	0.144043	-0.045898	-0.004211	0.999932	-0.009354	0.003655	-0.005791	
46768	    0	13.460449	-3.279152	-0.688723	-2.067432	0.848793	-1.260220	0.134364	-0.033711	-0.007113	0.999917	-0.010337	0.004244	-0.006301	
46769	    0	13.224197	-6.223809	-1.185803	-2.358327	1.005780	-1.296279	0.131775	-0.063232	-0.011780	0.999896	-0.011791	0.005029	-0.006481	
46770	    0	13.746250	-8.697719	-2.217706	-2.550608	1.078458	-1.355606	0.136749	-0.088185	-0.021796	0.999881	-0.012753	0.005392	-0.006778	
46771	    0	14.866133	-9.478562	-0.734885	-2.416133	1.113935	-1.534332	0.147888	-0.096008	-0.007019	0.999882	-0.012080	0.005569	-0.007671	
46772	    0	17.798300	-8.765674	0.032965	-1.919442	1.451932	-1.960642	0.177113	-0.089396	-0.000106	0.999879	-0.009597	0.007259	-0.009803	
46773	    0	16.648967	-11.194598	-2.513734	-1.133008	1.524601	-2.324001	0.164978	-0.114014	-0.025757	0.999887	-0.005665	0.007623	-0.011620	
46774	    0	14.147801	-10.014469	-4.725387	0.322928	1.385366	-2.857711	0.139696	-0.102072	-0.048389	0.999872	0.001615	0.006927	-0.014288	
46775	    0	14.433843	-8.251729	-7.031763	2.035861	1.276490	-3.409061	0.142456	-0.084229	-0.072083	0.999783	0.010179	0.006382	-0.017044	
46776	    0	14.591041	-8.675251	-5.439692	2.728724	1.282243	-3.738572	0.143907	-0.088694	-0.056525	0.999711	0.013642	0.006411	-0.018691	
46777	    0	12.508189	-5.326804	-3.795272	2.469317	1.191834	-4.140898	0.123718	-0.055359	-0.039368	0.999691	0.012345	0.005959	-0.020702	
46778	    0	11.944325	-1.242196	-3.024023	1.537859	1.209762	-4.505801	0.118940	-0.014869	-0.031069	0.999698	0.007689	0.006048	-0.022527	
46779	    0	12.526953	-0.940801	-4.237281	0.572450	1.195639	-4.579596	0.124756	-0.012146	-0.043152	0.999716	0.002862	0.005978	-0.022896	
46780	    0	10.071795	-1.711041	-5.237638	-0.310159	0.959663	-4.242470	0.100071	-0.019320	-0.052829	0.999762	-0.001551	0.004798	-0.021211	
46781	    0	12.005364	-1.505372	-7.496217	-1.215261	0.561564	-3.965286	0.119507	-0.017883	-0.075195	0.999781	-0.006076	0.002808	-0.019825	
46782	    0	15.234431	-11.620440	-7.074766	-1.238314	0.458169	-3.240941	0.150269	-0.119087	-0.070362	0.999846	-0.006191	0.002291	-0.016204	
46783	    0	16.881895	-11.649119	-5.206020	-0.867491	0.250443	-2.672666	0.167175	-0.118958	-0.051758	0.999900	-0.004337	0.001252	-0.013363	
46784	    0	17.546942	-9.390564	-4.388139	-0.433550	0.163273	-2.231265	0.174371	-0.095950	-0.043818	0.999934	-0.002168	0.000816	-0.011156	
46785	    0	16.437300	-6.585402	-3.836151	-0.123598	0.086404	-1.612109	0.163818	-0.067200	-0.038391	0.999967	-0.000618	0.000432	-0.008060	
46786	    0	14.405361	-4.884738	-4.014050	0.021553	-0.063515	-0.853923	0.143856	-0.049458	-0.040100	0.999990	0.000108	-0.000318	-0.004270	
46787	    0	11.204675	-5.919522	-3.625106	0.189400	-0.202179	-0.077057	0.112061	-0.059204	-0.036194	0.999998	0.000947	-0.001011	-0.000385	
46788	    0	8.495168	-6.342913	-2.977146	0.428582	-0.304032	0.619318	0.085193	-0.063102	-0.029778	0.999991	0.002143	-0.001520	0.003097	
46789	    0	6.942316	-4.848720	-2.742782	0.613408	-0.314906	1.232920	0.069763	-0.047974	-0.027466	0.999974	0.003067	-0.001575	0.006165	
46790	    0	5.603386	-2.049048	-2.474634	0.582323	-0.311475	1.878388	0.056261	-0.019891	-0.024717	0.999950	0.002912	-0.001557	0.009392	
46791	    0	4.663301	-0.133104	-2.352956	0.508133	-0.404179	2.571181	0.046692	-0.000671	-0.023438	0.999911	0.002541	-0.002021	0.012856	
46792	    0	4.098405	-0.010393	-2.806023	0.461600	-0.564029	3.273545	0.041057	0.000632	-0.027944	0.999859	0.002308	-0.002820	0.016367	
46793	    0	3.583150	-0.029939	-3.345773	0.409155	-0.735525	4.006475	0.035950	0.000488	-0.033325	0.999790	0.002046	-0.003677	0.020031	
46794	    0	3.120325	-0.049245	-3.285324	0.440449	-0.938315	4.695582	0.031356	0.000315	-0.032706	0.999710	0.002202	-0.004691	0.023476	
46795	    0	3.468365	0.078915	-3.518350	0.639424	-1.181752	5.344304	0.034851	0.001831	-0.034973	0.999619	0.003197	-0.005908	0.026718	
46796	    0	4.331148	0.077251	-3.373872	0.601480	-1.371214	5.907019	0.043491	0.002156	-0.033436	0.999536	0.003007	-0.006855	0.029531	
46797	    0	5.488361	-0.363609	-2.776946	0.434953	-1.564877	6.336579	0.055176	-0.001831	-0.027344	0.999465	0.002174	-0.007823	0.031677	
46798	    0	7.095005	-1.091722	-2.611802	0.256017	-1.731070	6.657007	0.071483	-0.008511	-0.025513	0.999408	0.001280	-0.008654	0.033278	
46799	    0	8.843514	-1.529861	-2.353956	0.081080	-1.889445	6.934323	0.089111	-0.012207	-0.022705	0.999353	0.000405	-0.009445	0.034664	
46800	    0	10.314907	-1.328505	-2.646622	-0.034531	-2.047060	7.178447	0.103801	-0.009571	-0.025404	0.999303	-0.000173	-0.010233	0.035884	
46801	    0	12.163960	-2.151169	-2.808763	-0.211386	-2.182355	7.377156	0.122620	-0.017029	-0.026733	0.999259	-0.001057	-0.010909	0.036877	
46802	    0	13.974066	-2.305422	-2.249769	0.130497	-2.501579	7.573801	0.140746	-0.017722	-0.020754	0.999204	0.000652	-0.012505	0.037859	
46803	    0	15.999426	-1.205423	-2.597964	0.565500	-2.815864	7.787269	0.160645	-0.005737	-0.023743	0.999139	0.002827	-0.014075	0.038925	
46804	    0	19.583245	0.433878	-2.565912	0.803428	-3.038564	7.925908	0.195812	0.012196	-0.022645	0.999091	0.004016	-0.015188	0.039618	
46805	    0	23.422739	1.951893	-2.549685	0.837961	-3.182993	7.862945	0.233582	0.028809	-0.021667	0.999091	0.004189	-0.015910	0.039303	
46806	    0	27.082897	5.035217	-1.814427	0.607853	-3.246845	7.551996	0.268915	0.060578	-0.013594	0.999150	0.003038	-0.016230	0.037749	
46807	    0	29.187044	10.186350	0.101646	0.422775	-2.978314	7.182601	0.287903	0.112244	0.005554	0.999242	0.002113	-0.014888	0.035904	
46808	    0	26.905798	14.737397	3.120310	0.150332	-2.299047	6.856696	0.263414	0.156446	0.034369	0.999346	0.000751	-0.011493	0.034276	
46809	    0	24.738275	18.894444	4.321827	-0.106829	-1.786907	6.019055	0.241150	0.196289	0.045288	0.999507	-0.000534	-0.008933	0.030090	
46810	    0	23.078404	23.441856	2.983317	-0.217459	-1.404329	4.667936	0.225014	0.239749	0.031168	0.999701	-0.001087	-0.007021	0.023337	
46811	    0	19.612732	28.149540	2.445932	0.196848	-1.119099	3.315142	0.191284	0.284668	0.025818	0.999846	0.000984	-0.005595	0.016575	
46812	    0	15.718663	32.904365	7.051782	0.859281	-1.073100	1.989604	0.153519	0.330274	0.072765	0.999927	0.004296	-0.005365	0.009948	
46813	    0	9.569668	33.837420	11.085884	1.348131	-0.948155	0.582893	0.094177	0.337891	0.113586	0.999961	0.006741	-0.004741	0.002914	
46814	    0	6.905722	32.659610	11.609501	1.399249	-0.543983	-0.923169	0.070241	0.325450	0.118565	0.999961	0.006996	-0.002720	-0.004616	
46815	    0	10.611027	29.632521	11.095780	0.936912	-0.046350	-2.188162	0.109314	0.294617	0.112366	0.999928	0.004684	-0.000232	-0.010941	
46816	    0	12.143532	25.191410	8.999281	0.827826	0.337807	-3.158139	0.125542	0.249578	0.090819	0.999865	0.004139	0.001689	-0.015790	
46817	    0	9.680825	23.948504	2.121999	2.029591	0.273346	-4.020269	0.101624	0.237244	0.023499	0.999745	0.010147	0.001367	-0.020100	
46818	    0	12.720710	1.960236	-19.597696	2.619821	0.471926	-4.184198	0.127153	0.019509	-0.196021	0.999692	0.013098	0.002359	-0.020919	
46819	    0	34.460475	-37.613321	-5.215511	0.916520	1.254326	-2.813079	0.338928	-0.380676	-0.056030	0.999870	0.004582	0.006271	-0.014065	
46820	    0	50.138459	14.262003	-1.063600	1.301132	-1.239128	-7.469488	0.506293	0.123821	-0.006662	0.999262	0.006504	-0.006194	-0.037338	
46821	    0	39.182420	27.986535	-11.092413	0.557828	-0.735441	-7.115174	0.401855	0.265991	-0.108704	0.999356	0.002789	-0.003676	-0.035568	
46822	    0	12.376862	10.760566	7.867320	-2.109279	0.442382	-5.668555	0.126939	0.104857	0.077279	0.999540	-0.010545	0.002212	-0.028338	
46823	    0	-5.493124	0.946278	15.402131	-1.763409	0.935690	-5.557295	-0.053894	0.012329	0.154175	0.999564	-0.008816	0.004678	-0.027782	
46824	    0	-2.718146	5.058032	7.667187	0.202581	0.207350	-4.911918	-0.025850	0.051148	0.076751	0.999697	0.001013	0.001037	-0.024557	
46825	    0	13.682440	6.905391	2.558512	-0.067145	1.134031	-4.734507	0.138550	0.065796	0.024780	0.999703	-0.000336	0.005670	-0.023670	
46826	    0	13.658221	3.292457	0.118552	-1.384859	1.514188	-4.144656	0.137228	0.030087	-0.000067	0.999732	-0.006924	0.007570	-0.020721	
46827	    0	8.821924	4.878917	2.031817	-1.281639	1.493179	-3.628798	0.089233	0.047302	0.019348	0.999786	-0.006408	0.007465	-0.018143	
46828	    0	6.826912	12.760014	-0.485211	-0.696789	1.274172	-3.113518	0.070210	0.126498	-0.005737	0.999852	-0.003484	0.006371	-0.015567	
46829	    0	12.550122	6.342997	2.603748	-0.864256	1.178791	-2.808497	0.126526	0.061768	0.025024	0.999874	-0.004321	0.005894	-0.014042	
46830	    0	14.729355	4.261799	-2.870035	-0.625248	0.961714	-2.425648	0.147655	0.040737	-0.029539	0.999909	-0.003126	0.004808	-0.012128	
46831	    0	16.638375	6.140102	-1.517185	-0.779746	0.921084	-2.267518	0.166992	0.059448	-0.016174	0.999917	-0.003899	0.004605	-0.011337	
46832	    0	12.569407	6.155772	-0.700473	-0.756470	0.853556	-1.924746	0.126246	0.060316	-0.007772	0.999937	-0.003782	0.004268	-0.009624	
46833	    0	11.308377	4.425723	-0.867097	-1.039143	0.885980	-1.651796	0.113403	0.043274	-0.009399	0.999942	-0.005196	0.004430	-0.008259	
46834	    0	12.844920	8.768360	-2.315457	-0.937285	0.910963	-1.369878	0.128937	0.086690	-0.024149	0.999955	-0.004686	0.004555	-0.006849	
46835	    0	15.521714	4.778085	-2.323971	-0.779543	0.882731	-1.203933	0.155396	0.046753	-0.024109	0.999964	-0.003898	0.004414	-0.006020	
46836	    0	17.163352	2.610611	-3.178419	-0.766190	0.838861	-1.107227	0.171638	0.025032	-0.032601	0.999969	-0.003831	0.004194	-0.005536	
46837	    0	16.417603	1.012599	-2.618643	-0.984012	0.758370	-1.023113	0.164124	0.009155	-0.026855	0.999968	-0.004920	0.003792	-0.005116	
46838	    0	16.807750	3.496599	-2.338400	-1.139274	0.687989	-1.120391	0.168187	0.033888	-0.024158	0.999962	-0.005696	0.003440	-0.005602	
46839	    0	18.128848	-0.464064	-1.395150	-1.329823	0.606736	-1.172655	0.181213	-0.005798	-0.014465	0.999955	-0.006649	0.003034	-0.005863	
46840	    0	17.918169	-3.907233	-0.602091	-1.591711	0.599681	-1.179716	0.178928	-0.040177	-0.006241	0.999946	-0.007958	0.002998	-0.005898	
46841	    0	16.342445	-5.063020	-0.086586	-1.761661	0.613606	-1.072714	0.163147	-0.051514	-0.000916	0.999942	-0.008808	0.003068	-0.005363	
46842	    0	14.786424	-4.357107	-0.389556	-1.903386	0.687996	-1.113153	0.147605	-0.044431	-0.003983	0.999933	-0.009517	0.003440	-0.005566	
46843	    0	13.269559	-5.637776	-0.818537	-2.175012	0.833154	-1.184879	0.132324	-0.057251	-0.008118	0.999914	-0.010875	0.004166	-0.005924	
46844	    0	12.343297	-8.915676	-1.411655	-2.417265	0.915177	-1.204341	0.122829	-0.090064	-0.013595	0.999898	-0.012086	0.004576	-0.006021	
46845	    0	13.050290	-9.590875	-0.773865	-2.245975	0.936157	-1.339002	0.129822	-0.096863	-0.007263	0.999903	-0.011230	0.004681	-0.006695	
46846	    0	16.451371	-8.149772	0.773060	-1.630642	1.227416	-1.764351	0.163833	-0.082884	0.007396	0.999908	-0.008153	0.006137	-0.008821	
46847	    0	17.199642	-11.742414	-0.539157	-0.805689	1.391072	-2.192756	0.170654	-0.119324	-0.006104	0.999907	-0.004028	0.006955	-0.010963	
46848	    0	14.591159	-10.995361	-2.837285	0.373283	1.366478	-2.711783	0.144204	-0.111862	-0.029570	0.999883	0.001866	0.006832	-0.013558	
46849	    0	13.619721	-8.659505	-5.260713	1.809806	1.272853	-3.180894	0.134460	-0.088257	-0.054260	0.999812	0.009048	0.006364	-0.015903	
46850	    0	14.094949	-10.147305	-4.767978	2.711538	1.255338	-3.537685	0.138824	-0.103274	-0.049948	0.999731	0.013556	0.006276	-0.017687	
46851	    0	12.584622	-8.927832	-4.715737	3.377349	1.017115	-3.892965	0.123840	-0.090881	-0.049316	0.999655	0.016885	0.005085	-0.019463	
46852	    0	11.365904	-4.331225	-3.642557	2.806967	0.926690	-4.148169	0.112563	-0.045133	-0.037574	0.999675	0.014033	0.004633	-0.020739	
46853	    0	11.341459	-1.778936	-2.867695	1.867284	0.994969	-4.319417	0.112854	-0.019958	-0.029419	0.999710	0.009336	0.004974	-0.021595	
46854	    0	9.860351	-3.732351	-2.984791	1.041877	0.921704	-4.148051	0.097664	-0.039198	-0.030500	0.999761	0.005209	0.004608	-0.020739	
46855	    0	8.206437	-1.971827	-2.687451	0.504526	0.422696	-3.889718	0.081604	-0.021240	-0.027100	0.999805	0.002522	0.002113	-0.019447	
46856	    0	10.328990	-4.256409	-4.521960	0.162133	0.201618	-3.605085	0.102455	-0.044379	-0.045359	0.999836	0.000811	0.001008	-0.018024	
46857	    0	12.189689	-10.272095	-4.298771	0.455491	-0.119595	-2.890118	0.120422	-0.104370	-0.043152	0.999892	0.002277	-0.000598	-0.014450	
46858	    0	15.005857	-9.106041	-5.026098	0.428784	-0.317773	-2.507278	0.148982	-0.092825	-0.050221	0.999917	0.002144	-0.001589	-0.012536	
46859	    0	17.150862	-7.380998	-4.526493	0.499926	-0.405892	-2.037087	0.170837	-0.075439	-0.045105	0.999943	0.002500	-0.002029	-0.010185	
46860	    0	17.529458	-4.623938	-4.835416	0.373653	-0.422673	-1.429763	0.175060	-0.047401	-0.048072	0.999970	0.001868	-0.002113	-0.007149	
46861	    0	16.750671	-3.192680	-4.879380	0.059700	-0.334931	-0.666811	0.167480	-0.032471	-0.048523	0.999992	0.000299	-0.001675	-0.003334	
46862	    0	13.882639	-3.517043	-3.898782	-0.129509	-0.274468	0.125313	0.138902	-0.035109	-0.038774	0.999998	-0.000648	-0.001372	0.000627	
46863	    0	10.418470	-3.269416	-3.399528	-0.237847	-0.274659	0.856784	0.104370	-0.032288	-0.033813	0.999989	-0.001189	-0.001373	0.004284	
46864	    0	7.975083	-1.770861	-2.608463	-0.184633	-0.281718	1.573770	0.079924	-0.017104	-0.025956	0.999968	-0.000923	-0.001409	0.007869	
46865	    0	5.624375	-1.064279	-2.890347	-0.287634	-0.284391	2.177474	0.056396	-0.010071	-0.028809	0.999938	-0.001438	-0.001422	0.010887	
46866	    0	4.133768	-0.629310	-3.372484	-0.564976	-0.314723	2.769373	0.041473	-0.005815	-0.033643	0.999898	-0.002825	-0.001574	0.013846	
46867	    0	3.898875	-0.380374	-3.841661	-0.560599	-0.393697	3.461636	0.039124	-0.003235	-0.038330	0.999844	-0.002803	-0.001968	0.017307	
46868	    0	4.148721	-0.180090	-4.276010	-0.486984	-0.527232	4.239981	0.041627	-0.001023	-0.042647	0.999768	-0.002435	-0.002636	0.021198	
46869	    0	4.414097	-0.416571	-4.263993	-0.479939	-0.681948	4.939023	0.044373	-0.003174	-0.042480	0.999686	-0.002399	-0.003409	0.024693	
46870	    0	4.906777	-0.310175	-3.469619	-0.327726	-0.948460	5.563523	0.049294	-0.001789	-0.034459	0.999600	-0.001638	-0.004742	0.027814	
46871	    0	5.848670	0.091711	-2.824918	-0.212895	-1.223764	6.141141	0.058594	0.002686	-0.027893	0.999509	-0.001064	-0.006118	0.030701	
46872	    0	6.898737	0.208854	-2.034084	-0.310958	-1.370312	6.649152	0.069005	0.004352	-0.019874	0.999422	-0.001554	-0.006850	0.033239	
46873	    0	8.109325	-1.168389	-1.419263	-0.466830	-1.523158	7.041171	0.081543	-0.008850	-0.013550	0.999348	-0.002334	-0.007614	0.035198	
46874	    0	9.743980	-2.630500	-1.391533	-0.465885	-1.720073	7.331298	0.098432	-0.022739	-0.013016	0.999288	-0.002329	-0.008598	0.036648	
46875	    0	11.968690	-2.807532	-1.723661	-0.485353	-1.865670	7.564940	0.120789	-0.023560	-0.016052	0.999238	-0.002426	-0.009326	0.037815	
46876	    0	14.502314	-2.371060	-1.426752	-0.496043	-2.021375	7.728541	0.145929	-0.018115	-0.012746	0.999199	-0.002480	-0.010104	0.038632	
46877	    0	16.608512	-1.398307	-1.485706	-0.053421	-2.373992	7.930731	0.166626	-0.007385	-0.012878	0.999143	-0.000267	-0.011867	0.039642	
46878	    0	18.927865	0.073250	-2.438041	0.476412	-2.695344	8.163112	0.189342	0.008515	-0.021814	0.999073	0.002381	-0.013473	0.040803	
46879	    0	22.500313	2.484864	-2.635090	0.881479	-2.854886	8.275221	0.224060	0.034241	-0.023010	0.999032	0.004406	-0.014270	0.041363	
46880	    0	25.778710	3.813708	-2.067901	0.970761	-2.984212	8.047889	0.256241	0.048558	-0.016628	0.999067	0.004852	-0.014916	0.040227	
46881	    0	27.986530	7.413879	-0.544886	0.923607	-2.861065	7.649095	0.276794	0.084778	-0.001099	0.999155	0.004617	-0.014301	0.038235	
46882	    0	27.009192	10.821048	2.126273	0.683569	-2.365497	7.233472	0.265667	0.117793	0.024815	0.999269	0.003417	-0.011825	0.036159	
46883	    0	24.604436	15.374640	3.612461	0.873929	-1.951984	6.535101	0.240479	0.161499	0.039185	0.999409	0.004369	-0.009758	0.032669	
46884	    0	24.306787	21.728478	1.245826	0.725653	-1.545350	5.409966	0.236964	0.223699	0.015109	0.999598	0.003628	-0.007726	0.027046	
46885	    0	22.090416	27.155375	-0.618629	0.676017	-1.245023	4.080517	0.215332	0.276001	-0.003906	0.999766	0.003380	-0.006225	0.020401	
46886	    0	18.035087	30.871466	0.612811	0.888862	-1.140643	2.855232	0.175876	0.311213	0.008519	0.999871	0.004444	-0.005703	0.014276	
46887	    0	12.671276	33.687674	5.969828	1.010153	-1.173998	1.634251	0.123596	0.337585	0.062134	0.999936	0.005051	-0.005870	0.008171	
46888	    0	8.399614	33.896540	9.552599	0.891882	-0.841719	0.383570	0.082939	0.338694	0.097387	0.999979	0.004459	-0.004209	0.001918	
46889	    0	7.455025	31.034326	9.204709	0.657658	-0.356867	-0.917059	0.075806	0.309692	0.093201	0.999982	0.003288	-0.001784	-0.004585	
46890	    0	8.348559	25.705361	9.016467	0.511560	0.087358	-1.977383	0.086060	0.255980	0.090783	0.999948	0.002558	0.000437	-0.009887	
46891	    0	7.726248	20.210130	9.648738	0.888094	0.381674	-2.798564	0.080261	0.200562	0.097229	0.999890	0.004440	0.001908	-0.013992	
46892	    0	8.449787	16.168618	7.490839	1.288108	0.370810	-3.503814	0.087447	0.159685	0.075781	0.999824	0.006440	0.001854	-0.017518	
46893	    0	7.699816	13.465919	2.447884	1.372628	0.166524	-3.942395	0.079651	0.132935	0.025330	0.999782	0.006863	0.000833	-0.019711	
46894	    0	5.747919	-0.071529	-14.811425	2.678350	-0.270677	-3.794631	0.057677	0.000175	-0.148038	0.999729	0.013391	-0.001353	-0.018971	
46895	    0	15.035092	-34.324149	-24.878270	2.526973	0.008583	-2.182108	0.146606	-0.341675	-0.253113	0.999860	0.012634	0.000043	-0.010910	
46896	    0	45.888416	-9.484481	-3.390060	1.331861	-0.427103	-5.005255	0.456395	-0.106064	-0.033606	0.999662	0.006659	-0.002135	-0.025023	
46897	    0	57.244887	40.507754	-11.860765	1.437269	-2.327715	-8.356879	0.590027	0.381470	-0.109009	0.999033	0.007184	-0.011635	-0.041771	
46898	    0	30.357451	24.186702	-3.306053	-0.853290	0.344330	-6.044376	0.310636	0.232404	-0.034596	0.999533	-0.004266	0.001721	-0.030217	
46899	    0	1.491934	-0.030767	12.673034	-2.478202	0.998072	-5.310841	0.015564	0.000854	0.126648	0.999557	-0.012389	0.004990	-0.026550	
46900	    0	-12.652260	1.672303	17.218230	-0.427095	0.157562	-4.703959	-0.125941	0.020058	0.172241	0.999721	-0.002135	0.000788	-0.023518	
46901	    0	7.675280	7.234647	7.209480	0.064284	0.559290	-4.840567	0.078674	0.070435	0.071899	0.999702	0.000321	0.002796	-0.024200	
46902	    0	16.503336	7.821845	3.812401	-0.908167	1.486524	-4.190614	0.166902	0.074903	0.036543	0.999743	-0.004540	0.007432	-0.020951	
46903	    0	13.053780	-0.989876	2.221704	-1.666964	1.548890	-3.719625	0.130493	-0.012146	0.021301	0.999762	-0.008334	0.007744	-0.018597	
46904	    0	6.099257	11.031183	-3.588333	-0.934267	1.181281	-3.152245	0.062504	0.109164	-0.036761	0.999847	-0.004671	0.005906	-0.015760	
46905	    0	10.003207	8.287934	1.772163	-0.624871	1.108021	-2.756606	0.101257	0.081543	0.016907	0.999885	-0.003124	0.005540	-0.013783	
46906	    0	14.780074	6.017580	-1.252076	-0.593585	1.001770	-2.425458	0.148450	0.058339	-0.013438	0.999909	-0.002968	0.005009	-0.012127	
46907	    0	16.262653	3.056702	-2.207600	-0.549902	0.898764	-2.159171	0.162842	0.028748	-0.022888	0.999928	-0.002749	0.004494	-0.010796	
46908	    0	15.283541	6.996288	-1.946389	-0.517855	0.835816	-1.914634	0.153412	0.068444	-0.020283	0.999942	-0.002589	0.004179	-0.009573	
46909	    0	12.335917	4.921978	-2.047534	-0.802625	0.824179	-1.584651	0.123657	0.048157	-0.021179	0.999951	-0.004013	0.004121	-0.007923	
46910	    0	12.508734	6.497832	-2.652809	-0.893986	0.818454	-1.293772	0.125393	0.064047	-0.027328	0.999960	-0.004470	0.004092	-0.006469	
46911	    0	14.158029	5.872597	-2.649383	-0.749786	0.805672	-1.077281	0.141785	0.057861	-0.027283	0.999969	-0.003749	0.004028	-0.005386	
46912	    0	17.276933	2.362177	-2.657599	-0.620657	0.774199	-1.038942	0.172784	0.022640	-0.027316	0.999973	-0.003103	0.003871	-0.005195	
46913	    0	17.466952	0.271959	-1.667192	-0.762755	0.679022	-0.943001	0.174622	0.001831	-0.017273	0.999975	-0.003814	0.003395	-0.004715	
46914	    0	16.853488	2.065283	-1.082693	-0.999842	0.568014	-1.006136	0.168604	0.019749	-0.011406	0.999970	-0.004999	0.002840	-0.005031	
46915	    0	17.225904	0.179738	-0.958384	-1.276414	0.486189	-1.092543	0.172241	0.000793	-0.010010	0.999961	-0.006382	0.002431	-0.005463	
46916	    0	17.256910	-3.616213	0.047585	-1.548602	0.477990	-1.189633	0.172351	-0.037185	0.000349	0.999949	-0.007743	0.002390	-0.005948	
46917	    0	16.173866	-5.274126	0.146192	-1.843109	0.529491	-1.142144	0.161438	-0.053650	0.001526	0.999937	-0.009215	0.002647	-0.005711	
46918	    0	14.559125	-4.601553	-0.091879	-2.213157	0.605981	-1.137383	0.145324	-0.046852	-0.000844	0.999918	-0.011065	0.003030	-0.005687	
46919	    0	13.076271	-5.960121	-0.749539	-2.562805	0.732639	-1.212354	0.130371	-0.060486	-0.007202	0.999892	-0.012814	0.003663	-0.006062	
46920	    0	12.342422	-7.842976	-1.135782	-2.780267	0.787196	-1.284653	0.122873	-0.079372	-0.010743	0.999874	-0.013901	0.003936	-0.006423	
46921	    0	13.205099	-10.233923	-0.979046	-2.780272	0.840987	-1.408447	0.131287	-0.103394	-0.008911	0.999869	-0.013901	0.004205	-0.007042	
46922	    0	15.995951	-9.319163	0.955455	-2.318092	1.073307	-1.696653	0.159214	-0.094432	0.009789	0.999882	-0.011590	0.005366	-0.008483	
46923	    0	16.583242	-10.920759	-0.378162	-1.329656	1.188699	-2.168345	0.164612	-0.111023	-0.004028	0.999901	-0.006648	0.005943	-0.010841	
46924	    0	13.925074	-10.179079	-2.505956	-0.096897	1.290749	-2.643108	0.137724	-0.103630	-0.025902	0.999891	-0.000484	0.006454	-0.013215	
46925	    0	12.402998	-7.585263	-5.358278	1.428302	1.201124	-3.135855	0.122498	-0.077393	-0.054871	0.999833	0.007141	0.006005	-0.015678	
46926	    0	12.164730	-9.204364	-5.934240	2.238444	1.146976	-3.461720	0.119691	-0.093450	-0.061073	0.999771	0.011191	0.005734	-0.017307	
46927	    0	12.087729	-10.052128	-4.403129	2.976518	1.004317	-3.692226	0.118774	-0.102051	-0.046143	0.999705	0.014881	0.005021	-0.018459	
46928	    0	11.477946	-5.259337	-3.088138	2.607604	0.934503	-4.012124	0.113551	-0.054466	-0.032116	0.999702	0.013037	0.004672	-0.020059	
46929	    0	12.306286	-0.178162	-1.198283	1.684156	1.011753	-4.320169	0.122925	-0.004333	-0.012634	0.999718	0.008420	0.005058	-0.021599	
46930	    0	11.631390	0.085047	-2.165856	0.727716	1.029484	-4.355041	0.116183	-0.001600	-0.022260	0.999743	0.003638	0.005147	-0.021773	
46931	    0	9.016632	-1.109146	-2.121572	0.076490	0.722553	-3.991210	0.089844	-0.012878	-0.021545	0.999794	0.000382	0.003613	-0.019955	
46932	    0	10.733961	-0.841645	-5.463094	-0.151453	0.374055	-3.920237	0.107044	-0.010558	-0.054824	0.999805	-0.000757	0.001870	-0.019600	
46933	    0	12.108538	-10.982919	-4.744454	0.015450	0.155647	-3.322755	0.119202	-0.111816	-0.047546	0.999861	0.000077	0.000778	-0.016613	
46934	    0	13.662311	-8.802637	-5.002661	-0.066378	-0.160986	-2.949059	0.135345	-0.090045	-0.049888	0.999890	-0.000332	-0.000805	-0.014745	
46935	    0	16.546561	-6.583257	-3.680637	-0.057031	-0.127415	-2.607801	0.164612	-0.067993	-0.036682	0.999914	-0.000285	-0.000637	-0.013039	
46936	    0	17.713907	-4.593462	-3.919327	-0.378998	-0.173954	-2.113574	0.176674	-0.047877	-0.038950	0.999942	-0.001895	-0.000870	-0.010568	
46937	    0	18.323488	-4.019604	-4.677797	-0.698860	-0.203516	-1.451127	0.182983	-0.041687	-0.046448	0.999967	-0.003494	-0.001018	-0.007256	
46938	    0	17.772408	-4.376182	-3.731344	-0.984580	-0.177385	-0.734525	0.177594	-0.044597	-0.036938	0.999980	-0.004923	-0.000887	-0.003673	
46939	    0	13.993015	-4.256243	-3.189940	-0.830844	-0.325586	-0.131226	0.139954	-0.042786	-0.031494	0.999990	-0.004154	-0.001628	-0.000656	
46940	    0	9.957662	-3.007798	-3.306338	-0.876050	-0.382235	0.575832	0.099726	-0.029935	-0.032742	0.999984	-0.004380	-0.001911	0.002879	
46941	    0	7.364713	-1.546842	-2.605912	-0.745972	-0.334934	1.327528	0.073792	-0.015076	-0.025879	0.999969	-0.003730	-0.001675	0.006638	
46942	    0	4.905700	-1.068998	-3.086126	-0.753036	-0.256734	2.001610	0.049201	-0.010314	-0.030759	0.999942	-0.003765	-0.001284	0.010008	
46943	    0	3.760893	-0.099323	-2.904653	-0.771928	-0.276193	2.629172	0.037659	-0.000610	-0.028992	0.999905	-0.003860	-0.001381	0.013145	
46944	    0	3.640904	0.397889	-3.272776	-0.608473	-0.462554	3.310935	0.036413	0.004482	-0.032657	0.999855	-0.003042	-0.002313	0.016554	
46945	    0	3.841509	0.791245	-4.174327	-0.458560	-0.710921	4.109493	0.038391	0.008606	-0.041626	0.999780	-0.002293	-0.003554	0.020546	
46946	    0	4.050841	0.379979	-4.488442	-0.419279	-0.960641	4.883320	0.040616	0.004697	-0.044699	0.999688	-0.002096	-0.004803	0.024414	
46947	    0	4.621860	0.030550	-4.064075	-0.312847	-1.286299	5.535873	0.046448	0.001526	-0.040344	0.999595	-0.001564	-0.006431	0.027676	
46948	    0	5.256489	0.761419	-3.701978	-0.212513	-1.656041	6.048050	0.052608	0.009166	-0.036593	0.999508	-0.001062	-0.008279	0.030235	
46949	    0	5.986119	1.337072	-3.210766	-0.317253	-1.926791	6.487752	0.059692	0.015259	-0.031555	0.999426	-0.001586	-0.009632	0.032433	
46950	    0	7.341542	-0.088835	-2.715622	-0.405208	-2.130204	6.849809	0.073673	0.001578	-0.026374	0.999354	-0.002026	-0.010649	0.034242	
46951	    0	9.011090	-2.129805	-2.422633	-0.343212	-2.338189	7.075615	0.091064	-0.018127	-0.023132	0.999304	-0.001716	-0.011688	0.035370	
46952	    0	11.024252	-3.061130	-2.085070	-0.186774	-2.503426	7.181182	0.111496	-0.026641	-0.019434	0.999276	-0.000934	-0.012514	0.035897	
46953	    0	13.918097	-2.078534	-1.582903	0.199178	-2.762348	7.276465	0.140015	-0.015686	-0.013916	0.999242	0.000996	-0.013808	0.036373	
46954	    0	15.936928	-0.546579	-1.426603	0.779173	-3.088839	7.432292	0.159619	0.000513	-0.011807	0.999183	0.003895	-0.015440	0.037151	
46955	    0	17.567702	0.971397	-1.529924	1.276009	-3.281411	7.613316	0.175354	0.016479	-0.012329	0.999120	0.006378	-0.016402	0.038055	
46956	    0	20.675918	2.839593	-0.611322	1.656267	-3.420522	7.592383	0.205544	0.036245	-0.002312	0.999099	0.008279	-0.017097	0.037951	
46957	    0	23.740556	5.675087	-0.632169	2.020092	-3.529437	7.329416	0.235168	0.065430	-0.001526	0.999122	0.010098	-0.017642	0.036636	
46958	    0	26.204428	10.331146	0.026550	2.256818	-3.411078	6.978030	0.258161	0.112320	0.005925	0.999182	0.011281	-0.017051	0.034881	
46959	    0	25.622124	14.744020	1.512341	2.216875	-2.968361	6.654440	0.250854	0.155640	0.020569	0.999274	0.011082	-0.014838	0.033264	
46960	    0	23.615038	17.990405	3.159286	2.009400	-2.319786	6.096497	0.230127	0.186633	0.036139	0.999417	0.010045	-0.011597	0.030477	
46961	    0	22.920137	22.129376	3.815887	1.718570	-1.851150	5.210842	0.222961	0.226807	0.042175	0.999580	0.008592	-0.009254	0.026051	
46962	    0	22.214544	26.140635	3.351595	1.453335	-1.383139	4.106307	0.216473	0.265630	0.036946	0.999739	0.007266	-0.006915	0.020530	
46963	    0	18.241584	28.535365	2.094502	1.431538	-1.168119	2.955777	0.178040	0.287842	0.024048	0.999847	0.007157	-0.005840	0.014778	
46964	    0	13.489599	29.040587	3.170536	1.404418	-1.001384	1.818323	0.132082	0.291380	0.034415	0.999921	0.007022	-0.005007	0.009091	
46965	    0	9.706211	27.764691	6.982200	1.237693	-0.874339	0.666817	0.095825	0.277527	0.071960	0.999966	0.006188	-0.004372	0.003334	
46966	    0	7.500738	26.600376	10.393360	1.001173	-0.499537	-0.308039	0.075154	0.265363	0.105451	0.999983	0.005006	-0.002498	-0.001540	
46967	    0	6.906829	24.386703	10.899960	0.692754	-0.059319	-1.099404	0.070374	0.243103	0.109863	0.999978	0.003464	-0.000297	-0.005497	
46968	    0	6.287307	20.598158	9.470272	0.357061	0.284390	-1.767565	0.064824	0.205245	0.094978	0.999958	0.001785	0.001422	-0.008838	
46969	    0	5.908229	16.850646	8.743428	0.097658	0.578512	-2.241566	0.061218	0.167786	0.087341	0.999932	0.000488	0.002892	-0.011208	
46970	    0	5.614068	13.117242	8.356238	-0.168424	0.786805	-2.545051	0.058132	0.130511	0.083226	0.999910	-0.000842	0.003934	-0.012725	
46971	    0	6.597392	12.188386	1.132469	-0.376905	0.509089	-2.780246	0.067688	0.120972	0.010925	0.999898	-0.001884	0.002545	-0.013901	
46972	    0	1.826085	8.522339	-20.423904	0.781087	-0.460069	-2.763846	0.019913	0.085752	-0.203860	0.999894	0.003905	-0.002300	-0.013819	
46973	    0	5.382962	-13.737558	-50.456467	1.438408	-2.313355	-2.308777	0.058105	-0.134399	-0.504883	0.999840	0.007192	-0.011566	-0.011543	
46974	    0	68.841255	-0.039115	-29.740678	-3.914524	-0.963464	-6.831243	0.689153	-0.029699	-0.293697	0.999213	-0.019567	-0.004816	-0.034147	
46975	    0	69.280227	30.590792	8.980213	1.907972	1.613220	-6.944325	0.703552	0.280762	0.086914	0.999319	0.009538	0.008064	-0.034714	
46976	    0	12.611415	-4.581000	3.657539	-2.614062	0.117130	-5.651815	0.124784	-0.048866	0.037127	0.999515	-0.013068	0.000586	-0.028255	
46977	    0	-10.496697	5.716613	29.382297	-1.388694	0.809754	-4.725375	-0.102356	0.061646	0.293823	0.999688	-0.006943	0.004048	-0.023624	
46978	    0	-14.417161	4.440184	12.161665	0.199908	-0.369296	-4.603987	-0.143325	0.047586	0.121398	0.999732	0.000999	-0.001846	-0.023018	
46979	    0	18.801900	15.030753	7.892759	-0.303674	1.312550	-4.140036	0.191589	0.146484	0.077454	0.999763	-0.001518	0.006562	-0.020699	
46980	    0	19.070776	-3.674252	1.990419	-1.175382	1.048154	-3.548845	0.190119	-0.040006	0.019135	0.999811	-0.005877	0.005240	-0.017743	
46981	    0	12.057361	6.963023	-3.543728	-0.652153	0.981948	-3.112937	0.121460	0.067627	-0.036255	0.999861	-0.003261	0.004910	-0.015564	
46982	    0	6.615661	11.494638	2.807032	-0.342190	1.161615	-2.608008	0.067809	0.114117	0.027484	0.999896	-0.001711	0.005808	-0.013040	
46983	    0	14.563051	2.276544	2.141472	-0.389110	1.101906	-2.314060	0.145996	0.021118	0.020569	0.999915	-0.001945	0.005509	-0.011570	
46984	    0	19.867274	5.871851	-3.470405	-0.500309	1.141765	-2.000664	0.199043	0.056640	-0.035983	0.999930	-0.002501	0.005709	-0.010003	
46985	    0	16.581176	10.954364	-6.382832	-0.622569	1.006525	-1.650266	0.166382	0.107971	-0.065002	0.999948	-0.003113	0.005033	-0.008251	
46986	    0	13.918221	2.926818	-4.202427	-0.909819	1.024262	-1.341459	0.139155	0.028141	-0.042867	0.999953	-0.004549	0.005121	-0.006707	
46987	    0	15.129865	2.183475	0.556402	-0.744446	1.036846	-0.971232	0.151428	0.021118	0.004700	0.999968	-0.003722	0.005184	-0.004856	
46988	    0	14.281084	7.973038	-0.126246	-0.751693	1.066217	-0.679785	0.143070	0.079237	-0.002323	0.999972	-0.003758	0.005331	-0.003399	
46989	    0	15.033118	5.693364	-3.947464	-1.016816	0.936898	-0.443272	0.150269	0.056396	-0.040466	0.999973	-0.005084	0.004684	-0.002216	
46990	    0	17.886442	-1.855519	-2.491007	-0.805096	0.748257	-0.341036	0.178738	-0.018962	-0.025503	0.999983	-0.004025	0.003741	-0.001705	
46991	    0	18.738770	-2.103416	-1.204698	-1.132210	0.560192	-0.341036	0.187317	-0.021423	-0.012451	0.999978	-0.005661	0.002801	-0.001705	
46992	    0	18.598096	0.369570	-0.958474	-1.864655	0.516709	-0.438125	0.185963	0.003196	-0.010097	0.999950	-0.009323	0.002584	-0.002191	
46993	    0	19.452158	-1.461777	-0.701077	-2.329885	0.565352	-0.572219	0.194458	-0.015259	-0.007385	0.999924	-0.011649	0.002827	-0.002861	
46994	    0	17.789103	-7.489468	-0.731632	-2.902714	0.663401	-0.562308	0.177656	-0.075496	-0.006813	0.999885	-0.014513	0.003317	-0.002811	
46995	    0	13.599393	-7.190632	-1.545919	-3.159475	0.757824	-0.538660	0.135742	-0.072510	-0.014832	0.999864	-0.015797	0.003789	-0.002693	
46996	    0	10.592061	-6.523090	-2.869128	-3.269737	0.810472	-0.602561	0.105608	-0.066011	-0.028045	0.999853	-0.016348	0.004052	-0.003013	
46997	    0	9.034630	-7.540824	-4.394185	-3.095955	0.725588	-0.746951	0.089905	-0.076416	-0.043091	0.999866	-0.015479	0.003628	-0.003735	
46998	    0	9.746461	-8.595554	-4.224227	-2.227273	0.739500	-1.091797	0.096837	-0.086951	-0.041636	0.999916	-0.011136	0.003697	-0.005459	
46999	    0	11.060471	-11.082381	-3.141654	-0.509460	0.769055	-1.660181	0.109558	-0.111816	-0.031555	0.999954	-0.002547	0.003845	-0.008301	
47000	    0	12.180217	-5.877958	-3.498913	1.165616	0.804162	-2.276680	0.120981	-0.059953	-0.035824	0.999909	0.005828	0.004021	-0.011383	
47001	    0	12.686535	0.234586	-2.954470	1.227822	1.161252	-3.029021	0.126709	0.000610	-0.030273	0.999849	0.006139	0.005806	-0.015144	
47002	    0	11.255241	-1.327600	-2.629121	1.051973	1.457121	-3.589299	0.112096	-0.015149	-0.027185	0.999798	0.005260	0.007285	-0.017945	
47003	    0	12.261181	-2.311187	-0.584796	1.019559	1.509978	-3.982099	0.122070	-0.025513	-0.006897	0.999760	0.005097	0.007549	-0.019909	
47004	    0	13.812866	-3.603227	-1.496887	0.787045	1.478905	-4.411725	0.137174	-0.039003	-0.016135	0.999722	0.003935	0.007394	-0.022057	
47005	    0	14.035602	-5.826828	-0.934856	0.830158	1.289683	-4.555187	0.138916	-0.061401	-0.010498	0.999711	0.004150	0.006448	-0.022774	
47006	    0	13.425713	-3.174739	-0.437434	0.999166	1.134219	-4.580560	0.133455	-0.034785	-0.005301	0.999709	0.004995	0.005671	-0.022901	
47007	    0	13.747871	-1.710295	-1.037971	0.924204	1.200225	-4.683395	0.136963	-0.020264	-0.011292	0.999697	0.004621	0.006001	-0.023415	
47008	    0	14.148336	-7.725369	-0.374772	1.388679	1.205747	-4.356027	0.139729	-0.080277	-0.005144	0.999720	0.006943	0.006028	-0.021778	
47009	    0	14.080998	-8.738870	-0.521688	1.857173	1.043992	-4.302629	0.138855	-0.090332	-0.006775	0.999711	0.009285	0.005219	-0.021511	
47010	    0	13.499628	-9.294148	-1.570100	1.982496	0.924580	-4.253793	0.132904	-0.095617	-0.017258	0.999714	0.009912	0.004622	-0.021267	
47011	    0	12.651932	-8.525852	-2.160637	1.724583	0.850751	-4.121754	0.124634	-0.087646	-0.022888	0.999741	0.008622	0.004253	-0.020607	
47012	    0	12.735382	-7.467317	-2.388854	1.328950	0.832048	-3.950607	0.125746	-0.077004	-0.024920	0.999774	0.006644	0.004160	-0.019752	
47013	    0	14.092310	-7.280951	-3.096091	1.030226	0.824791	-3.730254	0.139404	-0.075256	-0.031921	0.999804	0.005151	0.004124	-0.018650	
47014	    0	15.980835	-7.312984	-4.330418	0.885057	0.744668	-3.370845	0.158384	-0.075613	-0.044227	0.999841	0.004425	0.003723	-0.016853	
47015	    0	17.486575	-6.694565	-5.363780	0.698114	0.580808	-2.752019	0.173767	-0.069153	-0.054382	0.999894	0.003490	0.002904	-0.013760	
47016	    0	17.191404	-5.495826	-5.922597	0.342185	0.438889	-2.021254	0.171217	-0.056589	-0.059698	0.999945	0.001711	0.002194	-0.010106	
47017	    0	14.061887	-5.089453	-5.459972	-0.141908	0.351145	-1.261911	0.140198	-0.051819	-0.054810	0.999978	-0.000710	0.001756	-0.006310	
47018	    0	9.904621	-5.053918	-5.064462	-0.510980	0.235940	-0.532533	0.098851	-0.050932	-0.050632	0.999992	-0.002555	0.001180	-0.002663	
47019	    0	7.095004	-5.010473	-5.617071	-0.715639	0.282479	0.207520	0.070923	-0.050232	-0.056091	0.999991	-0.003578	0.001412	0.001038	
47020	    0	4.915706	-3.275707	-6.525526	-0.813681	0.406078	0.995071	0.049188	-0.032778	-0.065222	0.999977	-0.004068	0.002030	0.004975	
47021	    0	3.831147	-1.851520	-6.364692	-0.830093	0.466355	1.809724	0.038330	-0.018433	-0.063660	0.999948	-0.004150	0.002332	0.009048	
47022	    0	3.992637	-0.931462	-5.743449	-0.938633	0.270661	2.448153	0.039961	-0.009095	-0.057446	0.999912	-0.004693	0.001353	0.012240	
47023	    0	4.111678	-0.254196	-6.012068	-0.990340	0.050547	3.123614	0.041138	-0.002197	-0.060120	0.999866	-0.004951	0.000253	0.015617	
47024	    0	3.894655	0.411906	-5.607979	-0.837192	-0.076299	3.956683	0.038879	0.004654	-0.056084	0.999795	-0.004186	-0.000381	0.019782	
47025	    0	4.053767	0.756068	-4.880110	-0.472878	-0.263240	4.832935	0.040405	0.008423	-0.048767	0.999704	-0.002364	-0.001316	0.024162	
47026	    0	4.769601	1.348843	-5.076534	-0.295488	-0.583917	5.605488	0.047442	0.014746	-0.050648	0.999601	-0.001477	-0.002919	0.028024	
47027	    0	5.021022	1.755721	-5.315102	-0.492941	-0.872756	6.223565	0.049866	0.018982	-0.052979	0.999503	-0.002464	-0.004363	0.031113	
47028	    0	5.306394	0.975684	-4.997497	-0.672661	-1.121547	6.684069	0.052981	0.011361	-0.049714	0.999420	-0.003363	-0.005607	0.033414	
47029	    0	6.530079	-0.579074	-4.857624	-0.721133	-1.416130	7.015978	0.065796	-0.003662	-0.048096	0.999352	-0.003605	-0.007079	0.035072	
47030	    0	8.587450	-1.363366	-4.992195	-0.644070	-1.709000	7.238352	0.086719	-0.010664	-0.049146	0.999303	-0.003220	-0.008543	0.036183	
47031	    0	10.859667	-1.853004	-5.019979	-0.518928	-1.986998	7.446614	0.109680	-0.014587	-0.049072	0.999253	-0.002594	-0.009933	0.037224	
47032	    0	13.766774	-2.518151	-4.637793	-0.293428	-2.330443	7.612334	0.139022	-0.019973	-0.044731	0.999207	-0.001467	-0.011649	0.038052	
47033	    0	16.689850	-2.454910	-3.930364	0.287711	-2.795258	7.807110	0.168213	-0.017944	-0.036987	0.999139	0.001438	-0.013972	0.039024	
47034	    0	18.404118	-1.610611	-4.409254	1.005107	-3.252287	7.981515	0.185167	-0.008518	-0.041142	0.999059	0.005024	-0.016256	0.039895	
47035	    0	21.356881	0.668319	-4.089454	1.369931	-3.575368	8.064659	0.213745	0.015564	-0.036987	0.999003	0.006847	-0.017871	0.040310	
47036	    0	24.324340	3.920749	-2.477744	1.310201	-3.793419	7.850710	0.241859	0.048862	-0.019881	0.999028	0.006549	-0.018961	0.039241	
47037	    0	25.848121	9.059018	0.369372	1.178334	-3.820236	7.508825	0.254700	0.100159	0.009155	0.999095	0.005890	-0.019095	0.037533	
47038	    0	25.161569	13.627313	3.622853	1.071271	-3.473665	7.266326	0.245763	0.145062	0.041293	0.999174	0.005355	-0.017364	0.036322	
47039	    0	25.276923	17.516534	6.121304	1.080584	-2.859235	6.978769	0.245544	0.183472	0.065735	0.999274	0.005402	-0.014293	0.034885	
47040	    0	26.560933	21.857275	7.485655	0.855227	-2.199592	6.334176	0.257668	0.226487	0.078677	0.999429	0.004275	-0.010996	0.031665	
47041	    0	25.172321	27.605353	6.266266	-0.073061	-1.486393	5.287072	0.243835	0.282593	0.064392	0.999622	-0.000365	-0.007431	0.026432	
47042	    0	21.649498	30.429155	5.283186	-0.661133	-0.903383	3.930365	0.210219	0.308639	0.052775	0.999791	-0.003305	-0.004517	0.019650	
47043	    0	16.982166	31.092088	6.605926	-0.442328	-0.731682	2.594075	0.165527	0.313232	0.065979	0.999907	-0.002212	-0.003658	0.012970	
47044	    0	12.735017	29.174422	11.409582	0.276759	-0.760275	1.153193	0.125230	0.292312	0.114979	0.999974	0.001384	-0.003801	0.005766	
47045	    0	8.839287	27.768104	15.959563	0.968366	-0.442507	-0.246431	0.088379	0.276794	0.161133	0.999985	0.004842	-0.002213	-0.001232	
47046	    0	7.240666	27.545991	17.111673	1.073088	0.070573	-1.390666	0.074376	0.274024	0.172564	0.999961	0.005365	0.000353	-0.006953	
47047	    0	8.226354	22.389416	15.672570	0.600638	0.545515	-2.254540	0.085205	0.222473	0.157166	0.999928	0.003003	0.002728	-0.011272	
47048	    0	9.480604	17.800569	9.902663	0.266085	0.707652	-2.856168	0.097684	0.176493	0.098920	0.999890	0.001330	0.003538	-0.014280	
47049	    0	3.907833	21.115379	-4.361558	1.252047	0.305382	-3.230448	0.042419	0.210754	-0.042358	0.999848	0.006260	0.001527	-0.016151	
47050	    0	1.943508	15.854416	-41.697364	2.340537	-1.666417	-3.789687	0.025958	0.162957	-0.414886	0.999717	0.011702	-0.008331	-0.018947	
47051	    0	23.534512	-7.964432	-53.133685	-1.042335	-3.859349	-4.562314	0.243591	-0.087891	-0.526245	0.999539	-0.005211	-0.019294	-0.022808	
47052	    0	82.834359	31.193559	-0.529158	-2.578456	2.703430	-8.161232	0.839934	0.277614	-0.020323	0.998993	-0.012888	0.013513	-0.040792	
47053	    0	32.371302	3.906546	16.794009	-0.530878	0.491391	-5.277113	0.325012	0.030945	0.167053	0.999645	-0.002654	0.002457	-0.026382	
47054	    0	-4.730413	7.726429	12.315757	-4.033215	0.871809	-4.951571	-0.044799	0.080859	0.121750	0.999480	-0.020163	0.004358	-0.024754	
47055	    0	-16.316922	5.901044	20.691521	0.111588	0.176251	-4.068274	-0.161743	0.062195	0.207092	0.999792	0.000558	0.000881	-0.020340	
47056	    0	9.790250	12.016448	2.372947	-0.464851	1.033850	-3.780992	0.100271	0.118338	0.022939	0.999804	-0.002324	0.005169	-0.018904	
47057	    0	20.836979	-0.754504	4.463649	-1.123116	1.593306	-3.301441	0.208557	-0.010742	0.043030	0.999816	-0.005615	0.007966	-0.016506	
47058	    0	17.304979	-1.180119	-0.897728	-0.519010	1.175164	-2.816885	0.172804	-0.014261	-0.009958	0.999880	-0.002595	0.005876	-0.014084	
47059	    0	9.154243	11.151363	3.876615	-0.343335	1.320888	-2.649024	0.093262	0.110352	0.037964	0.999888	-0.001717	0.006604	-0.013245	
47060	    0	12.066597	0.337190	7.152096	0.119212	1.060896	-2.296700	0.121071	0.001941	0.070881	0.999919	0.000596	0.005304	-0.011483	
47061	    0	20.273544	4.133719	1.512561	0.047494	1.080349	-2.176720	0.203247	0.039124	0.014038	0.999926	0.000237	0.005402	-0.010883	
47062	    0	19.325563	9.255466	-5.840857	-0.593388	0.937100	-1.931803	0.193859	0.090508	-0.059587	0.999937	-0.002967	0.004685	-0.009659	
47063	    0	14.280210	4.881502	-6.093872	-0.605783	0.786030	-1.600671	0.142944	0.047485	-0.061646	0.999955	-0.003029	0.003930	-0.008003	
47064	    0	14.885440	1.205717	-0.723206	-0.803959	0.952925	-1.404401	0.148897	0.010981	-0.007987	0.999955	-0.004020	0.004765	-0.007022	
47065	    0	13.942243	7.636254	-0.230873	-0.625617	1.073658	-0.959025	0.139771	0.075684	-0.003296	0.999969	-0.003128	0.005368	-0.004795	
47066	    0	14.940564	7.540306	-5.332793	-1.223963	1.140801	-0.718890	0.149365	0.074534	-0.054638	0.999958	-0.006120	0.005704	-0.003594	
47067	    0	16.355746	0.842637	-4.864453	-0.817687	1.006325	-0.505070	0.163330	0.007812	-0.049500	0.999975	-0.004088	0.005032	-0.002525	
47068	    0	17.867915	-3.106366	-3.444865	-1.056108	0.840385	-0.581747	0.178441	-0.031767	-0.035032	0.999972	-0.005280	0.004202	-0.002909	
47069	    0	18.193830	-0.296578	-3.078810	-1.369301	0.668342	-0.598151	0.181824	-0.003723	-0.031372	0.999966	-0.006846	0.003342	-0.002991	
47070	    0	19.871187	0.270414	-1.792110	-1.716832	0.559053	-0.736057	0.198668	0.001816	-0.018495	0.999952	-0.008584	0.002795	-0.003680	
47071	    0	18.295483	-6.049145	-0.558442	-2.426024	0.575272	-0.656146	0.182739	-0.061157	-0.005371	0.999916	-0.012130	0.002876	-0.003281	
47072	    0	12.753805	-6.894532	0.179735	-2.812296	0.586531	-0.612281	0.127333	-0.069304	0.002397	0.999891	-0.014061	0.002933	-0.003061	
47073	    0	9.520181	-7.519143	-0.220382	-2.880205	0.601410	-0.599693	0.094971	-0.075500	-0.001404	0.999887	-0.014400	0.003007	-0.002998	
47074	    0	9.844256	-7.652088	-2.001424	-2.597319	0.557536	-0.722526	0.098110	-0.077129	-0.019289	0.999905	-0.012986	0.002788	-0.003613	
47075	    0	12.734817	-8.014115	-2.402174	-1.834717	0.630964	-1.094841	0.126831	-0.081055	-0.023682	0.999937	-0.009173	0.003155	-0.005474	
47076	    0	15.097990	-11.737459	-1.168765	-0.577173	1.022927	-1.553751	0.150001	-0.118577	-0.012115	0.999952	-0.002886	0.005115	-0.007769	
47077	    0	15.452749	-9.079056	-2.686328	0.432027	1.478621	-2.181309	0.153320	-0.092407	-0.028198	0.999910	0.002160	0.007393	-0.010906	
47078	    0	13.568978	-3.848967	-4.871951	1.163357	1.776031	-2.976202	0.134659	-0.040210	-0.050149	0.999832	0.005816	0.008880	-0.014880	
47079	    0	11.764937	-5.767926	-4.961488	1.321507	1.856557	-3.501384	0.116150	-0.059387	-0.051086	0.999782	0.006607	0.009282	-0.017506	
47080	    0	13.782260	-6.337760	-2.018250	1.532314	1.907143	-4.018391	0.136311	-0.065963	-0.021986	0.999722	0.007661	0.009535	-0.020090	
47081	    0	15.350443	-5.484095	-2.055168	1.468825	2.034418	-4.572051	0.151978	-0.058167	-0.022522	0.999660	0.007343	0.010171	-0.022858	
47082	    0	14.939181	-6.389250	-1.704786	1.475893	1.904334	-4.792597	0.147632	-0.067309	-0.018948	0.999640	0.007379	0.009521	-0.023960	
47083	    0	13.373214	-2.607781	-3.004717	1.467306	1.497255	-4.900940	0.132812	-0.029114	-0.031250	0.999644	0.007336	0.007485	-0.024502	
47084	    0	13.241102	-1.561052	-5.314905	0.931077	1.078912	-4.863306	0.131694	-0.018569	-0.053943	0.999679	0.004655	0.005394	-0.024314	
47085	    0	15.213615	-8.207690	-3.794997	0.826527	0.933158	-4.442227	0.150085	-0.085266	-0.039001	0.999733	0.004132	0.004665	-0.022209	
47086	    0	14.465724	-7.665845	-3.282661	0.537343	0.679643	-4.309811	0.142849	-0.079660	-0.033525	0.999758	0.002687	0.003398	-0.021547	
47087	    0	12.871704	-7.000643	-3.440968	-0.354030	0.603720	-4.112542	0.127136	-0.072693	-0.034668	0.999782	-0.001770	0.003018	-0.020561	
47088	    0	11.307645	-6.324593	-3.980719	-1.356981	0.549926	-3.784821	0.111740	-0.065639	-0.039676	0.999794	-0.006784	0.002749	-0.018923	
47089	    0	10.725365	-7.389189	-4.627777	-2.237098	0.529708	-3.438050	0.105835	-0.076233	-0.045715	0.999785	-0.011185	0.002648	-0.017189	
47090	    0	10.601128	-8.705166	-4.680024	-2.844450	0.527230	-3.086511	0.104523	-0.089329	-0.045817	0.999776	-0.014221	0.002636	-0.015431	
47091	    0	11.681365	-9.365975	-4.065674	-2.987877	0.543441	-2.707859	0.115417	-0.095825	-0.039551	0.999793	-0.014938	0.002717	-0.013538	
47092	    0	13.214383	-9.130917	-3.707990	-2.456394	0.491546	-2.124310	0.131071	-0.093154	-0.036266	0.999865	-0.012281	0.002458	-0.010621	
47093	    0	14.736196	-8.287578	-3.636769	-1.718938	0.410661	-1.335934	0.146729	-0.084167	-0.035950	0.999938	-0.008595	0.002053	-0.006680	
47094	    0	13.393493	-6.135937	-3.538496	-1.034552	0.209428	-0.519946	0.133738	-0.061890	-0.035206	0.999982	-0.005173	0.001047	-0.002600	
47095	    0	9.891929	-4.851119	-3.519102	-0.597192	-0.024414	0.311280	0.098999	-0.048462	-0.035034	0.999994	-0.002986	-0.000122	0.001556	
47096	    0	8.517260	-5.239722	-2.833257	-0.075913	-0.205804	1.004796	0.085464	-0.051979	-0.028225	0.999987	-0.000380	-0.001029	0.005024	
47097	    0	6.970401	-4.465443	-4.134770	0.306705	-0.270656	1.670858	0.070129	-0.044006	-0.041321	0.999963	0.001534	-0.001353	0.008354	
47098	    0	5.505434	-1.071333	-4.900919	0.546660	-0.314720	2.368796	0.055252	-0.009926	-0.048950	0.999925	0.002733	-0.001574	0.011844	
47099	    0	4.699467	0.700485	-4.677441	0.656918	-0.504896	3.044255	0.046997	0.007874	-0.046631	0.999875	0.003284	-0.002524	0.015221	
47100	    0	4.281558	2.755083	-4.387677	0.579678	-0.830891	3.676637	0.042480	0.028461	-0.043618	0.999818	0.002898	-0.004154	0.018382	
47101	    0	3.926936	3.981007	-4.548095	0.465434	-1.136688	4.407123	0.038635	0.040771	-0.045166	0.999738	0.002327	-0.005683	0.022034	
47102	    0	4.197817	3.229597	-4.829340	0.507416	-1.348276	5.174878	0.041446	0.033495	-0.047929	0.999639	0.002537	-0.006741	0.025871	
47103	    0	5.435360	2.443684	-4.398820	0.702778	-1.631231	5.893112	0.053955	0.026184	-0.043457	0.999526	0.003513	-0.008155	0.029461	
47104	    0	6.543457	3.320038	-3.738034	0.922382	-1.956938	6.472890	0.064672	0.035472	-0.036585	0.999417	0.004611	-0.009783	0.032358	
47105	    0	7.741885	4.509335	-3.542640	0.858692	-2.250419	6.971795	0.076172	0.047913	-0.034363	0.999319	0.004292	-0.011250	0.034851	
47106	    0	9.777237	3.953890	-3.661949	0.382709	-2.376382	7.322216	0.096662	0.043160	-0.035386	0.999257	0.001913	-0.011879	0.036602	
47107	    0	11.372803	1.779804	-3.303352	-0.158733	-2.418955	7.509272	0.113342	0.022034	-0.031677	0.999221	-0.000793	-0.012092	0.037537	
47108	    0	12.593782	-0.519732	-2.801251	-0.298770	-2.595632	7.514837	0.126365	-0.000494	-0.026371	0.999208	-0.001493	-0.012975	0.037564	
47109	    0	14.837641	-1.396696	-2.070799	0.103979	-2.982380	7.517766	0.149048	-0.008362	-0.018494	0.999182	0.000520	-0.014908	0.037579	
47110	    0	18.359205	0.219666	-1.389327	0.726339	-3.354667	7.619214	0.183528	0.009233	-0.010789	0.999126	0.003631	-0.016768	0.038085	
47111	    0	20.498593	2.484030	0.272213	1.237104	-3.608094	7.685157	0.203735	0.032654	0.006592	0.999080	0.006184	-0.018035	0.038414	
47112	    0	22.410127	4.837791	1.471391	1.633973	-3.734824	7.731419	0.221681	0.056835	0.019311	0.999044	0.008167	-0.018668	0.038645	
47113	    0	25.697160	8.068316	1.674219	1.947648	-3.779101	7.690615	0.253235	0.090271	0.022400	0.999034	0.009735	-0.018889	0.038441	
47114	    0	29.231465	11.074453	2.680639	2.114945	-3.585962	7.505050	0.287337	0.121263	0.033235	0.999079	0.010571	-0.017924	0.037514	
47115	    0	29.018139	13.732485	4.897557	2.546079	-3.181597	7.172138	0.284180	0.146912	0.055359	0.999149	0.012727	-0.015903	0.035851	
47116	    0	26.115018	17.660788	5.987441	2.657566	-2.510475	6.596030	0.254358	0.184227	0.065511	0.999289	0.013285	-0.012549	0.032972	
47117	    0	25.372781	23.596716	6.622668	2.210597	-1.689997	5.615390	0.246399	0.242188	0.070984	0.999509	0.011051	-0.008449	0.028072	
47118	    0	23.990435	28.083142	5.764896	1.611859	-1.103694	4.299373	0.233470	0.285413	0.061237	0.999721	0.008059	-0.005518	0.021495	
47119	    0	19.686378	29.930298	1.755588	1.610070	-0.796547	2.884050	0.192444	0.301941	0.020752	0.999855	0.008050	-0.003983	0.014420	
47120	    0	14.556029	31.719055	1.833579	1.580654	-0.675598	1.512370	0.143088	0.318118	0.021334	0.999934	0.007903	-0.003378	0.007562	
47121	    0	9.968122	31.448159	7.293846	1.706719	-0.621614	0.247196	0.099060	0.313965	0.075928	0.999957	0.008533	-0.003108	0.001236	
47122	    0	6.590549	29.758713	12.085636	1.715115	-0.346380	-0.884452	0.067005	0.296241	0.123516	0.999951	0.008575	-0.001732	-0.004422	
47123	    0	5.586554	28.769213	12.114047	1.395447	0.116160	-1.810495	0.058533	0.286316	0.123108	0.999934	0.006977	0.000581	-0.009052	
47124	    0	6.521552	24.148829	9.067962	0.751517	0.512138	-2.484776	0.068439	0.240309	0.091412	0.999912	0.003757	0.002561	-0.012424	
47125	    0	7.104947	18.709823	6.439793	-0.013733	0.816567	-2.922933	0.074036	0.186035	0.064087	0.999885	-0.000069	0.004083	-0.014614	
47126	    0	6.740403	14.559476	5.662300	-0.662836	1.033642	-3.172837	0.069994	0.144684	0.055785	0.999855	-0.003314	0.005168	-0.015863	
47127	    0	6.538519	11.491047	3.335719	-1.254153	1.056731	-3.299900	0.067444	0.114014	0.032288	0.999830	-0.006270	0.005283	-0.016499	
47128	    0	2.394790	3.707200	-15.661023	-0.786813	0.228891	-3.021364	0.024319	0.036090	-0.156781	0.999877	-0.003934	0.001144	-0.015106	
47129	    0	-3.907609	-27.461582	-48.609646	1.531459	-1.858579	-1.348157	-0.036377	-0.270630	-0.488525	0.999905	0.007657	-0.009293	-0.006741	
47130	    0	50.424080	-7.818693	-46.228145	-2.457869	-2.566989	-5.520859	0.507590	-0.097789	-0.454659	0.999461	-0.012287	-0.012833	-0.027599	
47131	    0	91.247658	38.110627	12.184017	1.500565	2.659615	-7.762107	0.927856	0.344421	0.112244	0.999130	0.007501	0.013294	-0.038799	
47132	    0	18.557129	-15.707065	6.912892	-1.733102	-0.504002	-5.912959	0.180655	-0.161851	0.070977	0.999522	-0.008664	-0.002520	-0.029560	
47133	    0	-11.583324	9.369838	19.434179	-1.626572	0.296815	-4.814668	-0.113220	0.098022	0.193726	0.999676	-0.008132	0.001484	-0.024071	
47134	    0	-22.281912	3.566991	11.968545	0.611735	-0.343159	-4.305609	-0.222193	0.040092	0.119422	0.999762	0.003058	-0.001716	-0.021526	
47135	    0	10.386050	17.470061	6.277843	-0.932968	1.294824	-4.351433	0.108032	0.172668	0.061279	0.999731	-0.004664	0.006474	-0.021755	
47136	    0	21.295481	-2.726082	4.840311	-1.287931	1.518927	-3.554209	0.212790	-0.030738	0.046977	0.999792	-0.006439	0.007594	-0.017770	
47137	    0	16.551945	4.139302	-3.652308	-0.981959	1.430783	-3.252595	0.165894	0.038513	-0.037903	0.999829	-0.004910	0.007154	-0.016262	
47138	    0	8.256507	9.809082	1.587773	-0.357451	1.289038	-2.802580	0.084028	0.096948	0.015165	0.999879	-0.001787	0.006445	-0.014012	
47139	    0	11.072040	2.393998	0.405207	-0.214965	1.098666	-2.453688	0.111023	0.022583	0.003418	0.999908	-0.001075	0.005493	-0.012268	
47140	    0	20.334838	5.865326	-1.461264	-0.338563	1.217303	-2.202093	0.203883	0.056384	-0.015949	0.999919	-0.001693	0.006086	-0.011010	
47141	    0	18.015674	10.504335	-4.710891	-0.207333	1.108573	-1.839483	0.180847	0.103333	-0.048218	0.999941	-0.001037	0.005543	-0.009197	
47142	    0	14.743373	0.469183	-3.749154	-0.663579	1.140807	-1.670678	0.147248	0.003335	-0.038344	0.999943	-0.003318	0.005704	-0.008353	
47143	    0	13.331068	2.720539	0.153811	-0.117494	1.092733	-1.257339	0.133484	0.026367	0.000793	0.999965	-0.000587	0.005464	-0.006287	
47144	    0	13.925217	9.107287	-1.142964	-0.415997	1.124584	-1.016437	0.139645	0.090339	-0.012403	0.999969	-0.002080	0.005623	-0.005082	
47145	    0	15.802242	5.129044	-4.081554	-0.531582	1.009377	-0.814063	0.158020	0.050537	-0.041748	0.999975	-0.002658	0.005047	-0.004070	
47146	    0	18.703406	-0.342796	-2.250058	-0.168038	0.780300	-0.751118	0.186930	-0.004149	-0.023227	0.999985	-0.000840	0.003901	-0.003756	
47147	    0	17.798408	-0.583730	-1.583290	-0.736813	0.547031	-0.712589	0.177917	-0.006531	-0.016296	0.999983	-0.003684	0.002735	-0.003563	
47148	    0	17.660093	3.153906	-0.679146	-1.327910	0.406460	-0.785073	0.176708	0.030798	-0.007357	0.999968	-0.006639	0.002032	-0.003925	
47149	    0	18.822412	-2.698657	0.280913	-1.924742	0.347907	-0.862138	0.188110	-0.027771	0.002747	0.999943	-0.009624	0.001740	-0.004311	
47150	    0	16.270697	-7.658117	0.731535	-2.393025	0.320062	-0.871110	0.162384	-0.077196	0.007977	0.999917	-0.011965	0.001600	-0.004355	
47151	    0	12.518781	-5.756499	-0.072473	-2.678580	0.374616	-0.856810	0.124939	-0.058105	-0.000183	0.999899	-0.013392	0.001873	-0.004284	
47152	    0	10.245660	-4.974313	-0.806696	-2.979593	0.494787	-0.918617	0.102207	-0.050328	-0.007573	0.999875	-0.014897	0.002474	-0.004593	
47153	    0	9.582706	-6.468820	-3.312664	-3.074785	0.602177	-1.012466	0.095398	-0.065674	-0.032410	0.999864	-0.015373	0.003011	-0.005062	
47154	    0	10.499343	-7.644351	-4.749605	-2.835008	0.504896	-1.209690	0.104407	-0.077742	-0.046664	0.999878	-0.014174	0.002524	-0.006048	
47155	    0	13.401765	-6.342833	-4.050595	-2.125427	0.509660	-1.715906	0.133362	-0.065002	-0.040161	0.999903	-0.010627	0.002548	-0.008579	
47156	    0	14.574260	-6.233350	-3.945935	-1.226648	0.733204	-2.061135	0.144943	-0.064073	-0.039602	0.999921	-0.006133	0.003666	-0.010305	
47157	    0	14.899546	-5.150331	-4.391807	-0.314340	1.053077	-2.387306	0.148132	-0.053345	-0.044617	0.999913	-0.001572	0.005265	-0.011936	
47158	    0	12.921802	-4.302827	-6.060346	0.815616	0.999873	-2.856753	0.128283	-0.044616	-0.061426	0.999877	0.004078	0.004999	-0.014283	
47159	    0	12.308878	-4.635187	-5.433295	0.960785	1.004084	-3.380773	0.122009	-0.048157	-0.055176	0.999832	0.004804	0.005020	-0.016903	
47160	    0	12.328220	-1.795339	-4.810924	0.438721	1.046255	-3.954403	0.122643	-0.020276	-0.048795	0.999788	0.002193	0.005231	-0.019771	
47161	    0	13.707185	-3.589555	-4.792264	-0.154699	1.102539	-4.321648	0.135986	-0.038879	-0.048645	0.999750	-0.000773	0.005512	-0.021606	
47162	    0	14.660347	-7.541012	-4.367741	-0.771022	1.144896	-4.502903	0.144602	-0.078851	-0.044209	0.999722	-0.003855	0.005724	-0.022512	
47163	    0	13.194485	-6.111346	-2.827663	-1.270417	0.960061	-4.546796	0.130371	-0.064270	-0.028503	0.999709	-0.006351	0.004800	-0.022732	
47164	    0	13.448894	-4.388082	-3.002619	-1.975838	0.844090	-4.517072	0.133321	-0.047198	-0.030135	0.999687	-0.009878	0.004220	-0.022583	
47165	    0	13.722543	-10.350317	-2.949988	-1.789049	0.911024	-3.948534	0.135010	-0.106445	-0.029175	0.999754	-0.008945	0.004555	-0.019741	
47166	    0	13.006755	-10.538227	-3.112180	-1.468947	0.729610	-3.649764	0.128000	-0.107958	-0.030805	0.999800	-0.007344	0.003648	-0.018248	
47167	    0	12.158400	-10.987913	-2.322322	-1.196355	0.550301	-3.398320	0.119629	-0.112061	-0.022888	0.999833	-0.005981	0.002751	-0.016991	
47168	    0	12.352221	-9.988592	-1.466879	-1.064544	0.507762	-3.250475	0.121840	-0.101953	-0.014441	0.999850	-0.005322	0.002539	-0.016252	
47169	    0	13.932660	-8.296679	-1.466279	-0.759729	0.442524	-3.064858	0.138000	-0.085144	-0.014648	0.999872	-0.003798	0.002213	-0.015324	
47170	    0	16.176196	-7.035956	-1.669600	-0.458732	0.449576	-2.679528	0.160762	-0.072556	-0.016893	0.999905	-0.002294	0.002248	-0.013397	
47171	    0	17.880180	-5.395720	-1.895416	-0.206761	0.437364	-2.165267	0.178162	-0.055908	-0.019287	0.999938	-0.001034	0.002187	-0.010826	
47172	    0	17.105096	-3.968511	-2.325650	0.110818	0.347522	-1.488128	0.170709	-0.040943	-0.023576	0.999970	0.000554	0.001738	-0.007441	
47173	    0	13.075939	-3.526949	-1.714122	0.318147	0.208474	-0.709536	0.130615	-0.035706	-0.017334	0.999991	0.001591	0.001042	-0.003548	
47174	    0	10.060332	-4.139729	-0.555420	0.477028	-0.025749	-0.073624	0.100589	-0.041421	-0.005640	0.999996	0.002385	-0.000129	-0.000368	
47175	    0	7.795152	-3.695924	-1.282967	1.181039	-0.275232	0.514988	0.078064	-0.036682	-0.012939	0.999978	0.005905	-0.001376	0.002575	
47176	    0	5.505799	-1.099792	-2.878634	1.516176	-0.312047	1.191349	0.055166	-0.010451	-0.028781	0.999951	0.007581	-0.001560	0.005957	
47177	    0	3.123501	0.901009	-3.297493	1.916758	-0.305186	2.040168	0.031189	0.009644	-0.032837	0.999901	0.009583	-0.001526	0.010201	
47178	    0	1.554596	3.332471	-3.751535	1.973249	-0.510241	2.754346	0.015177	0.033903	-0.037144	0.999853	0.009866	-0.002551	0.013771	
47179	    0	2.076764	4.200818	-4.654745	1.832130	-0.748493	3.470842	0.020203	0.042786	-0.046082	0.999800	0.009160	-0.003742	0.017353	
47180	    0	2.878596	2.572246	-5.392962	1.699605	-0.899398	4.303186	0.028459	0.026793	-0.053576	0.999722	0.008497	-0.004497	0.021514	
47181	    0	3.531740	1.681740	-5.672631	1.661127	-1.036774	5.121491	0.035156	0.018188	-0.056396	0.999623	0.008305	-0.005183	0.025604	
47182	    0	4.284916	2.963036	-5.431187	1.485107	-1.176067	5.874613	0.042264	0.031279	-0.053834	0.999523	0.007424	-0.005879	0.029368	
47183	    0	4.831802	3.960975	-4.569297	1.014136	-1.343596	6.473222	0.047302	0.041382	-0.045166	0.999440	0.005070	-0.006717	0.032360	
47184	    0	5.512161	3.228778	-3.922010	0.385746	-1.511507	6.895166	0.054257	0.034244	-0.038743	0.999374	0.001928	-0.007556	0.034469	
47185	    0	6.639734	1.419709	-3.894455	-0.212909	-1.721394	7.198452	0.066162	0.016541	-0.038391	0.999314	-0.001064	-0.008605	0.035984	
47186	    0	8.339937	-0.138541	-3.814110	-0.645225	-1.958570	7.438217	0.083745	0.001604	-0.037324	0.999255	-0.003225	-0.009790	0.037182	
47187	    0	10.485501	-1.556538	-2.801978	-0.837167	-2.222080	7.630662	0.105652	-0.011658	-0.026794	0.999202	-0.004185	-0.011107	0.038143	
47188	    0	13.531882	-2.701529	-1.686018	-0.592780	-2.585946	7.764896	0.136435	-0.021778	-0.015031	0.999158	-0.002963	-0.012926	0.038814	
47189	    0	17.088971	-2.561783	-1.145692	0.013737	-3.040277	7.947649	0.171875	-0.018799	-0.008850	0.999095	0.000069	-0.015197	0.039726	
47190	    0	20.082337	-2.434891	-1.081508	0.652714	-3.421548	8.064383	0.201733	-0.016197	-0.007430	0.999035	0.003263	-0.017102	0.040309	
47191	    0	23.651070	-0.984359	-0.852157	1.363067	-3.764651	8.026525	0.236755	-0.000305	-0.004089	0.998994	0.006813	-0.018817	0.040119	
47192	    0	28.126868	3.117426	-0.677514	1.909124	-3.994355	7.729606	0.279840	0.042037	-0.000809	0.999008	0.009542	-0.019965	0.038635	
47193	    0	31.728610	11.005479	1.859846	1.883697	-3.890647	7.362313	0.312500	0.121399	0.025818	0.999088	0.009416	-0.019447	0.036800	
47194	    0	29.353836	14.039221	5.784019	1.799687	-3.363753	7.080270	0.287296	0.150081	0.064030	0.999191	0.008996	-0.016814	0.035392	
47195	    0	27.217011	14.845031	9.806309	2.517544	-2.718818	6.642989	0.265686	0.156067	0.103638	0.999276	0.012585	-0.013591	0.033207	
47196	    0	28.230832	17.476956	8.571309	3.450679	-1.946444	5.539057	0.276482	0.180936	0.091510	0.999420	0.017250	-0.009730	0.027690	
47197	    0	24.799158	23.105539	3.219319	4.048929	-1.395617	4.015164	0.243042	0.235229	0.038635	0.999569	0.020242	-0.006977	0.020073	
47198	    0	19.338119	31.375483	-2.014478	3.512668	-0.887561	2.520957	0.189474	0.316439	-0.013756	0.999756	0.017562	-0.004437	0.012604	
47199	    0	14.646796	38.321316	1.328985	2.262945	-0.516335	1.305428	0.143921	0.383972	0.018005	0.999911	0.011314	-0.002582	0.006527	
47200	    0	8.853965	38.658961	8.515598	1.312647	-0.145150	0.199701	0.088091	0.386107	0.087755	0.999977	0.006563	-0.000726	0.000998	
47201	    0	5.455349	33.460386	10.829927	0.496867	0.214387	-1.033026	0.056396	0.334045	0.109070	0.999983	0.002484	0.001072	-0.005165	
47202	    0	5.348679	28.039958	8.137202	-0.120737	0.468644	-2.066079	0.056570	0.279875	0.081073	0.999943	-0.000604	0.002343	-0.010330	
47203	    0	6.643916	20.750388	6.325538	-0.709559	0.773839	-2.741340	0.069519	0.206787	0.062256	0.999892	-0.003548	0.003869	-0.013706	
47204	    0	7.841446	14.834155	6.360240	-1.229350	1.154769	-3.114482	0.081078	0.147478	0.062231	0.999843	-0.006146	0.005774	-0.015572	
47205	    0	7.261773	9.408352	6.695255	-1.601324	1.430605	-3.322818	0.074646	0.093384	0.065674	0.999804	-0.008006	0.007153	-0.016613	
47206	    0	5.249113	7.068172	-0.989019	-1.747246	1.171189	-3.370888	0.053610	0.069693	-0.010814	0.999803	-0.008736	0.005856	-0.016853	
47207	    0	-2.743845	-3.102746	-26.508721	-0.163083	-0.099185	-2.605512	-0.027710	-0.030884	-0.265076	0.999914	-0.000815	-0.000496	-0.013027	
47208	    0	-2.626304	1.312039	-67.139852	0.374263	-4.082752	-3.138509	-0.012330	0.014644	-0.671719	0.999666	0.001871	-0.020411	-0.015691	
47209	    0	84.828079	24.323113	-36.685186	-2.016390	1.199951	-8.850137	0.855591	0.201721	-0.374146	0.998952	-0.010078	0.005998	-0.044235	
47210	    0	56.238736	-5.124874	34.113854	2.307252	1.642260	-4.960353	0.563593	-0.069113	0.335785	0.999592	0.011535	0.008210	-0.024798	
47211	    0	8.669619	8.026193	9.936909	-3.109546	-0.305804	-5.835263	0.088867	0.079224	0.098267	0.999452	-0.015545	-0.001529	-0.029171	
47212	    0	-18.956147	5.491161	29.909999	1.646569	0.340873	-4.297638	-0.187848	0.056494	0.299882	0.999733	0.008232	0.001704	-0.021486	
47213	    0	-5.654520	8.833688	4.715099	-0.403432	0.314352	-4.001889	-0.054688	0.089539	0.047058	0.999796	-0.002017	0.001572	-0.020008	
47214	    0	22.224555	6.886837	11.076058	-0.589984	1.412491	-3.812486	0.224282	0.064929	0.108986	0.999788	-0.002950	0.007062	-0.019061	
47215	    0	21.774501	-0.042393	-0.916379	-1.174793	1.071982	-3.033596	0.217651	-0.003784	-0.010315	0.999853	-0.005874	0.005360	-0.015167	
47216	    0	13.463974	6.474266	-0.611256	-1.071033	1.326822	-3.131079	0.135585	0.062588	-0.007349	0.999841	-0.005355	0.006634	-0.015655	
47217	    0	6.766291	6.345318	3.900450	0.051309	0.949886	-2.404852	0.068604	0.062622	0.038696	0.999916	0.000257	0.004749	-0.012024	
47218	    0	17.590142	4.656112	2.948371	-0.501074	1.175531	-2.214301	0.176572	0.044681	0.028334	0.999918	-0.002505	0.005877	-0.011071	
47219	    0	21.497680	5.126493	-3.980268	-0.581183	1.049829	-2.041674	0.215271	0.048950	-0.041077	0.999929	-0.002906	0.005249	-0.010208	
47220	    0	15.844339	9.631829	-7.166370	-0.403601	0.878729	-1.640154	0.158908	0.094871	-0.072554	0.999954	-0.002018	0.004394	-0.008201	
47221	    0	13.157916	1.130963	-5.127949	-1.021591	0.924124	-1.297016	0.131409	0.010193	-0.051941	0.999955	-0.005108	0.004621	-0.006485	
47222	    0	13.326725	2.905261	-0.540403	-0.455479	0.968560	-0.939568	0.133373	0.028413	-0.006115	0.999974	-0.002277	0.004843	-0.004698	
47223	    0	16.055690	7.665851	-1.624863	-0.575833	1.001748	-0.772864	0.160767	0.075989	-0.017273	0.999975	-0.002879	0.005009	-0.003864	
47224	    0	18.223622	2.794356	-5.547513	-0.878913	0.857360	-0.559811	0.182073	0.027187	-0.056376	0.999977	-0.004395	0.004287	-0.002799	
47225	    0	18.654542	-2.723052	-2.324667	-1.067932	0.624852	-0.510410	0.186401	-0.027832	-0.023682	0.999977	-0.005340	0.003124	-0.002552	
47226	    0	18.908807	-0.707065	0.095272	-1.378646	0.421528	-0.609404	0.189067	-0.007642	0.000606	0.999969	-0.006893	0.002108	-0.003047	
47227	    0	20.217593	-1.180656	0.554051	-2.200939	0.421152	-0.635543	0.202148	-0.012390	0.005249	0.999931	-0.011004	0.002106	-0.003178	
47228	    0	17.425890	-4.499977	0.796153	-2.834041	0.525494	-0.593970	0.174146	-0.045403	0.008145	0.999891	-0.014170	0.002627	-0.002970	
47229	    0	13.286981	-8.020721	0.493528	-3.286138	0.689158	-0.493646	0.132690	-0.080444	0.005798	0.999856	-0.016430	0.003446	-0.002468	
47230	    0	9.726151	-7.932239	-0.113361	-3.376752	0.810092	-0.482202	0.097068	-0.079565	-0.000185	0.999846	-0.016883	0.004050	-0.002411	
47231	    0	9.024278	-8.448101	-2.493331	-3.251612	0.693545	-0.598173	0.089905	-0.085144	-0.023865	0.999857	-0.016257	0.003468	-0.002991	
47232	    0	11.245166	-8.373288	-3.507809	-2.305666	0.557533	-0.962856	0.111949	-0.084672	-0.034418	0.999918	-0.011528	0.002788	-0.004814	
47233	    0	13.666989	-10.624037	-3.313462	-0.492674	0.667580	-1.526661	0.135742	-0.107361	-0.033325	0.999962	-0.002463	0.003338	-0.007633	
47234	    0	14.767385	-7.056872	-4.328970	1.093130	0.936723	-2.043587	0.146738	-0.071831	-0.044369	0.999922	0.005466	0.004683	-0.010218	
47235	    0	14.106717	-2.541806	-5.364003	1.659666	1.178037	-2.772659	0.140381	-0.026917	-0.054688	0.999851	0.008298	0.005890	-0.013863	
47236	    0	11.219622	-3.391591	-5.663119	1.537610	1.266558	-3.315369	0.111256	-0.035325	-0.057606	0.999812	0.007688	0.006332	-0.016576	
47237	    0	11.681836	-5.010115	-3.673988	1.642738	1.277452	-3.808130	0.115601	-0.052002	-0.037903	0.999764	0.008213	0.006387	-0.019039	
47238	    0	13.193599	-6.869132	-3.309756	1.628266	1.372276	-4.252262	0.130206	-0.071195	-0.034568	0.999717	0.008141	0.006861	-0.021259	
47239	    0	13.502885	-8.358688	-2.493040	1.425504	1.238375	-4.524684	0.132935	-0.086426	-0.026367	0.999699	0.007127	0.006191	-0.022621	
47240	    0	12.841832	-5.925447	-2.190254	0.734781	1.046281	-4.624238	0.126886	-0.062118	-0.022794	0.999712	0.003674	0.005231	-0.023119	
47241	    0	13.099282	-5.643842	-2.381491	-0.171487	1.092631	-4.597902	0.129517	-0.059448	-0.024475	0.999720	-0.000857	0.005463	-0.022987	
47242	    0	12.539208	-9.391474	-2.400874	-0.408394	0.984075	-4.105494	0.123309	-0.096510	-0.024424	0.999775	-0.002042	0.004920	-0.020526	
47243	    0	12.420265	-10.058800	-2.519062	-0.621074	0.842532	-3.843943	0.122131	-0.103027	-0.025391	0.999801	-0.003105	0.004212	-0.019218	
47244	    0	11.767059	-10.528287	-2.194661	-0.520164	0.680962	-3.608147	0.115670	-0.107439	-0.022065	0.999827	-0.002601	0.003405	-0.018040	
47245	    0	10.267875	-10.162450	-2.132209	-0.531032	0.496889	-3.374649	0.100891	-0.103394	-0.021301	0.999850	-0.002655	0.002484	-0.016872	
47246	    0	9.820073	-8.924758	-2.489480	-0.639180	0.397318	-3.103007	0.096750	-0.090836	-0.024799	0.999872	-0.003196	0.001987	-0.015514	
