// Start Time: Unknown
// Update Rate: 100.0Hz
// Filter Profile: human (34.3)
// Firmware Version: 2.1.4
PacketCounter	SampleTimeFine	Acc_X	Acc_Y	Acc_Z	Gyr_X	Gyr_Y	Gyr_Z	VelInc_X	VelInc_Y	VelInc_Z	OriInc_q0	OriInc_q1	OriInc_q2	OriInc_q3	
64484	    0	8.432104	-4.143313	4.607137	-1.090447	0.949492	1.208132	0.084786	-0.040671	0.045893	0.999955	-0.005452	0.004747	0.006041	
64485	    0	7.236572	-0.539665	1.471997	-1.329059	0.796711	0.983443	0.072449	-0.004944	0.014465	0.999957	-0.006645	0.003983	0.004917	
64486	    0	6.994881	1.419575	-2.443895	-1.573779	0.611315	1.021593	0.069800	0.014359	-0.024765	0.999950	-0.007869	0.003057	0.005108	
64487	    0	9.373772	2.516125	-5.324643	-1.393913	0.485428	1.287862	0.093445	0.025391	-0.053650	0.999951	-0.006969	0.002427	0.006439	
64488	    0	15.741498	2.230322	-6.237392	-0.860989	0.431639	1.504727	0.157107	0.023216	-0.062812	0.999960	-0.004305	0.002158	0.007524	
64489	    0	25.218239	0.732228	-6.917756	-0.524910	0.252728	1.841002	0.252014	0.009460	-0.069519	0.999953	-0.002625	0.001264	0.009205	
64490	    0	29.567248	-2.778801	-7.579170	-0.303657	0.103381	2.327782	0.295931	-0.024460	-0.075906	0.999930	-0.001518	0.000517	0.011639	
64491	    0	25.403651	-5.739192	-5.454674	0.552387	0.183303	2.821448	0.254761	-0.053650	-0.054932	0.999896	0.002762	0.000916	0.014107	
64492	    0	17.551071	-6.407162	-3.970731	1.914138	0.218214	3.243066	0.176471	-0.060830	-0.040492	0.999822	0.009570	0.001091	0.016214	
64493	    0	14.359089	-5.654805	-5.058705	3.061162	-0.041011	3.188584	0.144470	-0.053467	-0.051392	0.999755	0.015305	-0.000205	0.015942	
64494	    0	16.628965	-2.823235	-9.643435	3.011932	-0.385695	2.991521	0.166859	-0.024286	-0.096498	0.999772	0.015059	-0.001928	0.014956	
64495	    0	22.941102	4.112920	-13.600705	2.121859	-0.405717	3.068723	0.229004	0.046082	-0.135071	0.999824	0.010609	-0.002028	0.015343	
64496	    0	28.680129	12.757300	-16.144169	1.468359	-0.209248	3.346630	0.284768	0.133529	-0.160177	0.999832	0.007341	-0.001046	0.016732	
64497	    0	26.296811	17.256940	-15.769094	0.929507	0.178539	3.682168	0.259583	0.178101	-0.157104	0.999819	0.004647	0.000893	0.018410	
64498	    0	20.828554	17.566246	-11.727530	0.391223	0.382830	3.921002	0.204561	0.179927	-0.117320	0.999804	0.001956	0.001914	0.019604	
64499	    0	18.031083	15.656003	-8.796508	-0.112922	0.226798	3.886659	0.177124	0.159973	-0.088257	0.999810	-0.000565	0.001134	0.019432	
64500	    0	16.200220	12.422423	-7.261798	-0.428222	0.043490	3.538701	0.159757	0.126908	-0.072923	0.999841	-0.002141	0.000217	0.017693	
64501	    0	13.990190	9.951440	-5.821466	-0.415819	0.068095	3.125129	0.138306	0.101562	-0.058472	0.999875	-0.002079	0.000340	0.015625	
64502	    0	11.766241	9.187379	-4.074814	-0.017548	0.365842	2.803705	0.116284	0.093507	-0.040970	0.999900	-0.000088	0.001829	0.014018	
64503	    0	10.065205	9.704838	-2.072148	0.439656	0.737021	2.471994	0.099365	0.098328	-0.020874	0.999914	0.002198	0.003685	0.012360	
64504	    0	9.327699	10.808193	-0.834091	0.776309	0.955413	2.015924	0.092141	0.109047	-0.008361	0.999929	0.003881	0.004777	0.010079	
64505	    0	8.061252	13.421498	-2.101830	0.557145	1.036851	1.538110	0.079468	0.134888	-0.021057	0.999952	0.002786	0.005184	0.007690	
64506	    0	5.478510	17.442223	-1.321868	0.267032	0.988018	1.269736	0.053611	0.174783	-0.013252	0.999967	0.001335	0.004940	0.006349	
64507	    0	1.160624	18.255329	0.547398	0.472456	0.855266	1.441211	0.010315	0.182617	0.005859	0.999962	0.002362	0.004276	0.007206	
64508	    0	-1.159424	15.197461	4.312159	0.743305	0.605020	1.658084	-0.012721	0.151711	0.043723	0.999953	0.003716	0.003025	0.008290	
64509	    0	-0.913561	9.671977	7.757073	1.023115	0.000954	1.434345	-0.009827	0.096252	0.078064	0.999961	0.005116	0.000005	0.007172	
64510	    0	-0.893009	6.964558	4.689812	0.271608	-0.705724	1.004607	-0.009445	0.069535	0.046960	0.999980	0.001358	-0.003529	0.005023	
64511	    0	0.625033	2.158285	0.787078	-0.376133	-1.400579	0.283816	0.006165	0.021606	0.007874	0.999972	-0.001881	-0.007003	0.001419	
64512	    0	1.486062	-2.121033	-6.863714	-2.018820	-2.306650	-0.592256	0.015585	-0.021946	-0.068241	0.999878	-0.010094	-0.011533	-0.002961	
64513	    0	0.538651	-6.613571	-5.534741	-3.360856	-3.038295	-0.882799	0.005920	-0.067078	-0.054138	0.999733	-0.016803	-0.015190	-0.004414	
64514	    0	4.266552	-16.004777	-2.638442	-1.215976	-2.513781	-0.663589	0.042453	-0.160343	-0.024876	0.999897	-0.006080	-0.012568	-0.003318	
64515	    0	9.133934	-22.211927	-0.596813	0.620463	-0.676730	0.118256	0.091492	-0.222046	-0.006348	0.999989	0.003102	-0.003384	0.000591	
64516	    0	7.742493	-20.547263	-0.228451	0.659182	0.046349	0.542261	0.077981	-0.205253	-0.002979	0.999990	0.003296	0.000232	0.002711	
64517	    0	4.406977	-14.082863	-1.214464	1.832039	0.526437	0.653087	0.044495	-0.140564	-0.013550	0.999949	0.009160	0.002632	0.003265	
64518	    0	2.796641	-9.393237	3.074107	1.909483	0.937861	0.116160	0.028162	-0.094203	0.029711	0.999943	0.009547	0.004689	0.000581	
64519	    0	1.288255	-3.457950	5.135504	0.458720	1.030738	-0.491336	0.013062	-0.034729	0.051208	0.999981	0.002294	0.005154	-0.002457	
64520	    0	-0.096738	3.366982	4.161784	0.173379	0.990683	-0.624088	-0.000656	0.033636	0.041651	0.999982	0.000867	0.004953	-0.003120	
64521	    0	1.304194	4.442437	0.675647	2.348396	1.143108	-0.457014	0.013184	0.044312	0.007202	0.999911	0.011742	0.005715	-0.002285	
64522	    0	1.664067	5.566655	2.607084	2.655144	1.472918	-1.090288	0.017138	0.055223	0.026681	0.999869	0.013275	0.007364	-0.005451	
64523	    0	8.840591	10.575914	0.404758	-1.251234	0.344280	-0.978862	0.088928	0.105347	0.003235	0.999967	-0.006256	0.001721	-0.004894	
64524	    0	33.275551	-15.258742	-7.505926	-1.606972	-1.098654	0.903528	0.333843	-0.151668	-0.072006	0.999942	-0.008035	-0.005493	0.004518	
64525	    0	40.238614	-41.933675	-8.415495	0.723462	-0.743870	0.617985	0.403992	-0.417786	-0.084167	0.999981	0.003617	-0.003719	0.003090	
64526	    0	10.905706	-17.810988	0.396999	-1.130121	-1.270886	-0.865568	0.108253	-0.178551	0.005668	0.999954	-0.005651	-0.006354	-0.004328	
64527	    0	-5.510035	19.360264	0.713219	-0.850502	-0.755323	-1.709777	-0.053467	0.194092	0.006104	0.999947	-0.004252	-0.003777	-0.008549	
64528	    0	-6.356792	39.266443	1.044781	-0.319674	-0.181390	-1.408208	-0.060810	0.393115	0.009764	0.999973	-0.001598	-0.000907	-0.007041	
64529	    0	5.364412	36.900899	-5.479972	-1.345839	0.566298	-0.586706	0.054565	0.368469	-0.057434	0.999969	-0.006729	0.002831	-0.002934	
64530	    0	23.752489	19.823394	-1.295263	-2.149448	-0.013543	-1.309429	0.238816	0.196519	-0.015055	0.999920	-0.010747	-0.000068	-0.006547	
64531	    0	26.955294	7.867095	-6.235545	-2.638213	-1.356588	-2.373647	0.270874	0.074646	-0.061523	0.999819	-0.013190	-0.006783	-0.011868	
64532	    0	18.438689	2.270759	-6.799984	-1.478065	-0.565361	-2.703014	0.184858	0.019711	-0.067631	0.999877	-0.007390	-0.002827	-0.013515	
64533	    0	9.638521	-0.725263	-5.237545	-0.705545	-0.082399	-2.299555	0.096313	-0.008545	-0.052307	0.999928	-0.003528	-0.000412	-0.011497	
64534	    0	9.096900	-2.780739	-5.982187	-0.751508	-0.086977	-1.853592	0.090731	-0.028873	-0.059675	0.999949	-0.003757	-0.000435	-0.009268	
64535	    0	16.443627	0.592607	-7.221000	0.390821	-0.365453	-1.735711	0.164612	0.004639	-0.071899	0.999958	0.001954	-0.001827	-0.008678	
64536	    0	21.012580	2.920157	-10.262867	1.953002	-0.728632	-1.980850	0.210779	0.028111	-0.101583	0.999896	0.009765	-0.003643	-0.009904	
64537	    0	18.258386	-0.138622	-11.675108	2.540164	-1.150580	-2.497247	0.183228	-0.002197	-0.115723	0.999825	0.012700	-0.005753	-0.012486	
64538	    0	14.017254	-0.155066	-10.867494	2.436613	-1.335998	-2.935609	0.140864	-0.002298	-0.107760	0.999795	0.012182	-0.006680	-0.014677	
64539	    0	14.613472	1.665228	-8.110656	1.791500	-1.296129	-3.298404	0.146912	0.014954	-0.080017	0.999803	0.008957	-0.006480	-0.016491	
64540	    0	17.946042	1.657733	-4.879567	1.438813	-1.431755	-3.543528	0.180063	0.013735	-0.047402	0.999791	0.007194	-0.007158	-0.017716	
64541	    0	17.761550	-0.872430	-2.705074	0.878205	-1.510535	-3.707382	0.177612	-0.011902	-0.025757	0.999789	0.004391	-0.007552	-0.018536	
64542	    0	15.652112	-3.368138	-0.489880	-0.083738	-1.119501	-3.937043	0.155842	-0.036756	-0.004010	0.999790	-0.000419	-0.005597	-0.019684	
64543	    0	15.659565	-4.150217	2.135535	-1.062855	-0.651409	-4.064485	0.155640	-0.044556	0.022095	0.999774	-0.005314	-0.003257	-0.020321	
64544	    0	16.410010	-4.474743	3.842757	-1.783893	-0.482406	-3.935742	0.163088	-0.047616	0.039238	0.999763	-0.008919	-0.002412	-0.019677	
64545	    0	15.760202	-4.691061	3.873935	-2.058568	-0.396568	-3.736400	0.156616	-0.049438	0.039551	0.999770	-0.010292	-0.001983	-0.018681	
64546	    0	13.797667	-5.634723	5.417501	-2.045584	-0.321983	-3.538952	0.136869	-0.058216	0.054985	0.999789	-0.010227	-0.001610	-0.017694	
64547	    0	11.318862	-9.596865	6.534581	-1.586999	-0.412582	-3.183916	0.111511	-0.097229	0.066345	0.999839	-0.007935	-0.002063	-0.015919	
64548	    0	8.393474	-15.360856	5.392366	-1.459181	-0.502225	-2.706637	0.081712	-0.154325	0.055255	0.999878	-0.007296	-0.002511	-0.013533	
64549	    0	5.894427	-20.845065	3.413849	-1.867551	-0.585958	-2.166825	0.056580	-0.208740	0.036255	0.999893	-0.009337	-0.002930	-0.010834	
64550	    0	4.349137	-27.786774	2.197811	-1.986176	-0.549522	-1.498263	0.041344	-0.277946	0.024854	0.999918	-0.009931	-0.002748	-0.007491	
64551	    0	2.883421	-32.918174	1.844207	-1.375405	-0.331119	-0.848398	0.027405	-0.329163	0.020752	0.999966	-0.006877	-0.001656	-0.004242	
64552	    0	2.427057	-31.174139	2.134437	-0.457955	-0.066376	-0.309563	0.023781	-0.311728	0.022066	0.999995	-0.002290	-0.000332	-0.001548	
64553	    0	3.655973	-23.845953	4.095327	0.199890	0.356484	0.195313	0.036865	-0.238464	0.040649	0.999997	0.000999	0.001782	0.000977	
64554	    0	4.101552	-16.346299	7.746015	0.186158	0.829318	0.449564	0.041703	-0.163442	0.077136	0.999988	0.000931	0.004147	0.002248	
64555	    0	4.234011	-8.917764	7.900952	0.290109	0.962835	0.559238	0.042969	-0.089172	0.078674	0.999983	0.001451	0.004814	0.002796	
64556	    0	5.828674	-6.266047	6.311136	0.366404	1.004036	0.838668	0.058865	-0.062530	0.062702	0.999976	0.001832	0.005020	0.004193	
64557	    0	7.476244	-5.022755	5.154716	0.186350	1.102459	1.090252	0.075317	-0.049866	0.051086	0.999969	0.000932	0.005512	0.005451	
64558	    0	7.899079	-3.422066	4.191819	-0.429540	1.160827	1.260774	0.079446	-0.033631	0.041531	0.999961	-0.002148	0.005804	0.006304	
64559	    0	7.364443	-0.962972	3.468787	-1.255633	1.201654	1.361112	0.073914	-0.008911	0.034302	0.999939	-0.006278	0.006008	0.006805	
64560	    0	6.128850	3.430886	2.207010	-2.263334	1.165619	1.194803	0.061207	0.034919	0.021320	0.999901	-0.011316	0.005828	0.005974	
64561	    0	8.134010	6.116068	0.216164	-3.161783	0.976803	1.146757	0.080994	0.061646	0.000793	0.999846	-0.015808	0.004884	0.005733	
64562	    0	16.347531	6.474281	-3.194014	-2.725523	0.754006	1.375255	0.162903	0.065415	-0.033443	0.999876	-0.013627	0.003770	0.006876	
64563	    0	27.421117	5.403254	-6.201088	-1.867735	0.290880	2.020328	0.273560	0.056213	-0.062927	0.999904	-0.009338	0.001454	0.010101	
64564	    0	31.532431	-0.577576	-6.947056	-1.746059	-0.070003	2.614129	0.315393	-0.002259	-0.069330	0.999876	-0.008730	-0.000350	0.013070	
64565	    0	26.822634	-7.501999	-7.190673	-0.991673	-0.055697	3.038154	0.269348	-0.071289	-0.071472	0.999872	-0.004958	-0.000278	0.015190	
64566	    0	19.212110	-9.460291	-5.522607	0.331513	0.180444	3.371591	0.193628	-0.091255	-0.055553	0.999856	0.001657	0.000902	0.016857	
64567	    0	15.865839	-8.649933	-4.356037	1.985478	0.196087	3.214456	0.159973	-0.083496	-0.044556	0.999821	0.009927	0.000980	0.016071	
64568	    0	17.013677	-6.051963	-7.604173	3.086523	-0.240345	3.035783	0.171109	-0.056746	-0.076732	0.999764	0.015431	-0.001202	0.015178	
64569	    0	21.122305	-1.987783	-13.165496	2.907211	-0.573774	3.078695	0.211853	-0.014709	-0.131287	0.999771	0.014535	-0.002869	0.015392	
64570	    0	25.507139	4.519188	-17.040428	1.950374	-0.524360	3.077299	0.254764	0.050768	-0.169259	0.999830	0.009751	-0.002622	0.015386	
64571	    0	27.653853	13.037121	-17.119131	1.239075	-0.185976	3.224343	0.274536	0.135864	-0.170105	0.999850	0.006195	-0.000930	0.016121	
64572	    0	25.962424	17.913122	-14.648393	0.996649	0.101859	3.655652	0.256209	0.184563	-0.145704	0.999820	0.004983	0.000509	0.018277	
64573	    0	22.010366	17.447345	-12.392075	0.668569	0.135049	3.904980	0.216553	0.179138	-0.123474	0.999804	0.003343	0.000675	0.019524	
64574	    0	18.370603	15.041340	-9.936972	0.345442	0.041010	3.782118	0.180796	0.154022	-0.099143	0.999819	0.001727	0.000205	0.018909	
64575	    0	14.954006	12.585855	-8.046471	0.354212	0.030519	3.429583	0.147339	0.128540	-0.080261	0.999851	0.001771	0.000153	0.017147	
64576	    0	12.301136	11.514351	-6.208338	0.523397	0.215348	3.037001	0.121176	0.117155	-0.061910	0.999880	0.002617	0.001077	0.015184	
64577	    0	10.558264	11.862103	-4.362031	0.846130	0.540371	2.747443	0.103821	0.120239	-0.043396	0.999892	0.004230	0.002702	0.013737	
64578	    0	9.643800	12.703737	-2.597613	1.204915	0.873406	2.532287	0.094706	0.128399	-0.025621	0.999891	0.006024	0.004367	0.012661	
64579	    0	8.847374	14.132735	-2.376899	1.445055	1.032482	2.197339	0.086792	0.142456	-0.023193	0.999900	0.007225	0.005162	0.010986	
64580	    0	7.831729	16.805873	-4.843068	1.172855	1.015877	1.733056	0.076612	0.169009	-0.047833	0.999932	0.005864	0.005079	0.008665	
64581	    0	4.017336	23.201240	-6.681145	0.049019	1.034559	1.394671	0.038208	0.232300	-0.066956	0.999962	0.000245	0.005173	0.006973	
64582	    0	-2.133906	24.460915	-4.006975	-0.317389	1.366833	1.662096	-0.023645	0.244355	-0.040301	0.999940	-0.001587	0.006834	0.008310	
64583	    0	-4.378752	18.271144	5.816428	0.813316	1.333846	2.077543	-0.045288	0.182007	0.059204	0.999915	0.004066	0.006669	0.010387	
64584	    0	-3.279754	8.744110	11.244036	1.761291	0.207716	1.747558	-0.033437	0.086156	0.113237	0.999922	0.008806	0.001039	0.008738	
64585	    0	-1.826435	4.267134	7.933985	1.475738	-0.662241	0.995651	-0.018738	0.041992	0.079590	0.999954	0.007379	-0.003311	0.004978	
64586	    0	2.080000	-0.016742	5.745661	1.350228	-0.994694	-0.168802	0.020514	-0.000573	0.057556	0.999964	0.006751	-0.004973	-0.000844	
64587	    0	1.458237	-0.632733	-0.518202	-0.118257	-1.540207	-1.074235	0.014587	-0.006409	-0.005066	0.999955	-0.000591	-0.007701	-0.005371	
64588	    0	-0.542015	-5.530422	2.525014	-0.458160	-2.531324	-1.077115	-0.006038	-0.055215	0.025303	0.999903	-0.002291	-0.012656	-0.005385	
64589	    0	0.856787	-15.770861	-2.012693	-0.437945	-3.025749	-0.563835	0.008423	-0.157776	-0.019653	0.999879	-0.002190	-0.015128	-0.002819	
64590	    0	4.116741	-20.506021	-4.944553	0.019264	-1.488699	-0.021935	0.041512	-0.205060	-0.049157	0.999971	0.000096	-0.007443	-0.000110	
64591	    0	4.493634	-18.998639	-2.490859	0.525666	0.466348	0.175476	0.045044	-0.189880	-0.025513	0.999993	0.002628	0.002332	0.000877	
64592	    0	3.856927	-12.782782	1.135381	1.166739	1.202789	0.342755	0.038853	-0.127824	0.010375	0.999963	0.005834	0.006014	0.001714	
64593	    0	3.687127	-10.813394	3.044183	0.919348	0.861555	-0.024414	0.036987	-0.108276	0.029785	0.999980	0.004597	0.004308	-0.000122	
64594	    0	3.565722	-2.929558	1.855297	-0.078392	0.921063	-0.438120	0.035678	-0.029366	0.018400	0.999987	-0.000392	0.004605	-0.002191	
64595	    0	3.474079	3.582309	-0.407552	1.242280	1.709018	-0.472269	0.034790	0.035767	-0.004150	0.999941	0.006211	0.008545	-0.002361	
64596	    0	-0.068092	7.968343	4.624045	1.780774	2.274988	-1.236585	0.000341	0.079268	0.046947	0.999876	0.008904	0.011374	-0.006183	
64597	    0	2.272274	13.141218	5.094888	-1.284636	1.496167	-1.722004	0.024231	0.131531	0.049927	0.999914	-0.006423	0.007481	-0.008610	
64598	    0	22.625475	0.159765	-3.365600	-2.971186	0.004769	0.065997	0.226254	0.001172	-0.033681	0.999889	-0.014855	0.000024	0.000330	
64599	    0	48.337691	-35.531274	-14.788947	-0.140956	-1.103993	1.736481	0.487244	-0.351196	-0.144958	0.999947	-0.000705	-0.005520	0.008682	
64600	    0	28.294817	-44.129831	-5.606736	0.118066	-1.236733	0.090027	0.283487	-0.441138	-0.054576	0.999980	0.000590	-0.006184	0.000450	
64601	    0	-2.913501	-0.864507	-5.574440	-0.965710	-0.997182	-1.707493	-0.028931	-0.008667	-0.055847	0.999939	-0.004828	-0.004986	-0.008537	
64602	    0	-11.082333	35.082230	-2.169569	-0.373277	-1.128224	-2.112822	-0.106982	0.351924	-0.022963	0.999926	-0.001866	-0.005641	-0.010564	
64603	    0	-5.594697	46.290841	-8.043915	-0.846869	0.229837	-0.980384	-0.053772	0.462830	-0.082336	0.999978	-0.004234	0.001149	-0.004902	
64604	    0	14.315665	27.923645	-5.413638	-1.842918	0.939388	-0.768105	0.143962	0.278166	-0.057378	0.999939	-0.009214	0.004697	-0.003840	
64605	    0	30.052333	10.408839	-1.862307	-2.526208	-0.534654	-2.085209	0.301636	0.100708	-0.019104	0.999862	-0.012630	-0.002673	-0.010426	
64606	    0	26.324400	-0.553964	-5.928798	-1.890479	-1.178235	-2.906199	0.263464	-0.009917	-0.057656	0.999832	-0.009452	-0.005891	-0.014530	
64607	    0	15.418944	-4.146101	-2.540139	-0.441757	-0.366796	-2.840523	0.153625	-0.043701	-0.025024	0.999894	-0.002209	-0.001834	-0.014202	
64608	    0	6.983362	-3.859877	-2.282154	0.614944	-0.315674	-2.291925	0.069422	-0.039326	-0.022832	0.999928	0.003075	-0.001578	-0.011459	
64609	    0	11.140423	-1.653503	-4.543924	1.276616	-0.357063	-1.845590	0.111328	-0.017273	-0.045349	0.999935	0.006383	-0.001785	-0.009228	
64610	    0	19.224416	4.815519	-7.283745	2.279362	-0.603506	-1.699698	0.192866	0.047339	-0.071713	0.999894	0.011396	-0.003017	-0.008498	
64611	    0	21.468633	5.570899	-10.571707	2.692556	-1.071033	-2.083698	0.215820	0.054871	-0.103821	0.999841	0.013462	-0.005355	-0.010418	
64612	    0	16.180186	1.864289	-10.672100	2.524539	-1.232227	-2.750765	0.162703	0.017746	-0.105493	0.999806	0.012622	-0.006161	-0.013753	
64613	    0	12.057775	2.130740	-9.103235	1.830593	-1.247481	-3.088565	0.121460	0.020264	-0.090088	0.999819	0.009152	-0.006237	-0.015442	
64614	    0	14.875253	2.061033	-6.264135	0.948575	-1.155343	-3.250677	0.149423	0.018479	-0.061688	0.999840	0.004743	-0.005776	-0.016253	
64615	    0	18.898598	0.194772	-2.659826	0.659981	-1.277807	-3.441056	0.189148	-0.001221	-0.025391	0.999825	0.003300	-0.006389	-0.017204	
64616	    0	17.739544	-2.540152	-0.684196	0.105864	-1.296315	-3.647841	0.176932	-0.028628	-0.005709	0.999812	0.000529	-0.006481	-0.018238	
64617	    0	15.562788	-4.851515	1.555813	-0.666662	-0.893460	-3.782136	0.154602	-0.051392	0.016418	0.999805	-0.003333	-0.004467	-0.018909	
64618	    0	15.698974	-4.873233	3.104535	-1.522930	-0.582544	-3.683530	0.155968	-0.051371	0.031885	0.999797	-0.007614	-0.002913	-0.018416	
64619	    0	15.527902	-4.696676	3.402893	-1.989690	-0.438720	-3.483055	0.154358	-0.049316	0.034851	0.999796	-0.009948	-0.002193	-0.017414	
64620	    0	13.768368	-5.232264	4.267845	-2.027257	-0.340102	-3.291146	0.136729	-0.054140	0.043454	0.999811	-0.010136	-0.001700	-0.016455	
64621	    0	11.380564	-8.042556	5.898394	-1.677023	-0.372905	-2.971795	0.112488	-0.081604	0.059875	0.999852	-0.008385	-0.001864	-0.014858	
64622	    0	8.977360	-13.347642	6.005248	-1.394894	-0.477808	-2.547547	0.087922	-0.134180	0.061198	0.999891	-0.006974	-0.002389	-0.012737	
64623	    0	6.556871	-18.066226	4.767899	-1.753101	-0.543230	-2.099677	0.063538	-0.180908	0.049438	0.999903	-0.008765	-0.002716	-0.010498	
64624	    0	5.522534	-23.351637	2.936431	-2.061712	-0.619906	-1.502462	0.053374	-0.233602	0.031940	0.999913	-0.010308	-0.003099	-0.007512	
64625	    0	4.173518	-29.921026	1.838130	-1.796754	-0.537691	-0.811782	0.040466	-0.299194	0.021179	0.999948	-0.008984	-0.002688	-0.004059	
64626	    0	2.012799	-31.969185	1.684399	-0.988584	-0.279809	-0.305177	0.019615	-0.319633	0.018452	0.999985	-0.004943	-0.001399	-0.001526	
64627	    0	1.945908	-27.096846	3.085894	-0.164032	0.145912	0.081635	0.019592	-0.270935	0.031067	0.999999	-0.000820	0.000730	0.000408	
64628	    0	3.542481	-19.045058	5.561135	0.157929	0.661279	0.366784	0.035957	-0.190429	0.055343	0.999992	0.000790	0.003306	0.001834	
64629	    0	2.550823	-10.748538	6.441934	0.312234	0.802615	0.323487	0.025940	-0.107544	0.064148	0.999989	0.001561	0.004013	0.001617	
64630	    0	2.136233	-7.015406	5.717520	0.346376	0.724795	0.419046	0.021716	-0.070208	0.056975	0.999990	0.001732	0.003624	0.002095	
64631	    0	4.679971	-6.214718	5.417528	-0.046349	0.737003	0.781254	0.047241	-0.061951	0.054016	0.999985	-0.000232	0.003685	0.003906	
64632	    0	7.004783	-4.140047	5.203817	-0.659376	0.794227	1.046762	0.070469	-0.040861	0.051894	0.999972	-0.003297	0.003971	0.005234	
64633	    0	7.714510	-1.332921	2.738920	-1.109330	0.776874	1.249713	0.077332	-0.012695	0.027161	0.999957	-0.005547	0.003884	0.006248	
64634	    0	8.032134	-0.459491	-1.232613	-1.300071	0.601207	1.444079	0.080315	-0.004096	-0.012540	0.999948	-0.006500	0.003006	0.007220	
64635	    0	8.986318	-0.126711	-4.616276	-1.577027	0.381668	1.459532	0.089783	-0.000977	-0.046326	0.999940	-0.007885	0.001908	0.007298	
64636	    0	14.285035	0.818684	-7.199712	-1.179713	0.279622	1.497673	0.142685	0.008830	-0.072248	0.999953	-0.005898	0.001398	0.007488	
64637	    0	24.153718	-0.049292	-7.244171	-0.542458	0.206187	1.784542	0.241455	0.001465	-0.072693	0.999955	-0.002712	0.001031	0.008923	
64638	    0	31.897224	-3.026350	-6.757562	-0.157360	-0.016213	2.230881	0.319289	-0.026756	-0.067528	0.999937	-0.000787	-0.000081	0.011154	
64639	    0	30.654258	-5.525435	-5.982567	0.406088	0.042726	2.755063	0.307251	-0.050903	-0.059998	0.999903	0.002030	0.000214	0.013775	
64640	    0	22.997857	-5.417763	-4.167352	1.570785	0.363178	3.174186	0.230720	-0.050188	-0.042497	0.999841	0.007854	0.001816	0.015870	
64641	    0	16.526845	-3.799176	-3.268460	2.714935	0.479925	3.247316	0.165771	-0.034851	-0.033569	0.999773	0.013574	0.002399	0.016235	
64642	    0	16.165265	-0.560004	-5.024740	3.277107	0.198381	3.145680	0.161655	-0.002232	-0.050463	0.999742	0.016384	0.000992	0.015727	
64643	    0	21.610837	4.938820	-8.776763	2.935260	-0.019647	3.219096	0.215271	0.054138	-0.086975	0.999763	0.014675	-0.000098	0.016094	
64644	    0	27.926045	12.143193	-12.588827	2.074185	-0.003243	3.346087	0.277164	0.127378	-0.124583	0.999805	0.010370	-0.000016	0.016729	
64645	    0	26.619742	17.282256	-13.257573	1.059020	0.332088	3.514298	0.262878	0.178162	-0.132080	0.999829	0.005295	0.001660	0.017570	
64646	    0	20.566276	18.519141	-9.983293	0.201618	0.610196	3.643053	0.201938	0.188993	-0.100264	0.999828	0.001008	0.003051	0.018214	
64647	    0	16.759928	17.194132	-7.085996	-0.504142	0.431849	3.680634	0.164246	0.174805	-0.071655	0.999825	-0.002521	0.002159	0.018402	
64648	    0	14.371392	14.001435	-5.885140	-1.034600	0.176821	3.394496	0.141261	0.142118	-0.059709	0.999842	-0.005173	0.000884	0.016972	
64649	    0	12.265818	11.726413	-4.596529	-1.078651	0.145728	3.000005	0.120850	0.118835	-0.046692	0.999872	-0.005393	0.000729	0.014999	
64650	    0	10.619642	11.122287	-3.411883	-0.808742	0.349437	2.631081	0.104662	0.112467	-0.034756	0.999904	-0.004044	0.001747	0.013155	
64651	    0	9.625059	11.828089	-2.803247	-0.449954	0.682846	2.194264	0.094849	0.119263	-0.028625	0.999931	-0.002250	0.003414	0.010971	
64652	    0	8.397755	13.323698	-3.056218	-0.330359	0.977152	1.773484	0.082641	0.133923	-0.031189	0.999947	-0.001652	0.004886	0.008867	
64653	    0	6.136404	16.076211	-3.409059	-0.845159	0.871290	1.509881	0.059998	0.161072	-0.035034	0.999952	-0.004226	0.004356	0.007549	
64654	    0	1.850950	17.662355	-3.131790	-1.264978	0.650418	1.598770	0.016994	0.176560	-0.032492	0.999942	-0.006325	0.003252	0.007994	
64655	    0	-1.888985	14.475939	0.778930	-0.603496	0.327497	1.916537	-0.020264	0.144592	0.007385	0.999948	-0.003017	0.001637	0.009583	
64656	    0	-2.117323	7.648005	6.410330	0.753797	-0.379760	1.870951	-0.022008	0.076035	0.064349	0.999947	0.003769	-0.001899	0.009355	
64657	    0	-0.282563	3.281647	3.246837	0.496681	-1.159494	1.348133	-0.003235	0.032715	0.032532	0.999957	0.002483	-0.005797	0.006741	
64658	    0	2.644173	2.704950	-0.260298	-0.396924	-1.529138	0.424199	0.026403	0.027101	-0.002455	0.999966	-0.001985	-0.007646	0.002121	
64659	    0	3.608428	0.508489	-5.168569	-0.777451	-2.053685	-0.346382	0.036621	0.004822	-0.051331	0.999938	-0.003887	-0.010268	-0.001732	
64660	    0	2.347279	-3.888819	-9.970508	-1.815298	-2.496440	-0.551246	0.024603	-0.039856	-0.099044	0.999877	-0.009076	-0.012482	-0.002756	
64661	    0	3.030126	-9.585917	-4.360382	-0.998706	-1.823268	-0.367744	0.030518	-0.096130	-0.042847	0.999944	-0.004993	-0.009116	-0.001839	
64662	    0	6.556676	-17.489001	3.934670	1.751350	-0.082017	-0.117876	0.065448	-0.175264	0.037840	0.999961	0.008757	-0.000410	-0.000589	
64663	    0	7.002668	-22.065363	2.677069	2.411153	1.216162	0.012207	0.070190	-0.220947	0.023682	0.999908	0.012055	0.006081	0.000061	
64664	    0	4.786490	-21.678379	1.980063	3.066400	1.415511	-0.186166	0.047786	-0.217094	0.016135	0.999857	0.015331	0.007077	-0.000931	
64665	    0	2.437709	-19.400464	5.804686	4.363625	1.196583	-0.363190	0.024353	-0.195251	0.053650	0.999742	0.021816	0.005982	-0.001816	
64666	    0	0.523475	-11.189734	5.895109	3.664810	0.875717	-0.517113	0.005196	-0.112966	0.056865	0.999819	0.018323	0.004378	-0.002585	
64667	    0	-0.247610	0.136959	2.335280	2.389785	0.784324	-0.686665	-0.002380	0.001099	0.023376	0.999914	0.011949	0.003922	-0.003433	
64668	    0	1.377039	9.514005	-2.644371	2.900622	0.934257	-0.595880	0.013935	0.095469	-0.025126	0.999879	0.014503	0.004671	-0.002979	
64669	    0	-0.751966	11.122680	-1.973731	4.114295	1.334490	-0.896527	-0.007141	0.111633	-0.017395	0.999756	0.020570	0.006672	-0.004482	
64670	    0	-3.967813	23.119390	6.341615	-0.252347	1.171326	-1.804006	-0.037219	0.231617	0.063347	0.999941	-0.001262	0.005857	-0.009020	
64671	    0	7.347300	20.378790	-6.223278	-2.870097	0.109105	-0.949896	0.074402	0.202515	-0.065186	0.999886	-0.014350	0.000546	-0.004749	
64672	    0	28.909132	-10.716827	-22.637148	-3.166573	-1.131886	1.613901	0.291231	-0.108373	-0.223018	0.999825	-0.015832	-0.005659	0.008069	
64673	    0	47.446258	-47.019271	-16.188688	0.709732	-1.039897	0.903329	0.477417	-0.467468	-0.161072	0.999969	0.003549	-0.005199	0.004517	
64674	    0	17.428772	-32.752997	-8.081088	-0.803575	-1.166738	-0.818071	0.173408	-0.328559	-0.078479	0.999966	-0.004018	-0.005834	-0.004090	
64675	    0	-4.631357	10.452594	6.432000	-2.325334	-0.735501	-1.695314	-0.045654	0.105652	0.062927	0.999889	-0.011626	-0.003677	-0.008476	
64676	    0	-6.139855	42.935063	0.255544	0.613793	-0.817310	-1.462384	-0.058270	0.429774	0.003632	0.999960	0.003069	-0.004086	-0.007312	
64677	    0	4.502045	39.445241	-7.649343	-0.839811	-0.100709	-0.890356	0.046814	0.393921	-0.078125	0.999981	-0.004199	-0.000504	-0.004452	
64678	    0	24.743480	22.259983	-2.451355	-2.745363	-0.213060	-1.609680	0.249242	0.220237	-0.027283	0.999872	-0.013726	-0.001065	-0.008048	
64679	    0	30.506947	8.970900	-5.829654	-3.954524	-0.798115	-2.823924	0.306519	0.084229	-0.058777	0.999697	-0.019771	-0.003990	-0.014118	
64680	    0	21.573233	3.734881	-2.921729	-3.276538	0.116358	-3.187266	0.216269	0.033419	-0.029912	0.999738	-0.016381	0.000582	-0.015935	
64681	    0	8.780508	-0.121618	-1.624191	-1.935650	0.168044	-2.293482	0.087769	-0.002380	-0.016296	0.999887	-0.009678	0.000840	-0.011467	
64682	    0	7.022822	-6.044546	-4.284963	-0.667388	0.024224	-1.401343	0.069797	-0.061078	-0.042655	0.999969	-0.003337	0.000121	-0.007007	
64683	    0	15.118162	-0.270871	-7.686574	1.318571	-0.379187	-1.364157	0.151306	-0.003235	-0.076599	0.999952	0.006593	-0.001896	-0.006821	
64684	    0	23.174823	0.426488	-10.417263	3.205681	-0.875334	-1.802170	0.232237	0.003832	-0.103093	0.999821	0.016027	-0.004376	-0.009010	
64685	    0	20.484428	-2.127410	-11.517591	3.723484	-1.404509	-2.460704	0.205383	-0.021667	-0.114136	0.999726	0.018616	-0.007022	-0.012302	
64686	    0	14.082141	0.856829	-10.104146	3.187849	-1.682434	-2.950744	0.141786	0.008078	-0.099720	0.999728	0.015938	-0.008411	-0.014752	
64687	    0	12.798675	5.565664	-7.483423	2.108923	-1.479260	-3.372445	0.129456	0.054260	-0.073303	0.999774	0.010544	-0.007396	-0.016861	
64688	    0	14.920025	4.126588	-2.977398	1.313297	-1.411151	-3.514525	0.150101	0.038823	-0.028457	0.999799	0.006566	-0.007055	-0.017571	
64689	    0	16.810615	0.069317	-2.207200	-0.000763	-1.206849	-3.509723	0.168213	-0.002258	-0.021057	0.999827	-0.000004	-0.006034	-0.017548	
64690	    0	18.244061	-2.902573	0.082895	-1.571948	-0.505671	-3.579562	0.181879	-0.032274	0.001534	0.999805	-0.007859	-0.002528	-0.017897	
64691	    0	17.866459	-5.359569	3.417748	-2.384373	-0.288223	-3.613565	0.177612	-0.056396	0.035095	0.999764	-0.011921	-0.001441	-0.018066	
64692	    0	14.424087	-7.332225	3.400745	-2.421754	-0.427088	-3.498725	0.142859	-0.075408	0.035218	0.999771	-0.012108	-0.002135	-0.017492	
64693	    0	11.496131	-7.068889	4.000129	-2.104322	-0.349258	-3.298399	0.113708	-0.072144	0.040955	0.999806	-0.010521	-0.001746	-0.016491	
64694	    0	10.517003	-6.728682	5.311905	-1.557998	-0.366610	-3.009179	0.104048	-0.068440	0.053841	0.999854	-0.007790	-0.001833	-0.015045	
64695	    0	9.992067	-9.514098	5.069513	-1.090277	-0.475136	-2.562036	0.098572	-0.096130	0.051453	0.999900	-0.005451	-0.002376	-0.012810	
64696	    0	9.208859	-13.404386	4.662218	-1.265561	-0.543991	-2.175010	0.090497	-0.134734	0.047721	0.999917	-0.006328	-0.002720	-0.010875	
64697	    0	8.613077	-17.264630	3.523522	-1.856860	-0.631733	-1.854762	0.084412	-0.173096	0.037109	0.999908	-0.009284	-0.003159	-0.009274	
64698	    0	7.277809	-23.221075	1.990748	-2.140107	-0.697347	-1.355019	0.071128	-0.232464	0.022644	0.999913	-0.010700	-0.003487	-0.006775	
64699	    0	4.176174	-29.635900	1.354455	-1.776154	-0.584994	-0.802626	0.040527	-0.296387	0.016296	0.999948	-0.008881	-0.002925	-0.004013	
64700	    0	1.761681	-31.118145	2.286624	-1.015287	-0.341799	-0.332071	0.017059	-0.311089	0.024475	0.999984	-0.005076	-0.001709	-0.001660	
64701	    0	1.516015	-25.888987	3.806332	-0.162506	0.060463	0.114441	0.015320	-0.258850	0.038269	0.999999	-0.000813	0.000302	0.000572	
64702	    0	2.352654	-17.655676	6.067016	0.237275	0.540162	0.410844	0.024053	-0.176579	0.060396	0.999993	0.001186	0.002701	0.002054	
64703	    0	1.338157	-9.250614	7.135546	0.293733	0.769236	0.299073	0.013794	-0.092590	0.071167	0.999990	0.001469	0.003846	0.001495	
64704	    0	1.915047	-4.887843	6.509749	0.111199	0.798800	0.350953	0.019496	-0.048881	0.064993	0.999990	0.000556	0.003994	0.001755	
64705	    0	4.964019	-2.702741	6.173774	-0.461390	0.862889	0.608829	0.049988	-0.026733	0.061584	0.999983	-0.002307	0.004314	0.003044	
64706	    0	7.502733	-0.840345	4.971773	-1.152053	0.847255	0.934612	0.075274	-0.007767	0.049445	0.999963	-0.005760	0.004236	0.004673	
64707	    0	8.222603	0.662959	2.399905	-1.687656	0.774590	1.201654	0.082275	0.007324	0.023621	0.999938	-0.008438	0.003873	0.006008	
64708	    0	8.004141	0.925455	-0.146803	-2.220791	0.648518	1.306191	0.079973	0.009758	-0.001834	0.999911	-0.011104	0.003242	0.006531	
64709	    0	9.519247	2.188121	-3.555408	-2.336002	0.419630	1.330607	0.094971	0.022095	-0.036011	0.999907	-0.011680	0.002098	0.006653	
64710	    0	15.191227	3.027678	-5.845729	-1.931812	0.245673	1.534883	0.151605	0.030873	-0.058940	0.999923	-0.009659	0.001228	0.007674	
64711	    0	24.308880	0.841151	-5.562179	-1.232939	0.035287	1.999710	0.242981	0.010498	-0.055725	0.999930	-0.006165	0.000176	0.009998	
64712	    0	30.519166	-5.257015	-5.124547	-0.535216	-0.192838	2.451771	0.305856	-0.048960	-0.050817	0.999920	-0.002676	-0.000964	0.012259	
64713	    0	28.306280	-9.576580	-5.506027	0.388350	-0.131802	2.848914	0.284424	-0.091614	-0.055054	0.999896	0.001942	-0.000659	0.014244	
64714	    0	19.295868	-8.507252	-4.786313	1.445461	0.140006	3.136028	0.194223	-0.081684	-0.048597	0.999850	0.007227	0.000700	0.015679	
64715	    0	13.985635	-5.035132	-3.703120	2.568225	0.178730	3.049671	0.140564	-0.047729	-0.037781	0.999801	0.012840	0.000894	0.015247	
64716	    0	15.571265	-0.826591	-6.091785	2.946684	-0.230233	2.912158	0.155872	-0.005100	-0.060829	0.999784	0.014732	-0.001151	0.014560	
64717	    0	22.076770	4.446518	-10.538189	2.443083	-0.613250	2.909268	0.220398	0.048950	-0.104126	0.999814	0.012215	-0.003066	0.014545	
64718	    0	28.746876	11.219141	-14.910561	1.496961	-0.666460	3.019672	0.286213	0.117626	-0.147284	0.999852	0.007484	-0.003332	0.015098	
64719	    0	29.047578	17.360662	-15.710009	0.701175	-0.243199	3.325814	0.287720	0.178955	-0.156128	0.999854	0.003506	-0.001216	0.016628	
64720	    0	22.605156	18.392176	-11.932265	0.082784	0.225271	3.689976	0.222472	0.188098	-0.119497	0.999828	0.000414	0.001126	0.018449	
64721	    0	17.984427	16.586597	-7.566260	-0.348685	0.312252	3.822563	0.176514	0.169128	-0.076233	0.999814	-0.001743	0.001561	0.019112	
64722	    0	15.426344	13.200858	-5.118196	-0.449969	0.162706	3.652398	0.151778	0.134680	-0.051607	0.999830	-0.002250	0.000813	0.018261	
64723	    0	13.172695	10.166110	-4.099020	-0.215922	0.148971	3.282314	0.130005	0.103760	-0.041199	0.999864	-0.001080	0.000745	0.016411	
64724	    0	11.262657	8.350508	-3.493724	0.267420	0.293933	2.862267	0.111364	0.085152	-0.034988	0.999895	0.001337	0.001470	0.014311	
64725	    0	9.943564	8.538204	-2.515360	0.784324	0.547234	2.410193	0.098328	0.086670	-0.025085	0.999915	0.003922	0.002736	0.012051	
64726	    0	8.852832	10.088742	-1.773672	1.224547	0.709169	1.950883	0.087476	0.101851	-0.017426	0.999927	0.006123	0.003546	0.009754	
64727	    0	7.799469	11.736327	-2.557211	1.252960	0.650799	1.503780	0.077026	0.118103	-0.025085	0.999947	0.006265	0.003254	0.007519	
64728	    0	6.467498	13.503567	-3.715639	0.536160	0.467685	1.153955	0.063807	0.135505	-0.036943	0.999976	0.002681	0.002338	0.005770	
64729	    0	4.205356	14.655443	-2.749171	0.021553	0.245668	1.119238	0.041199	0.146790	-0.027527	0.999983	0.000108	0.001228	0.005596	
64730	    0	2.281922	14.631892	-3.583069	-0.883493	0.017929	1.293577	0.021870	0.146302	-0.036479	0.999969	-0.004417	0.000090	0.006468	
64731	    0	1.288812	11.688937	3.200946	-0.145532	0.048066	1.490798	0.012024	0.117004	0.031921	0.999971	-0.000728	0.000240	0.007454	
64732	    0	-0.240195	6.719571	3.349021	0.179293	-0.550277	1.637670	-0.003044	0.067142	0.033543	0.999962	0.000896	-0.002751	0.008188	
64733	    0	-0.137405	1.874765	0.263944	-0.080682	-0.998701	1.480122	-0.001526	0.018738	0.002625	0.999960	-0.000403	-0.004993	0.007401	
64734	    0	1.366161	-4.080730	-1.965483	-0.216677	-1.244746	0.631528	0.013912	-0.040785	-0.019525	0.999974	-0.001083	-0.006224	0.003158	
64735	    0	2.058576	-5.259347	-1.368641	-0.839054	-1.551076	-0.228122	0.020630	-0.052673	-0.013306	0.999960	-0.004195	-0.007755	-0.001141	
64736	    0	2.408876	-12.269687	4.166919	0.867285	-1.683833	-0.366407	0.023515	-0.122920	0.041336	0.999953	0.004336	-0.008419	-0.001832	
64737	    0	4.710763	-18.589912	3.439844	2.170804	-0.910208	0.174717	0.047119	-0.186218	0.032593	0.999929	0.010854	-0.004551	0.000874	
64738	    0	5.234653	-16.725570	1.034391	2.483246	0.211149	0.685329	0.052929	-0.167186	0.008212	0.999916	0.012416	0.001056	0.003427	
64739	    0	2.912189	-6.186387	-2.158612	3.762506	1.411536	0.688219	0.029175	-0.061340	-0.022949	0.999792	0.018811	0.007057	0.003441	
64740	    0	1.160707	-2.214731	2.086499	3.854863	1.974642	0.186172	0.011830	-0.022532	0.020317	0.999764	0.019273	0.009872	0.000931	
64741	    0	1.175474	-1.590205	4.058887	2.392673	1.858785	-0.555442	0.012085	-0.016418	0.040283	0.999881	0.011963	0.009294	-0.002777	
64742	    0	0.848978	2.096927	0.755768	1.709032	1.732303	-0.899340	0.008650	0.020865	0.007662	0.999915	0.008545	0.008661	-0.004497	
64743	    0	-0.560581	4.298762	2.309466	1.966921	1.631407	-1.058994	-0.005188	0.042786	0.023560	0.999904	0.009834	0.008157	-0.005295	
64744	    0	-0.950262	7.840701	9.128395	-0.360875	0.961126	-1.462956	-0.008490	0.078636	0.091185	0.999960	-0.001804	0.004806	-0.007315	
64745	    0	9.200017	7.534821	-3.536651	-2.439181	-0.053979	-0.572220	0.092224	0.074646	-0.036255	0.999921	-0.012196	-0.000270	-0.002861	
64746	    0	31.513950	-10.474432	-13.834509	-2.586644	-0.301944	1.190226	0.315969	-0.104639	-0.136515	0.999897	-0.012933	-0.001510	0.005951	
64747	    0	40.399755	-33.847641	-15.035349	-0.325588	-1.275648	0.919352	0.406494	-0.336853	-0.147217	0.999968	-0.001628	-0.006378	0.004597	
64748	    0	15.525408	-22.075217	-8.839708	-1.168458	-1.299876	-0.548561	0.155211	-0.221685	-0.086095	0.999958	-0.005842	-0.006499	-0.002743	
64749	    0	-3.237272	11.519492	2.334169	-1.648756	-0.703258	-1.764725	-0.031433	0.115662	0.022278	0.999921	-0.008244	-0.003516	-0.008823	
64750	    0	-3.087000	37.204884	1.085740	-0.534637	-0.473601	-1.711298	-0.027709	0.372322	0.009794	0.999956	-0.002673	-0.002368	-0.008556	
64751	    0	7.248055	38.665430	-7.082233	-1.770814	0.274091	-1.047535	0.074402	0.385620	-0.074341	0.999946	-0.008854	0.001370	-0.005238	
64752	    0	22.450906	19.117804	-2.182349	-2.698046	0.041582	-1.326611	0.225764	0.189365	-0.024433	0.999887	-0.013490	0.000208	-0.006633	
64753	    0	24.012553	4.773756	-4.369891	-2.763516	-0.724641	-2.195859	0.240784	0.044495	-0.043457	0.999837	-0.013817	-0.003623	-0.010979	
64754	    0	18.692236	2.659703	-4.353643	-1.639625	-0.382630	-2.669064	0.187335	0.023743	-0.043381	0.999875	-0.008198	-0.001913	-0.013345	
64755	    0	10.240394	1.203018	-5.072203	-0.127986	-0.017548	-2.330833	0.102539	0.010803	-0.050720	0.999931	-0.000640	-0.000088	-0.011654	
64756	    0	10.142917	-1.729530	-5.188507	0.254253	0.029755	-1.691839	0.101271	-0.018086	-0.051923	0.999963	0.001271	0.000149	-0.008459	
64757	    0	16.943501	2.467407	-7.018080	1.166551	-0.398069	-1.362629	0.169739	0.023926	-0.069702	0.999957	0.005833	-0.001990	-0.006813	
64758	    0	20.505566	3.048989	-10.825067	2.190665	-0.897820	-1.611574	0.205781	0.030010	-0.106997	0.999897	0.010953	-0.004489	-0.008058	
64759	    0	18.200942	0.657698	-12.963978	2.546255	-1.117003	-2.250028	0.182800	0.006165	-0.128540	0.999840	0.012731	-0.005585	-0.011250	
64760	    0	14.246822	0.330261	-10.917932	2.151043	-1.200937	-2.824567	0.143159	0.002452	-0.108292	0.999824	0.010755	-0.006004	-0.014122	
64761	    0	13.935396	2.091203	-8.480794	1.369746	-1.245189	-3.233524	0.140198	0.019226	-0.083801	0.999826	0.006848	-0.006226	-0.016167	
64762	    0	16.490153	2.688298	-5.066288	0.639188	-1.173656	-3.384014	0.165620	0.024244	-0.049612	0.999834	0.003196	-0.005868	-0.016919	
64763	    0	17.358640	0.368403	-3.161088	-0.051692	-0.978143	-3.529555	0.173767	0.000610	-0.030762	0.999832	-0.000258	-0.004890	-0.017647	
64764	    0	17.092151	-3.258592	-0.793316	-1.214868	-0.715302	-3.665587	0.170312	-0.035756	-0.007113	0.999806	-0.006074	-0.003576	-0.018327	
64765	    0	16.406433	-5.115379	2.124455	-2.059139	-0.521890	-3.705116	0.163025	-0.053955	0.022217	0.999771	-0.010295	-0.002609	-0.018524	
64766	    0	14.450446	-6.106654	4.245771	-2.141537	-0.528946	-3.560899	0.143278	-0.063163	0.043507	0.999781	-0.010707	-0.002645	-0.017803	
64767	    0	12.389395	-6.783906	4.350556	-1.749336	-0.527986	-3.357901	0.122620	-0.069519	0.044434	0.999817	-0.008746	-0.002640	-0.016788	
64768	    0	10.933846	-7.975547	4.723644	-1.246322	-0.559071	-3.114850	0.107948	-0.081146	0.048042	0.999855	-0.006231	-0.002795	-0.015574	
64769	    0	9.721481	-9.472162	4.669911	-0.914610	-0.599694	-2.869528	0.095703	-0.095886	0.047424	0.999882	-0.004573	-0.002998	-0.014347	
64770	    0	8.221625	-10.974767	3.656585	-0.832775	-0.582904	-2.552876	0.080700	-0.110630	0.037262	0.999906	-0.004164	-0.002914	-0.012764	
64771	    0	7.189574	-13.514164	2.455884	-1.052694	-0.505842	-2.241576	0.070312	-0.135803	0.025452	0.999920	-0.005263	-0.002529	-0.011208	
64772	    0	7.276113	-19.057229	1.374920	-1.286535	-0.479518	-1.837580	0.070971	-0.191135	0.015149	0.999934	-0.006433	-0.002398	-0.009188	
64773	    0	6.622879	-26.806684	1.188316	-1.333640	-0.374419	-1.396202	0.064331	-0.268433	0.013794	0.999951	-0.006668	-0.001872	-0.006981	
64774	    0	3.821499	-30.831567	1.832843	-1.017198	-0.157358	-1.026926	0.036616	-0.308408	0.019926	0.999973	-0.005086	-0.000787	-0.005135	
64775	    0	1.460281	-27.622026	2.051245	-0.131989	0.054360	-0.545502	0.013855	-0.276245	0.020691	0.999995	-0.000660	0.000272	-0.002728	
64776	    0	2.017863	-21.259671	3.723747	0.282860	0.367737	-0.002861	0.020244	-0.212649	0.036900	0.999997	0.001414	0.001839	-0.000014	
64777	    0	3.000228	-15.174439	6.838097	0.125885	0.719645	0.355531	0.030518	-0.151733	0.068176	0.999991	0.000629	0.003598	0.001778	
64778	    0	2.161752	-8.819811	7.174244	0.067139	0.830081	0.327684	0.022059	-0.088186	0.071622	0.999990	0.000336	0.004150	0.001638	
64779	    0	2.725311	-6.186730	5.606009	0.112343	0.851444	0.509646	0.027649	-0.061829	0.055908	0.999987	0.000562	0.004257	0.002548	
64780	    0	4.469799	-5.974368	5.064713	-0.037766	0.962645	0.757604	0.045167	-0.059564	0.050442	0.999981	-0.000189	0.004813	0.003788	
64781	    0	5.267280	-3.455693	4.421395	-0.715453	1.017771	0.829323	0.053040	-0.034180	0.044067	0.999971	-0.003577	0.005089	0.004147	
64782	    0	5.990141	0.646468	0.883285	-0.906572	0.898561	0.882730	0.059911	0.006768	0.008533	0.999969	-0.004533	0.004493	0.004414	
64783	    0	8.356277	1.504246	-3.217617	-0.987063	0.672157	1.048290	0.083374	0.015320	-0.032532	0.999968	-0.004935	0.003361	0.005241	
64784	    0	13.478198	1.652909	-4.959508	-0.958072	0.497060	1.197828	0.134557	0.017097	-0.050011	0.999967	-0.004790	0.002485	0.005989	
64785	    0	22.499429	1.675548	-4.431592	-0.789652	0.313763	1.485461	0.224792	0.018250	-0.044739	0.999963	-0.003948	0.001569	0.007427	
64786	    0	30.256882	-0.287678	-4.155314	-0.899525	-0.062562	2.056928	0.302591	0.000049	-0.041454	0.999936	-0.004498	-0.000313	0.010284	
64787	    0	30.224468	-5.195241	-5.090667	-0.993188	-0.122074	2.593315	0.302917	-0.048279	-0.050476	0.999903	-0.004966	-0.000610	0.012966	
64788	    0	23.200157	-7.225433	-3.502432	-0.247584	0.156600	3.082399	0.233051	-0.068711	-0.035120	0.999880	-0.001238	0.000783	0.015411	
64789	    0	16.131161	-6.342106	-3.102406	1.213895	0.345056	3.163300	0.162231	-0.060669	-0.031677	0.999854	0.006069	0.001725	0.015816	
64790	    0	15.377116	-2.980949	-4.585969	2.469599	0.036433	2.988240	0.154180	-0.026938	-0.046232	0.999811	0.012347	0.000182	0.014940	
64791	    0	20.330388	1.902160	-9.087959	2.766045	-0.480686	3.055792	0.203186	0.023376	-0.090088	0.999784	0.013829	-0.002403	0.015278	
64792	    0	27.722984	8.271373	-14.619769	2.130073	-0.682493	3.229158	0.276324	0.088724	-0.144330	0.999806	0.010650	-0.003412	0.016145	
64793	    0	31.627159	14.863520	-17.392980	1.148481	-0.437189	3.509724	0.313965	0.155151	-0.172363	0.999826	0.005742	-0.002186	0.017548	
64794	    0	26.173365	17.091590	-14.581107	0.095564	0.132569	3.834960	0.258295	0.175961	-0.145900	0.999815	0.000478	0.000663	0.019174	
64795	    0	20.259734	16.007583	-9.290984	-0.636907	0.321982	3.972132	0.199219	0.163757	-0.093750	0.999796	-0.003184	0.001610	0.019859	
64796	    0	17.087803	13.072628	-6.384202	-0.831275	-0.001717	3.793573	0.168362	0.133669	-0.064392	0.999811	-0.004156	-0.000009	0.018967	
64797	    0	14.597903	10.123673	-5.185324	-0.618774	-0.149353	3.368543	0.144287	0.103516	-0.052063	0.999852	-0.003094	-0.000747	0.016842	
64798	    0	11.974400	9.050321	-4.427958	-0.094608	0.014496	2.932844	0.118397	0.092225	-0.044332	0.999892	-0.000473	0.000072	0.014664	
64799	    0	9.817006	9.215846	-3.734085	0.556962	0.307664	2.555158	0.096924	0.093506	-0.037231	0.999913	0.002785	0.001538	0.012775	
64800	    0	8.815197	10.077848	-3.679808	1.056507	0.418864	2.169091	0.086974	0.101919	-0.036445	0.999925	0.005282	0.002094	0.010845	
64801	    0	8.102816	11.342067	-4.882323	1.414519	0.197796	1.688419	0.080017	0.114441	-0.048096	0.999938	0.007072	0.000989	0.008442	
64802	    0	6.856365	12.730911	-7.418980	1.284999	-0.044442	1.288813	0.067756	0.128221	-0.073353	0.999958	0.006425	-0.000222	0.006444	
64803	    0	5.138038	14.985139	-8.150146	0.628857	-0.139619	1.116951	0.050598	0.150391	-0.080994	0.999979	0.003144	-0.000698	0.005585	
64804	    0	1.977686	16.801650	-6.766789	0.346950	-0.070191	1.386273	0.018635	0.168265	-0.067369	0.999974	0.001735	-0.000351	0.006931	
64805	    0	0.244565	13.591646	-1.356592	0.833335	0.136569	1.878390	0.001160	0.135986	-0.013000	0.999947	0.004167	0.000683	0.009392	
64806	    0	0.270680	5.945041	5.755020	1.677175	0.065805	1.835870	0.002183	0.058987	0.058045	0.999922	0.008386	0.000329	0.009179	
64807	    0	-0.651009	1.079336	7.216726	2.047781	-0.205808	1.332126	-0.006653	0.010010	0.072266	0.999925	0.010239	-0.001029	0.006660	
64808	    0	0.676438	-2.199451	7.893302	2.517010	-0.267990	0.738738	0.006742	-0.022961	0.078657	0.999912	0.012585	-0.001340	0.003694	
64809	    0	5.415529	-3.235504	5.088620	1.770997	-0.230411	-0.120546	0.054077	-0.032837	0.050659	0.999960	0.008855	-0.001152	-0.000603	
64810	    0	3.616841	-3.693990	9.575558	1.504150	-0.197222	-0.226595	0.036032	-0.037700	0.095510	0.999970	0.007521	-0.000986	-0.001133	
64811	    0	1.499846	-12.637331	12.855047	4.054544	-0.296613	0.509679	0.015137	-0.128906	0.125977	0.999789	0.020271	-0.001483	0.002548	
64812	    0	1.999252	-17.274800	-0.256896	3.778320	0.034907	1.104045	0.020945	-0.172544	-0.005834	0.999805	0.018890	0.000175	0.005520	
64813	    0	2.307151	-10.334391	-6.049266	0.675969	0.617413	0.955207	0.023376	-0.103027	-0.060913	0.999978	0.003380	0.003087	0.004776	
64814	    0	0.920540	-2.371563	-3.762601	-1.820597	0.719274	0.740446	0.009159	-0.024023	-0.037441	0.999945	-0.009103	0.003596	0.003702	
64815	    0	0.244815	0.851315	0.236924	-2.399317	0.700397	0.346384	0.002441	0.008545	0.002258	0.999920	-0.011996	0.003502	0.001732	
64816	    0	0.809767	2.786773	-0.964234	-2.543714	0.702115	0.155072	0.008041	0.027748	-0.010024	0.999912	-0.012718	0.003510	0.000775	
64817	    0	2.637264	0.821624	-4.035580	-0.711068	1.557369	-0.119020	0.026062	0.008057	-0.040588	0.999963	-0.003555	0.007787	-0.000595	
64818	    0	-1.527650	6.825979	7.184968	-0.726149	2.100244	-1.481482	-0.014015	0.068627	0.071753	0.999910	-0.003631	0.010501	-0.007407	
64819	    0	-3.455133	16.894011	8.784443	-3.245574	0.735524	-2.288974	-0.032288	0.170715	0.085205	0.999796	-0.016227	0.003677	-0.011444	
64820	    0	4.349342	6.288371	-1.311738	-2.709508	0.028611	-1.791079	0.044051	0.062305	-0.013970	0.999867	-0.013547	0.000143	-0.008955	
64821	    0	33.754458	-23.448918	-0.487948	-0.586513	0.045777	0.977331	0.338684	-0.232849	-0.004272	0.999983	-0.002933	0.000229	0.004887	
64822	    0	56.433217	-63.504370	-10.065556	3.288345	-1.756620	2.362634	0.572683	-0.626597	-0.105999	0.999756	0.016440	-0.008782	0.011812	
64823	    0	18.276071	-37.076076	-13.556188	0.807966	-1.447891	-1.034562	0.181824	-0.371155	-0.135742	0.999951	0.004040	-0.007239	-0.005173	
64824	    0	-5.802273	23.817179	4.599980	0.684377	-0.815416	-2.479247	-0.055255	0.238709	0.046587	0.999908	0.003422	-0.004077	-0.012396	
64825	    0	-9.761981	50.738374	-8.331873	2.277462	-1.260997	-1.564086	-0.093140	0.509033	-0.078125	0.999885	0.011387	-0.006305	-0.007820	
64826	    0	-4.102679	44.004977	-8.550123	-0.296784	0.457383	-0.153733	-0.040885	0.439954	-0.086061	0.999995	-0.001484	0.002287	-0.000769	
64827	    0	18.508509	19.177657	-2.404437	-2.324736	0.438129	-0.733967	0.185730	0.190796	-0.026672	0.999923	-0.011623	0.002191	-0.003670	
64828	    0	29.070802	10.770591	-5.144680	-4.289322	-1.097415	-2.456737	0.292277	0.103009	-0.052089	0.999680	-0.021444	-0.005486	-0.012282	
64829	    0	24.531399	3.413789	-8.992460	-4.185018	-1.129281	-3.010145	0.246277	0.028564	-0.089172	0.999651	-0.020923	-0.005646	-0.015049	
64830	    0	14.022462	-1.413603	-4.433368	-2.192409	-0.116354	-2.526020	0.140053	-0.016390	-0.044081	0.999860	-0.010962	-0.000582	-0.012630	
64831	    0	7.596770	-4.923935	-5.610075	-1.029034	0.008392	-1.863133	0.075500	-0.050232	-0.055847	0.999943	-0.005145	0.000042	-0.009315	
64832	    0	12.701966	-7.162264	-5.725843	0.245860	-0.024033	-1.610202	0.126445	-0.072572	-0.057332	0.999967	0.001229	-0.000120	-0.008051	
64833	    0	22.440905	-0.945795	-8.179873	1.922093	-0.424970	-1.842555	0.224487	-0.010742	-0.081421	0.999908	0.009610	-0.002125	-0.009212	
64834	    0	23.404163	1.285707	-12.564451	2.831830	-1.193695	-2.414666	0.234932	0.011788	-0.124072	0.999808	0.014158	-0.005968	-0.012073	
64835	    0	15.786928	1.364529	-12.466086	2.864316	-1.489192	-3.124500	0.158997	0.012939	-0.123291	0.999747	0.014320	-0.007445	-0.015621	
64836	    0	10.671228	3.016699	-8.905421	2.394870	-1.593910	-3.339466	0.107911	0.029428	-0.087842	0.999757	0.011973	-0.007969	-0.016696	
64837	    0	13.388170	2.255469	-5.816480	1.916837	-1.599240	-3.408304	0.134705	0.020813	-0.056885	0.999777	0.009583	-0.007996	-0.017040	
64838	    0	17.597422	-0.145850	-4.738047	1.326846	-1.561466	-3.575769	0.176277	-0.004300	-0.046027	0.999787	0.006634	-0.007807	-0.017878	
64839	    0	16.917749	-2.441183	-4.054145	-0.050166	-1.020114	-3.747031	0.168884	-0.027588	-0.039673	0.999811	-0.000251	-0.005100	-0.018734	
64840	    0	16.235490	-3.624213	0.810415	-1.351262	-0.358035	-3.886881	0.161595	-0.039330	0.008653	0.999786	-0.006756	-0.001790	-0.019433	
64841	    0	16.704923	-4.004138	5.193124	-2.175127	-0.418888	-3.836373	0.166138	-0.042664	0.052734	0.999754	-0.010875	-0.002094	-0.019180	
64842	    0	15.907960	-4.654141	5.008061	-2.383423	-0.541921	-3.638559	0.158068	-0.048819	0.051083	0.999760	-0.011916	-0.002709	-0.018191	
64843	    0	13.911938	-5.324496	5.361928	-2.348500	-0.443873	-3.445687	0.138062	-0.054993	0.054565	0.999780	-0.011742	-0.002219	-0.017227	
64844	    0	11.792930	-7.832773	5.112412	-1.786712	-0.544769	-3.114490	0.116554	-0.079687	0.052151	0.999835	-0.008933	-0.002724	-0.015572	
64845	    0	10.088710	-13.125952	5.092352	-1.197095	-0.579664	-2.635289	0.098999	-0.132263	0.052002	0.999890	-0.005985	-0.002898	-0.013176	
64846	    0	8.264206	-18.843104	4.572959	-1.311340	-0.580042	-2.213542	0.080417	-0.189023	0.047203	0.999912	-0.006557	-0.002900	-0.011067	
64847	    0	5.718045	-24.880785	3.903733	-1.642651	-0.639932	-1.751754	0.054871	-0.248962	0.041260	0.999923	-0.008213	-0.003200	-0.008759	
64848	    0	3.468812	-30.305504	3.263879	-1.369686	-0.555809	-1.083771	0.032951	-0.303003	0.034807	0.999957	-0.006848	-0.002779	-0.005419	
64849	    0	1.934213	-31.427632	3.424852	-0.640680	-0.246430	-0.473787	0.018555	-0.314209	0.035278	0.999990	-0.003203	-0.001232	-0.002369	
64850	    0	1.947921	-25.492066	4.689860	-0.019836	0.207901	-0.011635	0.019513	-0.254917	0.046904	0.999999	-0.000099	0.001040	-0.000058	
64851	    0	2.550037	-16.654493	6.174439	0.392343	0.598909	0.306702	0.025940	-0.166626	0.061340	0.999992	0.001962	0.002995	0.001534	
64852	    0	1.629412	-8.754059	6.151935	0.643733	0.747303	0.400927	0.016699	-0.087705	0.061175	0.999986	0.003219	0.003736	0.002005	
64853	    0	2.035927	-5.117874	6.356712	0.269509	0.801090	0.540926	0.020752	-0.051208	0.063416	0.999987	0.001348	0.004005	0.002705	
64854	    0	5.083910	-3.095092	6.445667	-0.399592	0.944335	0.774580	0.051262	-0.030624	0.064277	0.999979	-0.001998	0.004722	0.003873	
64855	    0	8.000337	-1.171022	5.101586	-1.024641	1.033224	1.004041	0.080322	-0.011047	0.050659	0.999961	-0.005123	0.005166	0.005020	
64856	    0	8.913073	0.214657	2.686022	-1.445034	0.968760	1.180098	0.089244	0.002865	0.026409	0.999945	-0.007225	0.004844	0.005900	
64857	    0	8.060846	0.779348	0.210889	-1.978352	0.792905	1.213867	0.080566	0.008301	0.001709	0.999925	-0.009892	0.003964	0.006069	
64858	    0	8.743609	2.075560	-3.457120	-2.061515	0.550093	1.267656	0.087208	0.020949	-0.035027	0.999923	-0.010307	0.002750	0.006338	
64859	    0	13.021866	2.902981	-6.001103	-1.547272	0.380905	1.504547	0.129883	0.029541	-0.060486	0.999940	-0.007736	0.001904	0.007523	
64860	    0	21.970350	0.307091	-5.453264	-0.807777	0.222401	1.901470	0.219602	0.004938	-0.054794	0.999946	-0.004039	0.001112	0.009507	
64861	    0	30.081657	-5.393108	-5.709944	-0.285918	0.109103	2.348383	0.301392	-0.050476	-0.057190	0.999929	-0.001430	0.000546	0.011742	
64862	    0	29.404902	-9.577095	-6.631740	0.287446	0.170713	2.677999	0.295238	-0.091727	-0.066703	0.999908	0.001437	0.000854	0.013390	
64863	    0	23.321245	-8.268630	-5.291522	1.140645	0.393885	3.012217	0.234314	-0.078857	-0.053833	0.999867	0.005703	0.001969	0.015060	
64864	    0	17.269655	-3.904274	-4.467200	2.070547	0.315112	3.087032	0.173196	-0.035905	-0.045327	0.999825	0.010352	0.001575	0.015434	
64865	    0	16.874445	1.149961	-7.124853	2.508894	-0.109107	2.966495	0.168579	0.014893	-0.070984	0.999811	0.012544	-0.000546	0.014832	
64866	    0	21.974783	6.814877	-11.606965	2.206932	-0.395989	3.004822	0.218906	0.072714	-0.114850	0.999824	0.011034	-0.001980	0.015023	
64867	    0	27.293338	13.276355	-15.452239	1.516234	-0.302903	3.268611	0.270935	0.138367	-0.153076	0.999836	0.007581	-0.001514	0.016342	
64868	    0	26.388791	17.596470	-15.398509	0.861791	0.092893	3.661372	0.260529	0.181417	-0.153333	0.999823	0.004309	0.000464	0.018306	
64869	    0	21.762895	18.159593	-12.288572	0.234238	0.407627	3.937789	0.213745	0.185974	-0.123108	0.999803	0.001171	0.002038	0.019688	
64870	    0	18.727129	16.514328	-8.543291	-0.218787	0.386645	3.975752	0.183775	0.168726	-0.085974	0.999800	-0.001094	0.001933	0.019877	
64871	    0	16.246233	13.461779	-6.394119	-0.490408	0.220502	3.721838	0.159851	0.137451	-0.064453	0.999823	-0.002452	0.001102	0.018608	
64872	    0	13.539083	11.074443	-4.967033	-0.430890	0.204096	3.304635	0.133487	0.112853	-0.050049	0.999860	-0.002154	0.001020	0.016522	
64873	    0	11.228332	10.143899	-3.778719	-0.085262	0.458543	2.884777	0.110718	0.103027	-0.038086	0.999893	-0.000426	0.002293	0.014423	
64874	    0	10.005658	10.607898	-2.537220	0.351916	0.811218	2.432319	0.098653	0.107329	-0.025586	0.999916	0.001760	0.004056	0.012161	
64875	    0	9.343566	12.453600	-2.976580	0.596631	1.112580	1.865426	0.092102	0.125488	-0.029907	0.999936	0.002983	0.005563	0.009327	
64876	    0	7.389906	15.628249	-3.156068	0.375563	1.206226	1.456665	0.072567	0.156874	-0.031707	0.999953	0.001878	0.006031	0.007283	
64877	    0	3.735888	18.573551	-2.696503	-0.084497	0.978100	1.373307	0.035950	0.185974	-0.027222	0.999964	-0.000422	0.004890	0.006866	
64878	    0	-1.436195	18.037166	0.019336	-0.091745	0.714695	1.843101	-0.016023	0.180229	0.000166	0.999950	-0.000459	0.003573	0.009215	
64879	    0	-2.711842	11.608366	7.880833	1.085880	0.228124	2.130178	-0.028259	0.115356	0.079468	0.999928	0.005429	0.001141	0.010651	
64880	    0	-1.832311	5.278832	6.994607	1.174761	-0.624479	1.824608	-0.019020	0.052205	0.070195	0.999936	0.005874	-0.003122	0.009123	
64881	    0	-0.025024	2.182455	3.086343	0.209811	-1.116765	1.161970	-0.000549	0.021790	0.030884	0.999967	0.001049	-0.005584	0.005810	
64882	    0	2.709712	-0.183825	-2.247847	-0.583273	-1.448837	0.090219	0.027260	-0.001891	-0.022276	0.999969	-0.002916	-0.007244	0.000451	
64883	    0	0.758011	-1.345200	-5.868316	-1.937166	-1.949946	-0.479904	0.008118	-0.014038	-0.058472	0.999902	-0.009686	-0.009749	-0.002399	
64884	    0	-0.188864	-8.961861	-3.037667	-1.082831	-2.269806	-0.387774	-0.001721	-0.089778	-0.029911	0.999919	-0.005414	-0.011349	-0.001939	
64885	    0	3.369271	-16.636707	-2.359585	0.916489	-1.113138	-0.015259	0.033813	-0.166260	-0.024170	0.999973	0.004582	-0.005566	-0.000076	
64886	    0	5.888625	-18.886152	0.290321	1.181611	0.363352	0.376132	0.059245	-0.188763	0.001680	0.999979	0.005908	0.001817	0.001881	
64887	    0	5.675389	-13.993231	0.692309	1.567870	1.384952	0.302893	0.057007	-0.139893	0.005432	0.999944	0.007839	0.006925	0.001514	
64888	    0	3.530189	-10.839905	2.797675	1.915215	1.466787	0.015450	0.035509	-0.108656	0.026677	0.999927	0.009576	0.007334	0.000077	
64889	    0	2.428813	-8.610476	3.719278	1.056681	0.955400	-0.540166	0.024231	-0.086365	0.036621	0.999970	0.005283	0.004777	-0.002701	
64890	    0	1.543363	-1.032467	2.038443	0.593190	0.952537	-0.784308	0.015490	-0.010446	0.020280	0.999976	0.002966	0.004763	-0.003922	
64891	    0	0.588048	4.794379	1.767493	2.086895	1.514482	-0.874356	0.006226	0.047729	0.018127	0.999907	0.010434	0.007572	-0.004372	
64892	    0	-2.916342	10.518965	5.075912	2.362551	1.579548	-1.729473	-0.027847	0.104823	0.052222	0.999861	0.011812	0.007897	-0.008647	
64893	    0	-2.467632	17.884942	4.083168	-0.732251	0.925471	-2.264466	-0.022461	0.179260	0.040283	0.999918	-0.003661	0.004627	-0.011322	
64894	    0	11.698971	5.699170	-2.907947	-2.620973	-0.098613	-0.944550	0.117270	0.056051	-0.029760	0.999903	-0.013104	-0.000493	-0.004723	
64895	    0	42.745934	-26.655695	-9.758490	-0.601777	-0.762188	1.593041	0.429932	-0.263428	-0.095154	0.999956	-0.003009	-0.003811	0.007965	
64896	    0	37.036648	-45.113866	-8.334515	0.036621	-1.076706	0.681691	0.372343	-0.449857	-0.081427	0.999979	0.000183	-0.005383	0.003408	
64897	    0	6.603583	-13.896059	-7.776812	-0.673496	-0.830855	-1.679257	0.065186	-0.139771	-0.077026	0.999950	-0.003367	-0.004154	-0.008396	
64898	    0	-6.640437	31.507682	0.430301	-0.819039	-0.994520	-2.257983	-0.062858	0.315813	0.002692	0.999915	-0.004095	-0.004972	-0.011290	
64899	    0	-6.970747	47.350133	-8.303645	-0.416378	-0.428775	-1.266490	-0.066528	0.473755	-0.084167	0.999975	-0.002082	-0.002144	-0.006332	
64900	    0	9.900869	29.902070	-8.312280	-1.047524	0.536541	-0.729185	0.099871	0.298216	-0.084953	0.999975	-0.005238	0.002683	-0.003646	
64901	    0	29.601800	9.504344	-2.691680	-1.864492	-0.584430	-1.937164	0.296997	0.091919	-0.026917	0.999905	-0.009322	-0.002922	-0.009686	
64902	    0	30.003065	-1.813859	-8.458222	-2.077230	-1.099463	-3.028674	0.300159	-0.023549	-0.082706	0.999816	-0.010386	-0.005497	-0.015142	
64903	    0	17.609794	-4.919128	-4.537448	-1.893715	-0.102048	-2.993931	0.175354	-0.052246	-0.044800	0.999843	-0.009468	-0.000510	-0.014969	
64904	    0	5.622902	-1.457850	-1.909350	-1.190603	-0.287828	-2.412297	0.056074	-0.015368	-0.018923	0.999908	-0.005953	-0.001439	-0.012061	
64905	    0	7.466266	5.125660	-7.654051	0.265698	-0.314336	-1.862363	0.075256	0.050659	-0.076355	0.999954	0.001328	-0.001572	-0.009312	
64906	    0	17.129292	3.645942	-8.349018	1.932579	-0.271995	-1.676987	0.171708	0.035824	-0.082909	0.999917	0.009663	-0.001360	-0.008385	
64907	    0	22.900717	-1.291256	-9.090073	2.942057	-0.829933	-1.982989	0.229248	-0.013855	-0.090149	0.999833	0.014709	-0.004149	-0.009914	
64908	    0	18.907289	-0.907229	-9.492064	2.546855	-1.207620	-2.729019	0.189506	-0.010456	-0.093904	0.999807	0.012733	-0.006038	-0.013644	
64909	    0	13.452569	2.857104	-7.117153	1.786925	-1.269426	-3.380050	0.135437	0.026917	-0.070068	0.999797	0.008934	-0.006347	-0.016899	
64910	    0	13.828874	3.299226	-4.873767	1.247482	-1.202465	-3.394714	0.139114	0.030935	-0.047706	0.999818	0.006237	-0.006012	-0.016973	
64911	    0	17.915901	-1.469701	-1.519801	0.543241	-1.005415	-3.331166	0.178955	-0.017639	-0.014343	0.999845	0.002716	-0.005027	-0.016655	
64912	    0	19.042856	-5.160714	1.811607	-0.195705	-0.866175	-3.552635	0.189391	-0.054959	0.018991	0.999832	-0.000978	-0.004331	-0.017762	
64913	    0	15.843238	-6.220695	2.134313	-1.107097	-0.736093	-3.702021	0.157166	-0.065002	0.022278	0.999806	-0.005535	-0.003680	-0.018509	
64914	    0	14.156379	-5.887049	1.252670	-1.888021	-0.523412	-3.522539	0.140465	-0.061227	0.013466	0.999797	-0.009439	-0.002617	-0.017612	
64915	    0	13.014061	-4.624645	2.630053	-2.315675	-0.291271	-3.238130	0.129333	-0.048035	0.027039	0.999801	-0.011578	-0.001456	-0.016190	
64916	    0	11.598681	-6.729508	4.780816	-2.017124	-0.272383	-2.849534	0.114951	-0.068450	0.048652	0.999846	-0.010085	-0.001362	-0.014247	
64917	    0	9.917623	-13.369069	6.111876	-1.609857	-0.241669	-2.336963	0.097534	-0.134338	0.062317	0.999898	-0.008049	-0.001208	-0.011684	
64918	    0	8.103702	-18.786743	5.806410	-1.659058	-0.202185	-1.954133	0.079140	-0.188156	0.059705	0.999917	-0.008295	-0.001011	-0.009770	
64919	    0	6.570677	-22.276529	5.037544	-1.677550	-0.194554	-1.573216	0.063904	-0.222839	0.052307	0.999933	-0.008388	-0.000973	-0.007866	
64920	    0	4.817777	-26.793916	3.465724	-1.509878	-0.247768	-0.971235	0.046832	-0.267897	0.036738	0.999958	-0.007549	-0.001239	-0.004856	
64921	    0	3.204008	-30.520973	3.365467	-1.168640	-0.151063	-0.300600	0.031555	-0.305054	0.035461	0.999981	-0.005843	-0.000755	-0.001503	
64922	    0	2.735909	-29.026597	5.253641	-0.733377	0.159264	0.112725	0.027565	-0.290055	0.053578	0.999992	-0.003667	0.000796	0.000564	
64923	    0	2.732931	-20.983503	5.825002	-0.460817	0.567056	0.321198	0.027832	-0.209656	0.058655	0.999991	-0.002304	0.002835	0.001606	
64924	    0	3.227342	-12.397372	3.947826	-0.016213	0.845340	0.523760	0.032764	-0.123885	0.039351	0.999988	-0.000081	0.004227	0.002619	
64925	    0	3.849177	-8.241194	2.762905	0.083161	0.979811	0.762944	0.038940	-0.082275	0.027405	0.999980	0.000416	0.004899	0.003815	
64926	    0	3.495932	-5.618944	3.439667	-0.389865	0.991066	0.864417	0.035372	-0.055970	0.034331	0.999976	-0.001949	0.004955	0.004322	
64927	    0	4.562534	-1.671018	4.352744	-0.926791	0.906382	0.927744	0.045898	-0.016296	0.043396	0.999968	-0.004634	0.004532	0.004639	
64928	    0	6.718539	0.249473	3.476774	-1.243417	0.688562	1.116005	0.067288	0.003085	0.034518	0.999959	-0.006217	0.003443	0.005580	
64929	    0	7.772331	0.060341	1.650321	-1.479937	0.512704	1.276419	0.077759	0.001221	0.016296	0.999949	-0.007400	0.002563	0.006382	
64930	    0	9.460825	0.739567	-2.142216	-0.866900	0.322536	1.410120	0.094519	0.007969	-0.021608	0.999964	-0.004334	0.001613	0.007051	
64931	    0	13.388972	1.521480	-6.620253	0.064278	0.129701	1.493849	0.133728	0.016235	-0.066284	0.999971	0.000321	0.000648	0.007469	
64932	    0	20.708585	0.511502	-8.882038	0.676928	-0.009918	1.750590	0.207033	0.007228	-0.088788	0.999955	0.003385	-0.000050	0.008753	
64933	    0	28.679556	-2.756763	-8.799821	0.705162	-0.094607	2.151535	0.287109	-0.024170	-0.087952	0.999935	0.003526	-0.000473	0.010757	
64934	    0	31.141157	-4.627098	-7.786844	0.790238	0.149350	2.540854	0.311905	-0.042002	-0.078273	0.999910	0.003951	0.000747	0.012704	
64935	    0	25.020821	-4.611158	-5.211356	1.165058	0.439663	2.945835	0.250732	-0.042114	-0.052917	0.999871	0.005825	0.002198	0.014729	
64936	    0	16.302970	-2.594184	-2.807033	1.758098	0.442910	3.095984	0.163340	-0.023165	-0.028644	0.999839	0.008790	0.002214	0.015479	
64937	    0	13.937773	0.464645	-3.606489	2.070730	0.015450	2.958077	0.139282	0.007080	-0.036011	0.999837	0.010353	0.000077	0.014790	
64938	    0	17.615268	5.838802	-7.142007	1.833059	-0.446343	3.022354	0.175395	0.061691	-0.070473	0.999841	0.009165	-0.002232	0.015111	
64939	    0	22.888715	11.478552	-10.911917	1.378895	-0.563079	3.222062	0.227295	0.119202	-0.107666	0.999842	0.006894	-0.002815	0.016109	
64940	    0	24.658881	15.561449	-12.957612	0.727691	-0.344866	3.409560	0.244105	0.160259	-0.128576	0.999846	0.003638	-0.001724	0.017047	
64941	    0	22.295658	16.485749	-11.381319	0.047496	-0.058750	3.676049	0.219910	0.168945	-0.113708	0.999830	0.000237	-0.000294	0.018379	
64942	    0	19.448738	15.435115	-8.518084	-0.534282	-0.024225	3.842976	0.191487	0.157822	-0.085576	0.999811	-0.002671	-0.000121	0.019214	
64943	    0	16.817244	12.979781	-6.535182	-0.880294	-0.235762	3.672247	0.165833	0.132568	-0.065735	0.999821	-0.004401	-0.001179	0.018360	
64944	    0	14.146390	10.467307	-5.562061	-0.826683	-0.335518	3.208881	0.139856	0.106695	-0.055823	0.999861	-0.004133	-0.001678	0.016044	
64945	    0	11.537775	9.250225	-4.314841	-0.374425	-0.193030	2.745907	0.114136	0.093994	-0.043213	0.999903	-0.001872	-0.000965	0.013729	
64946	    0	10.029309	9.000378	-3.242571	0.147632	0.156025	2.315955	0.099216	0.091181	-0.032436	0.999932	0.000738	0.000780	0.011580	
64947	    0	9.398585	9.750466	-2.098701	0.609790	0.399024	1.888307	0.093018	0.098450	-0.020874	0.999949	0.003049	0.001995	0.009441	
64948	    0	8.519935	10.536398	-2.187210	0.940526	0.437933	1.460095	0.084379	0.106084	-0.021560	0.999959	0.004703	0.002190	0.007300	
64949	    0	6.488166	13.453080	-3.506784	0.806626	0.448613	1.243604	0.063965	0.135071	-0.034668	0.999969	0.004033	0.002243	0.006218	
64950	    0	4.591498	15.719505	-2.980377	0.445942	0.297549	1.260195	0.044879	0.157546	-0.029520	0.999976	0.002230	0.001488	0.006301	
64951	    0	2.710927	15.852208	-2.203960	-0.182344	0.247385	1.439680	0.025940	0.158691	-0.022217	0.999972	-0.000912	0.001237	0.007198	
64952	    0	1.516684	10.066983	5.788757	0.509269	0.055886	1.738763	0.014308	0.100649	0.058140	0.999958	0.002546	0.000279	0.008694	
64953	    0	1.501307	3.986662	4.728301	0.524146	-0.500304	1.541156	0.014587	0.039856	0.047424	0.999963	0.002621	-0.002501	0.007706	
64954	    0	0.402570	1.591672	2.527966	-0.063897	-0.716977	1.055725	0.003851	0.015945	0.025289	0.999979	-0.000319	-0.003585	0.005279	
64955	    0	0.795977	-2.375318	1.137414	0.048065	-1.136596	0.333406	0.007935	-0.023743	0.011414	0.999982	0.000240	-0.005683	0.001667	
64956	    0	2.711755	-3.387615	-5.658812	-1.152060	-1.772914	-0.280004	0.027569	-0.034239	-0.056149	0.999943	-0.005760	-0.008864	-0.001400	
64957	    0	3.114692	-7.702384	-0.846562	-0.466166	-2.257398	-0.286872	0.031128	-0.077087	-0.007935	0.999932	-0.002331	-0.011287	-0.001434	
64958	    0	4.833763	-18.011224	0.101307	2.098911	-1.718192	0.046159	0.048379	-0.180101	-0.000462	0.999907	0.010494	-0.008591	0.000231	
64959	    0	5.739320	-19.807139	-2.562461	1.744295	-0.232700	0.503547	0.057922	-0.197693	-0.027283	0.999958	0.008721	-0.001163	0.002518	
64960	    0	3.976726	-13.051152	-0.975696	1.985218	1.318583	0.505651	0.040026	-0.130303	-0.011314	0.999926	0.009926	0.006593	0.002528	
64961	    0	0.672858	-8.007272	4.092143	3.075775	2.050898	0.004578	0.007141	-0.080688	0.039612	0.999828	0.015378	0.010254	0.000023	
64962	    0	0.000713	-5.757656	5.924999	2.846652	1.469104	-0.536751	0.000282	-0.058413	0.058421	0.999867	0.014233	0.007345	-0.002684	
64963	    0	0.761526	-1.878806	2.442908	2.849703	1.275881	-0.833166	0.007690	-0.019165	0.024109	0.999869	0.014248	0.006379	-0.004166	
64964	    0	-0.439538	3.630367	2.852254	3.325299	1.699559	-1.334850	-0.003909	0.035850	0.029156	0.999803	0.016625	0.008497	-0.006674	
64965	    0	-4.126873	14.854843	7.122370	1.248212	1.188892	-2.311787	-0.039124	0.148560	0.072388	0.999896	0.006241	0.005944	-0.011559	
64966	    0	3.381452	20.639377	1.409760	-1.648372	0.265891	-1.786467	0.035674	0.206187	0.012351	0.999925	-0.008242	0.001329	-0.008932	
64967	    0	24.928979	1.466651	-12.593225	-3.258676	-0.831455	0.791208	0.249756	0.013611	-0.125122	0.999850	-0.016293	-0.004157	0.003956	
64968	    0	46.511819	-33.882497	-19.719577	-0.678076	-1.281764	1.672779	0.469180	-0.335571	-0.193056	0.999938	-0.003390	-0.006409	0.008364	
64969	    0	24.722969	-44.201115	-9.334010	-0.833139	-1.386086	-0.191500	0.247437	-0.442627	-0.089783	0.999967	-0.004166	-0.006930	-0.000957	
64970	    0	-1.096702	-4.239582	-1.133831	-2.013076	-0.519959	-1.706556	-0.011300	-0.042412	-0.010941	0.999909	-0.010065	-0.002600	-0.008533	
64971	    0	-6.057802	33.466054	5.646928	-1.081868	-0.723089	-1.667054	-0.057983	0.335449	0.054443	0.999944	-0.005409	-0.003615	-0.008335	
64972	    0	-0.103282	45.657445	-6.132539	-0.695995	0.092698	-0.885205	0.000958	0.456356	-0.062914	0.999984	-0.003480	0.000463	-0.004426	
64973	    0	20.346021	25.686012	-2.690592	-1.944580	0.142672	-0.946063	0.204651	0.255615	-0.029541	0.999941	-0.009723	0.000713	-0.004730	
64974	    0	28.625690	7.813386	-1.235418	-2.567234	-0.911951	-2.251933	0.287167	0.074748	-0.012020	0.999844	-0.012836	-0.004560	-0.011259	
64975	    0	22.178914	2.331468	-3.575751	-2.048417	-0.733989	-2.971054	0.222229	0.019653	-0.035156	0.999830	-0.010242	-0.003670	-0.014854	
64976	    0	10.996519	2.119710	-2.737457	-1.098477	-0.106433	-2.533230	0.110235	0.019651	-0.027427	0.999904	-0.005492	-0.000532	-0.012666	
64977	    0	6.592067	-1.445033	-5.225983	-0.881209	-0.026513	-1.757078	0.065796	-0.015259	-0.052185	0.999951	-0.004406	-0.000133	-0.008785	
64978	    0	13.870929	1.502411	-6.571097	-0.003243	-0.159646	-1.376545	0.138861	0.014068	-0.065600	0.999975	-0.000016	-0.000798	-0.006883	
64979	    0	21.252841	2.106577	-10.380521	1.503975	-0.643171	-1.483184	0.213013	0.020264	-0.102966	0.999939	0.007520	-0.003216	-0.007416	
64980	    0	20.427883	-3.117846	-11.458821	2.441521	-0.908894	-2.108100	0.204464	-0.031939	-0.114046	0.999859	0.012207	-0.004544	-0.010540	
64981	    0	13.953363	-3.637994	-9.941126	2.530069	-1.344194	-2.665118	0.139709	-0.036987	-0.098938	0.999808	0.012650	-0.006721	-0.013325	
64982	    0	11.527372	0.784083	-9.034009	2.100702	-1.518540	-3.016861	0.116065	0.007036	-0.089384	0.999802	0.010503	-0.007592	-0.015083	
64983	    0	15.169341	2.150754	-6.345365	1.728169	-1.424309	-3.227441	0.152466	0.019592	-0.062195	0.999806	0.008640	-0.007121	-0.016136	
64984	    0	17.857168	-0.420375	-4.754484	1.042236	-1.390728	-3.295898	0.178798	-0.006906	-0.046333	0.999826	0.005211	-0.006953	-0.016479	
64985	    0	17.018346	-2.968612	-2.315372	-0.062374	-0.947622	-3.485297	0.169739	-0.032654	-0.022339	0.999836	-0.000312	-0.004738	-0.017426	
64986	    0	16.057377	-2.967985	1.034784	-1.077718	-0.500137	-3.644976	0.159971	-0.032541	0.010919	0.999816	-0.005388	-0.002501	-0.018224	
64987	    0	15.097677	-3.017190	3.724363	-1.749346	-0.425749	-3.572321	0.150330	-0.032532	0.037842	0.999800	-0.008746	-0.002129	-0.017860	
64988	    0	14.077628	-2.929178	4.791218	-1.933605	-0.511584	-3.411706	0.140131	-0.031219	0.048567	0.999804	-0.009667	-0.002558	-0.017057	
64989	    0	12.991196	-3.057551	5.248608	-1.776796	-0.515013	-3.181637	0.129272	-0.032166	0.053101	0.999830	-0.008883	-0.002575	-0.015907	
64990	    0	11.948020	-5.918009	6.167604	-1.427714	-0.574328	-2.872022	0.118440	-0.060442	0.062446	0.999866	-0.007138	-0.002872	-0.014359	
64991	    0	10.182728	-10.997317	4.959992	-1.318406	-0.655197	-2.498714	0.100281	-0.110901	0.050659	0.999894	-0.006592	-0.003276	-0.012493	
64992	    0	7.543185	-17.039925	3.285084	-1.848858	-0.690866	-2.134589	0.073492	-0.170876	0.034685	0.999894	-0.009244	-0.003454	-0.010673	
64993	    0	5.305774	-24.016948	2.370533	-2.372067	-0.691058	-1.668610	0.050964	-0.240295	0.026733	0.999888	-0.011860	-0.003455	-0.008343	
64994	    0	3.536052	-31.057459	2.244856	-2.180920	-0.560012	-1.100378	0.033583	-0.310493	0.025930	0.999921	-0.010904	-0.002800	-0.005502	
64995	    0	2.171274	-33.932354	2.392854	-1.169595	-0.259973	-0.547032	0.020752	-0.339233	0.025940	0.999978	-0.005848	-0.001300	-0.002735	
64996	    0	2.213669	-28.104459	3.113509	-0.107384	0.187302	-0.025558	0.022130	-0.281031	0.031265	0.999999	-0.000537	0.000937	-0.000128	
64997	    0	2.912290	-19.380254	5.731737	0.341226	0.691225	0.354005	0.029663	-0.193848	0.056885	0.999990	0.001706	0.003456	0.001770	
64998	    0	2.243725	-10.566706	6.595516	0.619510	0.899129	0.462153	0.022977	-0.105818	0.065525	0.999982	0.003098	0.004496	0.002311	
64999	    0	2.199139	-6.727057	6.236280	0.557903	0.916296	0.548557	0.022461	-0.067383	0.062073	0.999981	0.002789	0.004581	0.002743	
65000	    0	4.725261	-5.636559	5.790764	0.123406	0.982672	0.761419	0.047750	-0.056220	0.057639	0.999980	0.000617	0.004913	0.003807	
65001	    0	6.986109	-3.818620	5.239224	-0.488858	1.028452	0.965890	0.070312	-0.037720	0.052124	0.999971	-0.002444	0.005142	0.004829	
65002	    0	7.480279	-0.973191	4.477008	-1.181811	1.043717	1.085107	0.075086	-0.009062	0.044434	0.999953	-0.005909	0.005219	0.005425	
65003	    0	7.267893	1.401594	2.000061	-1.616511	0.971242	1.134514	0.072693	0.014587	0.019531	0.999939	-0.008082	0.004856	0.005672	
65004	    0	7.787596	1.793222	-1.568154	-1.973201	0.770207	1.222069	0.077703	0.018250	-0.016160	0.999925	-0.009866	0.003851	0.006110	
65005	    0	10.558334	3.551556	-4.979726	-1.980449	0.502789	1.304658	0.105225	0.035706	-0.050415	0.999926	-0.009902	0.002514	0.006523	
65006	    0	17.847654	3.521245	-6.178654	-1.461247	0.334746	1.508169	0.178102	0.036102	-0.062346	0.999943	-0.007306	0.001674	0.007541	
65007	    0	28.133217	-0.261970	-6.353024	-0.897236	0.094797	2.065321	0.281311	0.000000	-0.063660	0.999936	-0.004486	0.000474	0.010326	
65008	    0	32.740739	-6.393817	-6.855321	-0.313195	0.024605	2.536270	0.328176	-0.059887	-0.068498	0.999918	-0.001566	0.000123	0.012681	
65009	    0	28.270532	-9.441090	-6.298624	0.623536	0.187690	2.952688	0.283997	-0.090027	-0.063538	0.999886	0.003118	0.000938	0.014763	
65010	    0	19.404766	-7.765948	-4.659558	1.619427	0.269714	3.213485	0.195194	-0.074147	-0.047468	0.999837	0.008097	0.001348	0.016067	
65011	    0	14.689325	-4.761979	-4.536184	2.457586	0.048259	3.064162	0.147583	-0.044800	-0.045959	0.999806	0.012287	0.000241	0.015320	
65012	    0	17.840531	0.494549	-7.377088	2.572035	-0.246255	2.973558	0.178387	0.008544	-0.073457	0.999805	0.012859	-0.001231	0.014867	
65013	    0	25.615394	7.467378	-11.919835	2.021332	-0.383017	3.054982	0.255188	0.079773	-0.117920	0.999830	0.010106	-0.001915	0.015274	
65014	    0	28.863462	14.625387	-15.314679	1.281995	-0.140579	3.269173	0.286289	0.151923	-0.151983	0.999846	0.006410	-0.000703	0.016345	
65015	    0	23.594810	16.991048	-13.306919	0.541717	0.390074	3.566175	0.232605	0.174438	-0.133057	0.999835	0.002708	0.001950	0.017830	
65016	    0	18.573128	16.691568	-8.990330	-0.242630	0.509866	3.820466	0.182269	0.170310	-0.090576	0.999813	-0.001213	0.002549	0.019101	
65017	    0	15.728088	14.133801	-6.759156	-0.731514	0.235763	3.801203	0.154480	0.144043	-0.068298	0.999811	-0.003657	0.001179	0.019005	
65018	    0	13.744889	10.686574	-5.942039	-0.893638	0.094037	3.373508	0.135595	0.108896	-0.059968	0.999847	-0.004468	0.000470	0.016867	
65019	    0	11.768236	8.744876	-5.211463	-0.678087	0.129704	2.836710	0.116394	0.088928	-0.052490	0.999893	-0.003390	0.000648	0.014183	
65020	    0	9.850086	8.398014	-4.276899	-0.209813	0.398455	2.363643	0.097414	0.085091	-0.043053	0.999928	-0.001049	0.001992	0.011818	
65021	    0	8.483650	9.397394	-2.877821	0.344283	0.749221	1.960791	0.083801	0.094849	-0.028931	0.999943	0.001721	0.003746	0.009804	
65022	    0	7.712172	10.720981	-2.119511	0.823606	0.785840	1.553750	0.076202	0.107891	-0.021052	0.999953	0.004118	0.003929	0.007769	
65023	    0	6.875394	12.217952	-4.490398	0.824746	0.639540	1.107799	0.067932	0.122742	-0.044617	0.999970	0.004124	0.003198	0.005539	
65024	    0	4.626152	16.626552	-5.865447	0.146676	0.519183	0.884823	0.045373	0.166511	-0.058651	0.999986	0.000733	0.002596	0.004424	
65025	    0	1.175813	19.720511	-3.886442	0.004768	0.357821	1.083380	0.010620	0.197266	-0.038879	0.999983	0.000024	0.001789	0.005417	
65026	    0	-0.664010	15.420356	-0.535482	-0.008774	0.334171	1.536576	-0.007833	0.154146	-0.005349	0.999969	-0.000044	0.001671	0.007683	
65027	    0	0.241497	7.845086	6.101440	0.518042	-0.090600	1.575488	0.001770	0.078308	0.061218	0.999965	0.002590	-0.000453	0.007877	
65028	    0	0.530311	3.414348	5.751990	0.458912	-0.877198	1.124393	0.004859	0.034039	0.057620	0.999971	0.002295	-0.004386	0.005622	
65029	    0	0.531685	-0.931664	3.978194	0.478368	-1.374640	0.481420	0.005066	-0.009399	0.039795	0.999970	0.002392	-0.006873	0.002407	
65030	    0	2.988536	-4.429160	-2.286607	-0.246814	-1.785304	-0.417525	0.029995	-0.044382	-0.022544	0.999957	-0.001234	-0.008926	-0.002088	
65031	    0	3.296151	-5.375376	-4.575243	-1.373139	-2.037105	-0.812553	0.033203	-0.054199	-0.045044	0.999916	-0.006866	-0.010185	-0.004063	
65032	    0	4.076726	-13.623393	1.305604	0.995466	-1.897851	-0.543605	0.040275	-0.136408	0.012761	0.999938	0.004977	-0.009489	-0.002718	
65033	    0	5.722864	-20.595868	-0.311554	2.749724	-0.517099	0.068667	0.057312	-0.205872	-0.005798	0.999902	0.013748	-0.002585	0.000343	
65034	    0	5.499320	-18.754336	-2.347456	2.029847	1.067377	0.501072	0.055329	-0.187152	-0.025670	0.999930	0.010149	0.005337	0.002505	
65035	    0	4.179928	-11.082534	0.598699	2.314079	1.768749	0.490588	0.042114	-0.110779	0.004333	0.999890	0.011570	0.008843	0.002453	
65036	    0	2.235803	-9.554089	4.675884	2.667149	1.480923	0.078204	0.022735	-0.096143	0.045312	0.999883	0.013335	0.007404	0.000391	
65037	    0	1.035045	-5.570952	3.984429	1.502441	1.085679	-0.457771	0.010437	-0.056030	0.039368	0.999954	0.007512	0.005428	-0.002289	
65038	    0	1.231591	2.259807	0.538293	0.906763	1.165784	-0.556379	0.012410	0.022539	0.005413	0.999969	0.004534	0.005829	-0.002782	
65039	    0	1.329532	3.403897	-0.480284	2.686616	1.651072	-0.640897	0.013367	0.034058	-0.004456	0.999870	0.013433	0.008255	-0.003204	
65040	    0	-2.324156	9.086106	7.140583	1.108197	1.442563	-1.614992	-0.021991	0.090644	0.072070	0.999926	0.005541	0.007213	-0.008075	
65041	    0	8.196024	10.784222	-2.143580	-2.893176	0.050547	-0.824769	0.082397	0.107178	-0.023010	0.999887	-0.014465	0.000253	-0.004124	
65042	    0	37.280223	-14.143684	-11.450369	-2.282405	-0.552767	1.402899	0.374100	-0.140102	-0.111867	0.999906	-0.011412	-0.002764	0.007014	
65043	    0	38.139410	-34.086253	-9.560467	-0.255396	-0.965888	0.818640	0.383240	-0.339417	-0.093323	0.999979	-0.001277	-0.004829	0.004093	
65044	    0	8.484725	-13.879582	-7.565915	-1.482036	-1.190779	-0.767340	0.084757	-0.139674	-0.074121	0.999947	-0.007410	-0.005954	-0.003837	
65045	    0	-6.883384	20.347438	0.840538	-1.602789	-0.711079	-1.866964	-0.066956	0.204163	0.006531	0.999918	-0.008014	-0.003555	-0.009335	
65046	    0	-6.396485	41.191426	-4.559865	-1.392772	-0.209049	-1.571112	-0.060678	0.412068	-0.048532	0.999944	-0.006964	-0.001045	-0.007855	
65047	    0	7.453354	34.610098	-8.765524	-1.907962	0.628676	-1.042198	0.076050	0.344849	-0.091187	0.999935	-0.009540	0.003143	-0.005211	
65048	    0	25.623599	13.954860	-2.264815	-2.185322	-0.269327	-1.756917	0.257479	0.137034	-0.023808	0.999900	-0.010926	-0.001347	-0.008784	
65049	    0	28.488152	1.096930	-5.118787	-1.582982	-1.143699	-2.706272	0.285278	0.006714	-0.049622	0.999861	-0.007915	-0.005718	-0.013531	
65050	    0	19.178215	-1.746971	-4.947187	-0.765257	-0.467700	-2.890316	0.191616	-0.020428	-0.048949	0.999885	-0.003826	-0.002338	-0.014451	
65051	    0	8.131769	-1.891627	-3.091370	-0.173001	-0.182347	-2.351434	0.081116	-0.019897	-0.030823	0.999929	-0.000865	-0.000912	-0.011757	
65052	    0	9.750413	-0.367956	-4.638607	0.243953	-0.249866	-1.850156	0.097523	-0.004525	-0.046269	0.999955	0.001220	-0.001249	-0.009251	
65053	    0	18.248846	4.190408	-7.073753	1.480324	-0.464640	-1.607547	0.182983	0.040955	-0.070007	0.999937	0.007401	-0.002323	-0.008038	
65054	    0	22.288295	3.517122	-9.291299	2.566646	-0.817146	-1.945967	0.223595	0.034179	-0.091558	0.999862	0.012833	-0.004086	-0.009729	
65055	    0	18.963204	0.095084	-9.950842	2.679043	-1.239856	-2.585005	0.190247	-0.000183	-0.098328	0.999807	0.013394	-0.006199	-0.012924	
65056	    0	14.528464	2.449578	-9.779965	2.190162	-1.354879	-3.031740	0.146301	0.023345	-0.096551	0.999802	0.010950	-0.006774	-0.015158	
65057	    0	15.147680	3.742091	-7.616486	1.302414	-1.206087	-3.300669	0.152527	0.035400	-0.075012	0.999824	0.006512	-0.006030	-0.016502	
65058	    0	18.922669	1.261072	-4.325389	0.638234	-1.168125	-3.401182	0.189654	0.009523	-0.042113	0.999833	0.003191	-0.005840	-0.017005	
65059	    0	19.674873	-2.415159	-1.663104	-0.131996	-1.006185	-3.611204	0.196350	-0.027710	-0.015625	0.999824	-0.000660	-0.005031	-0.018055	
65060	    0	17.311502	-4.387695	1.305179	-0.823457	-0.688217	-3.824867	0.172188	-0.047120	0.013835	0.999803	-0.004117	-0.003441	-0.019123	
65061	    0	14.802442	-4.801740	3.308346	-1.486313	-0.572055	-3.842440	0.146973	-0.050598	0.033875	0.999784	-0.007431	-0.002860	-0.019211	
65062	    0	13.509371	-4.202331	3.624719	-1.757934	-0.549736	-3.640237	0.134202	-0.044148	0.036999	0.999791	-0.008789	-0.002748	-0.018200	
65063	    0	12.730899	-3.170567	4.506862	-1.856350	-0.442342	-3.410556	0.126648	-0.033447	0.045654	0.999808	-0.009281	-0.002212	-0.017052	
65064	    0	11.307539	-4.744209	5.525416	-1.496009	-0.484491	-3.104748	0.112190	-0.048772	0.055888	0.999848	-0.007480	-0.002422	-0.015523	
65065	    0	9.256619	-9.324346	5.533508	-1.029050	-0.463120	-2.664278	0.091187	-0.094177	0.056030	0.999895	-0.005145	-0.002316	-0.013321	
65066	    0	7.532893	-14.380326	4.270327	-1.186403	-0.399791	-2.205526	0.073652	-0.144364	0.043707	0.999919	-0.005932	-0.001999	-0.011027	
65067	    0	6.616331	-19.184692	2.854859	-1.653333	-0.421726	-1.842547	0.064331	-0.192200	0.030273	0.999921	-0.008266	-0.002109	-0.009212	
65068	    0	5.723286	-25.249176	1.825786	-1.845594	-0.533498	-1.395449	0.055417	-0.252699	0.020739	0.999929	-0.009228	-0.002667	-0.006977	
65069	    0	4.585825	-31.049887	1.720138	-1.424426	-0.525481	-0.807200	0.044556	-0.310547	0.019531	0.999963	-0.007122	-0.002627	-0.004036	
65070	    0	3.311297	-31.761933	2.495611	-0.635530	-0.293732	-0.364495	0.032496	-0.317597	0.026013	0.999991	-0.003178	-0.001469	-0.001822	
65071	    0	3.029533	-25.181573	3.492732	0.142670	0.123024	0.062561	0.030396	-0.251831	0.034729	0.999999	0.000713	0.000615	0.000313	
65072	    0	3.209302	-16.495344	5.166671	0.856404	0.531962	0.387575	0.032549	-0.165110	0.050874	0.999985	0.004282	0.002660	0.001938	
65073	    0	2.065069	-8.572754	5.623313	1.150713	0.714880	0.481419	0.021057	-0.085999	0.055664	0.999973	0.005754	0.003574	0.002407	
65074	    0	1.955620	-4.516759	6.111104	0.813680	0.774007	0.545505	0.019916	-0.045362	0.060850	0.999980	0.004068	0.003870	0.002728	
65075	    0	3.965440	-1.506215	5.351012	0.099946	0.792888	0.679019	0.039917	-0.014954	0.053345	0.999986	0.000500	0.003964	0.003395	
65076	    0	6.369107	0.808863	4.210733	-0.848206	0.793465	0.981150	0.063816	0.008579	0.041819	0.999970	-0.004241	0.003967	0.004906	
65077	    0	7.813270	1.062575	3.256658	-1.748505	0.776690	1.293211	0.078186	0.011414	0.032166	0.999933	-0.008742	0.003883	0.006466	
65078	    0	7.650676	-0.324924	1.584779	-2.461332	0.635170	1.500756	0.076577	-0.002481	0.015638	0.999890	-0.012306	0.003176	0.007504	
65079	    0	8.133351	-0.092675	-1.789566	-2.808312	0.443287	1.550361	0.081299	-0.000549	-0.018066	0.999868	-0.014041	0.002216	0.007751	
65080	    0	12.281771	1.972994	-5.639948	-2.294424	0.303278	1.565030	0.122576	0.020040	-0.056814	0.999902	-0.011472	0.001516	0.007825	
65081	    0	21.119515	1.683165	-6.599414	-1.113149	0.123026	1.750215	0.210999	0.018311	-0.066223	0.999946	-0.005566	0.000615	0.008751	
65082	    0	30.754362	-2.752954	-6.575609	-0.014878	-0.139621	2.171559	0.307864	-0.024193	-0.065539	0.999940	-0.000074	-0.000698	0.010858	
65083	    0	31.859631	-8.126100	-6.980469	0.630207	-0.218780	2.629170	0.319702	-0.076843	-0.069702	0.999907	0.003151	-0.001094	0.013145	
65084	    0	25.170193	-8.593004	-6.324419	1.077698	0.073055	3.008208	0.252930	-0.081789	-0.063785	0.999872	0.005388	0.000365	0.015040	
65085	    0	17.481878	-4.761020	-4.685977	1.700681	0.202380	3.096933	0.175476	-0.044495	-0.047424	0.999843	0.008503	0.001012	0.015484	
65086	    0	15.957022	-1.116152	-5.887232	2.259571	-0.154122	2.860991	0.159747	-0.008212	-0.058853	0.999833	0.011297	-0.000771	0.014304	
65087	    0	20.689338	3.877538	-9.844561	2.041922	-0.591308	2.796317	0.206604	0.042664	-0.097412	0.999846	0.010209	-0.002956	0.013981	
65088	    0	27.036886	10.985209	-14.265296	1.288855	-0.642424	2.987426	0.269134	0.114791	-0.141058	0.999862	0.006444	-0.003212	0.014936	
65089	    0	28.811495	17.851344	-15.827089	0.710334	-0.320261	3.457823	0.285217	0.184021	-0.157166	0.999843	0.003551	-0.001601	0.017288	
65090	    0	24.221325	20.256786	-14.044167	0.141725	0.020028	3.940265	0.238145	0.207386	-0.140320	0.999805	0.000709	0.000100	0.019700	
65091	    0	19.433203	19.130491	-10.686700	-0.412018	0.098617	4.223187	0.190186	0.195129	-0.107361	0.999774	-0.002060	0.000493	0.021114	
65092	    0	16.196290	15.568203	-7.804379	-0.689365	-0.076109	4.091556	0.158767	0.158682	-0.078526	0.999784	-0.003447	-0.000381	0.020456	
65093	    0	14.073500	11.781092	-5.756979	-0.547058	-0.137909	3.624929	0.138611	0.120178	-0.057800	0.999831	-0.002735	-0.000690	0.018124	
65094	    0	11.630776	9.509008	-3.962247	0.027085	0.078586	3.110248	0.114795	0.096889	-0.039655	0.999879	0.000135	0.000393	0.015551	
65095	    0	9.886684	8.675821	-2.601621	0.748467	0.513665	2.609336	0.097656	0.088135	-0.025940	0.999904	0.003742	0.002568	0.013046	
65096	    0	8.968497	9.521731	-1.444215	1.331368	0.884845	2.104630	0.088613	0.096249	-0.014197	0.999912	0.006657	0.004424	0.010523	
65097	    0	8.249159	12.303216	-3.389197	1.452671	1.108768	1.529730	0.081360	0.123901	-0.033447	0.999928	0.007263	0.005544	0.007648	
65098	    0	5.780922	17.727111	-1.880376	1.371410	1.132987	1.217103	0.056625	0.177743	-0.017909	0.999942	0.006857	0.005665	0.006085	
65099	    0	2.071985	19.711512	-0.404181	1.215573	0.872054	1.314566	0.019409	0.197266	-0.002930	0.999950	0.006078	0.004360	0.006573	
65100	    0	-0.854155	15.299776	3.857430	1.252773	0.599874	1.755179	-0.009765	0.152670	0.039559	0.999937	0.006264	0.002999	0.008776	
65101	    0	-1.030202	9.238559	7.062354	1.049823	-0.016594	1.738769	-0.011108	0.091919	0.071106	0.999948	0.005249	-0.000083	0.008694	
65102	    0	-1.131856	6.162812	4.865798	0.392154	-0.703055	1.234256	-0.011869	0.061460	0.048738	0.999972	0.001961	-0.003515	0.006171	
65103	    0	-1.259767	2.592717	2.874053	0.117493	-1.086242	0.492862	-0.012817	0.025879	0.028687	0.999982	0.000587	-0.005431	0.002464	
65104	    0	0.304634	-1.974559	-2.090976	-0.611121	-1.471155	-0.454526	0.003155	-0.019816	-0.020826	0.999966	-0.003056	-0.007356	-0.002273	
65105	    0	-0.316472	-5.214493	-4.762266	-2.030063	-1.924202	-0.838500	-0.002930	-0.052612	-0.047119	0.999893	-0.010150	-0.009621	-0.004192	
65106	    0	0.899192	-12.900723	0.466099	-0.177195	-1.853018	-0.559053	0.008587	-0.129027	0.004856	0.999952	-0.000886	-0.009265	-0.002795	
65107	    0	4.434145	-21.478852	0.599634	2.372230	-0.689715	-0.013733	0.044312	-0.214844	0.003601	0.999924	0.011861	-0.003448	-0.000069	
65108	    0	6.165817	-20.492843	-0.297485	2.089924	0.524913	0.393112	0.062049	-0.204760	-0.005278	0.999940	0.010449	0.002625	0.001966	
65109	    0	5.928511	-10.266647	-0.790967	2.117214	1.362074	0.317391	0.059387	-0.102478	-0.009399	0.999919	0.010586	0.006810	0.001587	
65110	    0	3.229404	-6.611263	2.862294	2.338483	1.435516	0.034143	0.032506	-0.066434	0.027615	0.999906	0.011692	0.007177	0.000171	
65111	    0	1.549132	-5.135489	4.789381	1.037608	1.027117	-0.431065	0.015625	-0.051636	0.047546	0.999970	0.005188	0.005136	-0.002155	
65112	    0	0.944536	0.919194	3.333597	-0.435450	0.941854	-0.567249	0.009628	0.009237	0.033271	0.999982	-0.002177	0.004709	-0.002836	
65113	    0	2.270495	6.560382	1.318106	0.135041	0.900463	-0.378420	0.022888	0.065552	0.013123	0.999988	0.000675	0.004502	-0.001892	
65114	    0	1.672509	5.966890	-0.840361	1.780550	1.341087	-0.682656	0.016874	0.059684	-0.007985	0.999931	0.008903	0.006705	-0.003413	
65115	    0	-0.395557	9.395423	2.481620	-0.126650	1.390289	-1.426720	-0.003113	0.093994	0.024780	0.999949	-0.000633	0.006951	-0.007133	
65116	    0	11.582095	2.562385	-5.068857	-3.069428	0.044062	-0.410669	0.115861	0.024604	-0.051097	0.999880	-0.015347	0.000220	-0.002053	
65117	    0	42.329719	-29.899807	-12.530540	-1.250486	-1.020646	1.702920	0.426453	-0.296143	-0.121277	0.999930	-0.006252	-0.005103	0.008514	
65118	    0	36.983054	-48.726554	-7.937762	0.205804	-0.945479	0.819212	0.372193	-0.485663	-0.078122	0.999979	0.001029	-0.004727	0.004096	
65119	    0	3.006512	-10.642666	-1.687339	-1.130694	-1.059549	-1.145953	0.029541	-0.106689	-0.016113	0.999953	-0.005653	-0.005298	-0.005730	
65120	    0	-9.689396	30.302022	1.756746	0.016594	-0.997180	-1.822504	-0.094213	0.303885	0.017118	0.999946	0.000083	-0.004986	-0.009112	
65121	    0	-7.302040	45.325651	-3.681595	0.128174	-0.097466	-1.105505	-0.070496	0.453674	-0.036560	0.999984	0.000641	-0.000487	-0.005527	
65122	    0	8.382753	34.447875	-6.806149	-1.646258	0.736820	-0.620851	0.084637	0.343639	-0.071203	0.999954	-0.008231	0.003684	-0.003104	
65123	    0	25.395592	14.753346	-3.056810	-3.090079	-0.271431	-1.969257	0.255432	0.144531	-0.032471	0.999831	-0.015450	-0.001357	-0.009846	
65124	    0	27.849014	3.835675	-7.800586	-3.157498	-1.283753	-2.897695	0.279490	0.033093	-0.076764	0.999749	-0.015786	-0.006418	-0.014487	
65125	    0	20.304305	-1.900520	-5.661485	-1.066441	-0.284588	-2.869528	0.202820	-0.022217	-0.056213	0.999882	-0.005332	-0.001423	-0.014347	
65126	    0	10.192609	-3.879369	-3.837916	0.342949	-0.111773	-2.328736	0.101487	-0.039911	-0.038390	0.999930	0.001715	-0.000559	-0.011643	
65127	    0	8.828408	-4.885863	-5.754365	0.709736	-0.368506	-1.780729	0.087952	-0.049438	-0.057556	0.999952	0.003549	-0.001842	-0.008904	
65128	    0	15.127663	-0.178971	-6.670852	1.760339	-0.527968	-1.753473	0.151432	-0.002532	-0.066329	0.999919	0.008801	-0.002640	-0.008767	
65129	    0	20.198303	4.779728	-10.227996	2.975832	-1.036134	-2.093631	0.203003	0.047180	-0.100525	0.999821	0.014878	-0.005180	-0.010468	
65130	    0	18.667545	2.979149	-11.182116	3.302843	-1.306068	-2.627968	0.187784	0.029157	-0.110112	0.999756	0.016513	-0.006530	-0.013139	
65131	    0	14.185981	2.962644	-10.341126	2.743742	-1.517413	-2.945173	0.143066	0.028931	-0.101929	0.999768	0.013718	-0.007586	-0.014725	
65132	    0	14.983860	4.892391	-8.086521	1.635653	-1.370324	-3.210267	0.151153	0.047158	-0.079442	0.999814	0.008178	-0.006851	-0.016050	
65133	    0	18.268863	4.155271	-4.621969	0.882200	-1.291732	-3.400620	0.183655	0.038635	-0.044861	0.999825	0.004411	-0.006458	-0.017002	
65134	    0	18.634568	0.594228	-2.115524	-0.006867	-1.253965	-3.539103	0.186540	0.002642	-0.019986	0.999824	-0.000034	-0.006269	-0.017694	
65135	    0	17.211344	-3.380205	-0.076597	-1.083444	-0.807815	-3.709653	0.171448	-0.036987	0.000122	0.999804	-0.005417	-0.004039	-0.018547	
65136	    0	17.372302	-5.407861	2.572038	-1.994093	-0.428995	-3.740784	0.172618	-0.057052	0.026650	0.999773	-0.009970	-0.002145	-0.018703	
65137	    0	16.423515	-6.433834	3.618952	-2.391812	-0.458563	-3.595253	0.162964	-0.066833	0.037354	0.999763	-0.011958	-0.002293	-0.017975	
65138	    0	14.315565	-5.986135	3.259771	-2.466575	-0.418313	-3.395523	0.142047	-0.061869	0.033650	0.999777	-0.012332	-0.002091	-0.016976	
65139	    0	12.276782	-6.222751	3.986115	-2.318529	-0.391413	-3.116043	0.121704	-0.063660	0.040833	0.999809	-0.011592	-0.001957	-0.015579	
65140	    0	10.572853	-9.623586	4.682749	-1.644203	-0.441188	-2.671735	0.104329	-0.097245	0.047855	0.999874	-0.008221	-0.002206	-0.013358	
65141	    0	9.297663	-15.180286	5.245078	-1.412813	-0.402843	-2.130949	0.091248	-0.152405	0.053711	0.999916	-0.007064	-0.002014	-0.010654	
65142	    0	7.409187	-20.324918	4.505084	-1.911788	-0.372516	-1.688432	0.072289	-0.203421	0.047131	0.999916	-0.009559	-0.001863	-0.008442	
65143	    0	5.406783	-25.178730	3.642199	-2.313870	-0.357066	-1.150545	0.052551	-0.251648	0.039429	0.999914	-0.011569	-0.001785	-0.005753	
65144	    0	4.429745	-30.188742	2.713048	-2.016295	-0.242238	-0.460252	0.043568	-0.301694	0.030226	0.999946	-0.010081	-0.001211	-0.002301	
65145	    0	3.857972	-31.280187	2.858026	-1.176460	0.124551	0.023651	0.038635	-0.312622	0.030396	0.999982	-0.005882	0.000623	0.000118	
65146	    0	3.198650	-25.966179	3.402691	-0.117684	0.506783	0.366021	0.032548	-0.259583	0.034098	0.999994	-0.000588	0.002534	0.001830	
65147	    0	1.959038	-17.084786	4.727294	0.664714	0.741581	0.441744	0.020142	-0.170959	0.046631	0.999985	0.003324	0.003708	0.002209	
65148	    0	1.576368	-9.893936	6.231051	0.621608	0.776676	0.506213	0.016255	-0.099092	0.061940	0.999984	0.003108	0.003883	0.002531	
65149	    0	3.423889	-4.241206	6.659491	0.228883	0.811963	0.751499	0.034668	-0.042358	0.066406	0.999984	0.001144	0.004060	0.003757	
65150	    0	6.607927	-1.020045	4.968614	-0.212290	0.926026	1.087580	0.066362	-0.009788	0.049390	0.999973	-0.001061	0.004630	0.005438	
65151	    0	7.970891	0.082133	2.984431	-0.859844	0.899708	1.293963	0.079834	0.001465	0.029480	0.999959	-0.004299	0.004498	0.006470	
65152	    0	8.277648	0.695440	0.689903	-1.476315	0.710500	1.304841	0.082752	0.007544	0.006551	0.999945	-0.007381	0.003552	0.006524	
65153	    0	9.410729	0.464727	-3.293458	-1.668391	0.484476	1.348141	0.093994	0.005005	-0.033203	0.999939	-0.008342	0.002422	0.006741	
65154	    0	12.375433	0.647365	-5.732534	-1.334787	0.317770	1.558141	0.123610	0.007053	-0.057568	0.999946	-0.006674	0.001589	0.007791	
65155	    0	18.295964	-0.932045	-5.054976	-0.604067	0.213627	1.882203	0.182983	-0.007751	-0.050720	0.999950	-0.003020	0.001068	0.009411	
65156	    0	25.435763	-5.364598	-5.188905	0.094034	0.015641	2.249384	0.254935	-0.050756	-0.051933	0.999936	0.000470	0.000078	0.011247	
65157	    0	27.239193	-7.965024	-5.896944	0.437177	0.048257	2.587202	0.273376	-0.075989	-0.059204	0.999913	0.002186	0.000241	0.012936	
65158	    0	23.936049	-7.739329	-5.648015	0.983658	0.185974	2.900428	0.240394	-0.073632	-0.057072	0.999882	0.004918	0.000930	0.014502	
65159	    0	18.352064	-4.902942	-4.816121	1.811508	0.197612	3.124407	0.184204	-0.045715	-0.048767	0.999836	0.009057	0.000988	0.015621	
65160	    0	15.608628	-1.154894	-6.341483	2.306889	-0.111968	3.072928	0.156267	-0.008417	-0.063437	0.999815	0.011534	-0.000560	0.015364	
65161	    0	17.992743	3.390331	-10.288153	2.165539	-0.485258	3.013787	0.179626	0.037720	-0.102051	0.999825	0.010827	-0.002426	0.015068	
65162	    0	23.648675	8.564834	-14.574129	1.540645	-0.573569	3.106468	0.235522	0.090427	-0.144381	0.999846	0.007703	-0.002868	0.015532	
65163	    0	26.670335	13.180833	-15.781979	0.917864	-0.301186	3.387626	0.264648	0.137024	-0.156799	0.999845	0.004589	-0.001506	0.016937	
65164	    0	23.710919	14.708591	-13.639569	0.329990	0.015832	3.706383	0.234316	0.151670	-0.136167	0.999826	0.001650	0.000079	0.018531	
65165	    0	19.846141	14.475564	-10.213503	-0.199712	0.137338	3.850794	0.195557	0.148438	-0.102417	0.999813	-0.000998	0.000687	0.019253	
65166	    0	16.886396	12.741251	-7.396829	-0.432421	0.034525	3.734236	0.166435	0.130375	-0.074277	0.999823	-0.002162	0.000173	0.018670	
65167	    0	14.227863	10.442889	-6.005779	-0.390644	-0.032617	3.370828	0.140503	0.106689	-0.060242	0.999856	-0.001953	-0.000163	0.016853	
65168	    0	11.825868	9.237674	-4.970050	-0.089458	0.052645	2.954209	0.116864	0.094088	-0.049773	0.999890	-0.000447	0.000263	0.014771	
65169	    0	10.156314	9.082320	-3.893634	0.318155	0.297745	2.536844	0.100342	0.092163	-0.038940	0.999917	0.001591	0.001489	0.012684	
65170	    0	9.455376	9.952292	-2.407936	0.686661	0.514233	2.151919	0.093413	0.100615	-0.023976	0.999932	0.003433	0.002571	0.010759	
65171	    0	9.017683	11.035684	-1.607799	0.953882	0.579081	1.728088	0.089172	0.111206	-0.015808	0.999947	0.004769	0.002895	0.008640	
65172	    0	7.432548	13.992345	-3.194132	0.691231	0.644501	1.400583	0.073240	0.140549	-0.031693	0.999964	0.003456	0.003222	0.007003	
65173	    0	3.816629	18.292290	-2.340991	0.360874	0.611312	1.409927	0.036804	0.183228	-0.023193	0.999969	0.001804	0.003057	0.007050	
65174	    0	-0.133396	16.819988	0.367630	0.748838	0.556955	1.812585	-0.002847	0.168163	0.004313	0.999948	0.003744	0.002785	0.009063	
65175	    0	-0.957987	9.536345	6.488244	1.635216	0.298318	2.011165	-0.010437	0.094727	0.065674	0.999914	0.008176	0.001492	0.010056	
65176	    0	-0.253491	4.232984	5.987518	1.398304	-0.260549	1.605828	-0.002951	0.041887	0.060165	0.999942	0.006991	-0.001303	0.008029	
65177	    0	-0.104581	2.898805	2.086534	0.502207	-0.511935	0.838475	-0.001221	0.028931	0.020935	0.999985	0.002511	-0.002560	0.004192	
65178	    0	0.765462	1.607982	-0.487779	0.360681	-0.753977	-0.076103	0.007679	0.016086	-0.004820	0.999990	0.001803	-0.003770	-0.000381	
65179	    0	0.821784	0.499375	-4.051374	-0.712405	-1.536581	-0.658426	0.008545	0.004822	-0.040466	0.999958	-0.003562	-0.007683	-0.003292	
65180	    0	0.537201	-5.727752	1.246548	-0.604646	-2.408473	-0.448239	0.005092	-0.057251	0.012701	0.999920	-0.003023	-0.012042	-0.002241	
65181	    0	4.478418	-16.252091	0.509753	1.402507	-1.950120	0.074770	0.044800	-0.162537	0.004395	0.999928	0.007012	-0.009750	0.000374	
65182	    0	6.480858	-20.227826	-3.226904	1.409545	-0.234225	0.669105	0.065523	-0.201826	-0.033616	0.999969	0.007048	-0.001171	0.003345	
65183	    0	4.036668	-15.277569	-4.043344	1.422337	1.437405	0.680555	0.040588	-0.152344	-0.041809	0.999943	0.007112	0.007187	0.003403	
65184	    0	1.290859	-10.522300	1.602903	2.159200	2.053719	0.336660	0.013242	-0.105365	0.014757	0.999887	0.010796	0.010268	0.001683	
65185	    0	1.420529	-8.085687	5.584494	1.962524	1.611372	-0.305184	0.014526	-0.081421	0.054932	0.999918	0.009812	0.008057	-0.001526	
65186	    0	1.839861	-1.791314	2.768991	1.823658	1.369698	-0.513851	0.018540	-0.018211	0.027398	0.999931	0.009118	0.006848	-0.002569	
65187	    0	0.664970	3.503409	1.436649	3.029797	1.855760	-0.637089	0.006897	0.034790	0.014832	0.999837	0.015148	0.009278	-0.003185	
65188	    0	-3.248231	11.116035	7.166771	1.558350	1.538704	-1.526687	-0.031078	0.110837	0.072775	0.999910	0.007792	0.007693	-0.007633	
65189	    0	3.821443	15.450342	2.100396	-1.773873	0.528156	-1.345855	0.039307	0.154419	0.019531	0.999934	-0.008869	0.002641	-0.006729	
65190	    0	29.920510	-3.657396	-9.673715	-3.085085	-0.454733	1.071788	0.299619	-0.036448	-0.095493	0.999864	-0.015425	-0.002274	0.005359	
65191	    0	50.906097	-38.961063	-17.927097	-0.417147	-1.357301	1.892134	0.513916	-0.385132	-0.174988	0.999929	-0.002086	-0.006786	0.009460	
65192	    0	21.340139	-39.070045	-7.156393	-1.512175	-1.487569	-0.246243	0.213429	-0.391481	-0.067019	0.999943	-0.007561	-0.007438	-0.001231	
65193	    0	-4.753647	4.188772	2.574690	-1.980649	-0.507942	-1.699879	-0.047241	0.042542	0.025208	0.999911	-0.009903	-0.002540	-0.008499	
65194	    0	-7.453868	38.413852	2.315040	-0.615510	-0.691042	-1.574157	-0.071589	0.384778	0.021716	0.999958	-0.003078	-0.003455	-0.007871	
65195	    0	-1.128834	44.419391	-7.486020	-0.986296	0.440219	-0.569156	-0.010193	0.443848	-0.077026	0.999981	-0.004931	0.002201	-0.002846	
65196	    0	19.032466	21.855548	-1.327392	-2.167943	0.443087	-0.857183	0.191225	0.217573	-0.016059	0.999929	-0.010839	0.002215	-0.004286	
65197	    0	27.426681	6.230691	-2.358489	-2.846510	-1.039187	-2.328633	0.275085	0.058777	-0.023010	0.999817	-0.014232	-0.005196	-0.011642	
65198	    0	22.039552	-0.486693	-4.271168	-2.051469	-0.973375	-2.895137	0.220494	-0.008489	-0.041564	0.999830	-0.010257	-0.004867	-0.014475	
65199	    0	11.767128	-0.186049	-3.256505	-0.507369	-0.251586	-2.507088	0.117676	-0.003418	-0.032410	0.999917	-0.002537	-0.001258	-0.012535	
65200	    0	6.651789	-1.235582	-4.769781	0.090219	0.057984	-1.790261	0.066390	-0.012929	-0.047723	0.999959	0.000451	0.000290	-0.008951	
65201	    0	12.569005	-2.337902	-4.643952	0.594525	-0.002289	-1.187905	0.125549	-0.023987	-0.046509	0.999977	0.002973	-0.000011	-0.005939	
65202	    0	20.491892	2.028838	-7.556318	1.977967	-0.469600	-1.244002	0.205219	0.019755	-0.074884	0.999928	0.009890	-0.002348	-0.006220	
65203	    0	21.603016	2.258737	-12.241645	2.787167	-1.215237	-1.902873	0.216980	0.022217	-0.120789	0.999839	0.013935	-0.006076	-0.009514	
65204	    0	16.286154	0.295416	-12.020613	2.911208	-1.409061	-2.650454	0.163738	0.002526	-0.119016	0.999781	0.014555	-0.007045	-0.013251	
65205	    0	11.983976	1.781196	-10.693032	2.545545	-1.648834	-2.931431	0.120972	0.017395	-0.105713	0.999777	0.012727	-0.008244	-0.014656	
65206	    0	14.560142	2.591858	-8.346248	1.758301	-1.522920	-3.026192	0.146607	0.024431	-0.082129	0.999818	0.008791	-0.007614	-0.015130	
65207	    0	18.660439	0.906995	-5.642097	1.307187	-1.477142	-3.299916	0.187134	0.006348	-0.054993	0.999815	0.006536	-0.007385	-0.016499	
65208	    0	17.423404	-1.490449	-4.281159	0.480680	-1.282768	-3.501717	0.174209	-0.017854	-0.041735	0.999823	0.002403	-0.006413	-0.017508	
65209	    0	15.313982	-1.900646	-1.927294	-0.623359	-0.774239	-3.642489	0.152832	-0.021851	-0.018616	0.999822	-0.003117	-0.003871	-0.018211	
65210	    0	15.538077	-0.848432	1.331356	-1.551732	-0.429755	-3.677424	0.155162	-0.011233	0.013727	0.999798	-0.007758	-0.002149	-0.018386	
65211	    0	15.147728	-0.511588	4.293145	-2.018882	-0.525512	-3.576153	0.151245	-0.007385	0.043396	0.999785	-0.010094	-0.002627	-0.017879	
65212	    0	14.091947	-1.143351	5.071189	-2.063701	-0.681351	-3.415913	0.140529	-0.013309	0.051322	0.999795	-0.010318	-0.003407	-0.017078	
65213	    0	12.807925	-3.695637	5.764814	-1.942372	-0.713392	-3.232010	0.127258	-0.038452	0.058472	0.999815	-0.009711	-0.003567	-0.016159	
65214	    0	11.161785	-7.949275	5.866029	-1.474451	-0.821344	-2.934405	0.110196	-0.080679	0.059707	0.999856	-0.007372	-0.004107	-0.014671	
65215	    0	9.241793	-14.163772	4.209358	-1.082650	-0.900873	-2.575013	0.090393	-0.142578	0.043274	0.999892	-0.005413	-0.004504	-0.012875	
65216	    0	6.648597	-21.862996	3.232186	-1.439331	-0.873784	-2.172538	0.063961	-0.219092	0.034181	0.999905	-0.007196	-0.004369	-0.010862	
65217	    0	3.619152	-28.726942	3.218167	-1.891381	-0.787948	-1.647234	0.033691	-0.287231	0.035034	0.999913	-0.009457	-0.003940	-0.008236	
65218	    0	2.234785	-32.569418	3.931981	-1.684408	-0.453003	-1.013392	0.020605	-0.325455	0.042109	0.999949	-0.008422	-0.002265	-0.005067	
65219	    0	2.479779	-29.808606	4.477051	-0.959591	-0.028229	-0.376131	0.024231	-0.297913	0.046204	0.999987	-0.004798	-0.000141	-0.001881	
65220	    0	3.104322	-23.190340	6.165608	-0.378228	0.358201	0.216866	0.031405	-0.231752	0.062038	0.999995	-0.001891	0.001791	0.001084	
65221	    0	3.170511	-16.026627	6.392343	0.202180	0.631907	0.704196	0.032471	-0.160217	0.063660	0.999988	0.001011	0.003160	0.003521	
65222	    0	2.698359	-11.110554	5.962709	0.610165	0.791365	0.891501	0.027714	-0.111164	0.059179	0.999977	0.003051	0.003957	0.004457	
65223	    0	2.593220	-7.950002	6.062466	0.211526	0.880437	0.731663	0.026489	-0.079468	0.060425	0.999983	0.001058	0.004402	0.003658	
65224	    0	4.875193	-4.326925	6.551135	-0.635724	0.979622	0.699621	0.049223	-0.042890	0.065408	0.999976	-0.003179	0.004898	0.003498	
65225	    0	7.224986	-0.895240	5.530513	-1.380752	1.023881	0.917068	0.072571	-0.008240	0.054993	0.999952	-0.006904	0.005119	0.004585	
65226	    0	8.388039	0.926524	2.637707	-1.597628	0.933476	1.223589	0.083942	0.009987	0.025908	0.999938	-0.007988	0.004667	0.006118	
65227	    0	8.104452	0.460160	-0.410541	-1.810308	0.753802	1.393924	0.080994	0.005127	-0.004456	0.999928	-0.009051	0.003769	0.006969	
65228	    0	9.313222	0.738752	-4.353646	-1.737440	0.504314	1.328687	0.092972	0.007626	-0.043837	0.999936	-0.008687	0.002522	0.006643	
65229	    0	14.588836	1.339718	-6.295080	-1.272410	0.350194	1.263445	0.145691	0.013916	-0.063293	0.999958	-0.006362	0.001751	0.006317	
65230	    0	24.125996	0.523684	-5.849255	-0.732813	0.191119	1.577779	0.241154	0.006925	-0.058746	0.999961	-0.003664	0.000956	0.007889	
65231	    0	31.662473	-3.040854	-5.824242	-0.401124	-0.089266	2.162214	0.316956	-0.027100	-0.058044	0.999939	-0.002006	-0.000446	0.010811	
65232	    0	30.131277	-6.133799	-7.549588	0.084307	-0.135235	2.753536	0.302170	-0.057150	-0.075316	0.999905	0.000422	-0.000676	0.013767	
65233	    0	23.482266	-6.311584	-6.049095	1.174985	0.057414	3.226630	0.235779	-0.058960	-0.060913	0.999852	0.005875	0.000287	0.016132	
65234	    0	17.144240	-5.265006	-5.568553	2.185005	0.008965	3.209888	0.172249	-0.049277	-0.056244	0.999811	0.010924	0.000045	0.016048	
65235	    0	16.693225	-1.285333	-8.256399	2.414091	-0.205053	3.014562	0.167175	-0.009338	-0.082520	0.999812	0.012070	-0.001025	0.015072	
65236	    0	22.543838	6.112388	-11.548796	2.070931	-0.314731	3.133196	0.224612	0.065836	-0.114469	0.999822	0.010354	-0.001574	0.015665	
65237	    0	27.409211	13.479559	-14.383707	1.596926	-0.156221	3.394517	0.271851	0.140564	-0.142517	0.999824	0.007984	-0.000781	0.016972	
65238	    0	24.222636	16.553585	-13.435330	0.895743	0.312442	3.612919	0.238967	0.170473	-0.133972	0.999825	0.004478	0.001562	0.018064	
65239	    0	18.843466	16.183935	-9.336345	0.033762	0.510437	3.747019	0.185120	0.165344	-0.093811	0.999821	0.000169	0.002552	0.018734	
65240	    0	15.593663	14.135439	-6.219918	-0.568423	0.278298	3.668806	0.153224	0.144004	-0.062820	0.999826	-0.002842	0.001391	0.018343	
65241	    0	13.241741	11.239465	-5.372421	-0.792541	0.037386	3.260193	0.130554	0.114319	-0.054199	0.999859	-0.003963	0.000187	0.016300	
65242	    0	11.307344	9.377582	-4.720733	-0.596066	0.075724	2.747436	0.111754	0.095176	-0.047532	0.999901	-0.002980	0.000379	0.013737	
65243	    0	9.683777	8.886131	-3.936525	-0.199132	0.327499	2.253009	0.095764	0.089905	-0.039612	0.999934	-0.000996	0.001637	0.011265	
65244	    0	8.944071	9.670548	-2.776073	0.166895	0.633249	1.768711	0.088492	0.097514	-0.027961	0.999955	0.000834	0.003166	0.008843	
65245	    0	8.373381	11.093755	-2.153110	0.448041	0.780495	1.262677	0.082947	0.111511	-0.021606	0.999969	0.002240	0.003902	0.006313	
65246	    0	6.315347	13.921325	-2.581868	0.371364	0.906188	0.922591	0.062393	0.139550	-0.025844	0.999977	0.001857	0.004531	0.004613	
65247	    0	2.805828	17.943543	-1.934153	0.038910	0.747113	0.919347	0.027161	0.179565	-0.019409	0.999982	0.000195	0.003736	0.004597	
65248	    0	-0.690272	17.085015	0.132568	0.411610	0.555997	1.320470	-0.008026	0.170796	0.001698	0.999971	0.002058	0.002780	0.006602	
65249	    0	-0.863290	10.212879	5.212469	1.176663	0.225834	1.621274	-0.009399	0.101746	0.052734	0.999949	0.005883	0.001129	0.008106	
65250	    0	0.985047	3.811986	7.377718	1.288626	-0.465401	1.418709	0.009410	0.037711	0.074043	0.999951	0.006443	-0.002327	0.007093	
65251	    0	1.970062	1.629795	2.413401	0.139619	-0.873380	0.779729	0.019531	0.016357	0.024231	0.999982	0.000698	-0.004367	0.003899	
65252	    0	2.671489	0.431690	0.513736	-0.215150	-0.906948	-0.053406	0.026692	0.004315	0.005254	0.999989	-0.001076	-0.004535	-0.000267	
65253	    0	2.126270	-2.257298	-4.090997	-1.135270	-1.228159	-0.785839	0.021423	-0.022888	-0.040649	0.999957	-0.005676	-0.006141	-0.003929	
65254	    0	0.219126	-4.536773	-3.166946	-1.753666	-1.767781	-0.747892	0.002298	-0.045651	-0.031250	0.999915	-0.008768	-0.008839	-0.003739	
65255	    0	2.439270	-13.125331	0.296338	0.528723	-1.575298	-0.212100	0.024231	-0.131287	0.002808	0.999965	0.002644	-0.007876	-0.001060	
65256	    0	5.784951	-21.043593	-1.216073	1.847486	-0.267224	0.322537	0.058207	-0.210218	-0.014026	0.999954	0.009237	-0.001336	0.001613	
65257	    0	6.158350	-20.504445	-3.923946	1.218618	0.920115	0.479894	0.061890	-0.204651	-0.040771	0.999968	0.006093	0.004601	0.002399	
65258	    0	4.906301	-13.158926	-1.877816	2.056945	1.641512	0.350390	0.049129	-0.131298	-0.020533	0.999911	0.010284	0.008207	0.001752	
65259	    0	2.984992	-9.867457	3.705810	2.698061	1.738814	-0.146491	0.030090	-0.099182	0.035461	0.999870	0.013490	0.008694	-0.000732	
65260	    0	2.158767	-4.719643	4.973242	1.456096	1.402117	-0.516138	0.021811	-0.047612	0.049234	0.999945	0.007280	0.007010	-0.002581	
65261	    0	1.920786	2.825688	2.406955	0.687605	1.226055	-0.382236	0.019409	0.028137	0.024048	0.999973	0.003438	0.006130	-0.001911	
65262	    0	3.546326	3.721671	-2.391140	2.498521	1.397944	-0.037004	0.035304	0.037507	-0.023691	0.999897	0.012492	0.006989	-0.000185	
65263	    0	1.197131	2.888669	3.395767	2.335449	1.825976	-0.751525	0.012390	0.028442	0.034180	0.999883	0.011677	0.009130	-0.003757	
65264	    0	6.433636	6.537878	1.475641	-2.170800	0.297171	-0.625433	0.064562	0.065331	0.013951	0.999934	-0.010854	0.001486	-0.003127	
65265	    0	30.782291	-14.560924	-13.330406	-1.959085	-0.662247	1.217681	0.309143	-0.145020	-0.130859	0.999928	-0.009795	-0.003311	0.006088	
65266	    0	36.625953	-34.030305	-10.217155	-0.027466	-0.785832	0.788121	0.367994	-0.338869	-0.100681	0.999984	-0.000137	-0.003929	0.003941	
65267	    0	10.165739	-11.727553	-5.185760	-1.302359	-1.330398	-0.736249	0.101562	-0.117981	-0.050415	0.999949	-0.006512	-0.006652	-0.003681	
65268	    0	-6.433792	17.932884	1.576954	-1.136801	-0.882166	-1.579315	-0.062984	0.179914	0.014468	0.999943	-0.005684	-0.004411	-0.007896	
65269	    0	-7.309809	36.687271	-0.509184	-0.716407	-0.175287	-1.281750	-0.070740	0.367310	-0.006470	0.999972	-0.003582	-0.000876	-0.006409	
65270	    0	3.657119	36.160417	-5.947767	-2.073905	0.665107	-0.664344	0.037564	0.360837	-0.063346	0.999935	-0.010369	0.003325	-0.003322	
65271	    0	19.626623	16.823732	-1.865477	-2.887094	0.177201	-1.583934	0.197571	0.166382	-0.021240	0.999864	-0.014435	0.000886	-0.007919	
65272	    0	24.234206	4.650657	-3.563193	-2.893451	-0.873243	-2.633843	0.243076	0.042797	-0.035209	0.999799	-0.014466	-0.004366	-0.013168	
65273	    0	20.174119	-0.644030	-3.540433	-1.114507	-0.562308	-2.800860	0.201721	-0.009460	-0.034790	0.999882	-0.005572	-0.002811	-0.014004	
65274	    0	11.868990	-3.313956	-2.281570	0.172237	-0.186352	-2.290204	0.118321	-0.034476	-0.022735	0.999933	0.000861	-0.000932	-0.011451	
65275	    0	9.920437	-2.687861	-4.603696	0.321392	-0.122072	-1.704428	0.098999	-0.027649	-0.046021	0.999962	0.001607	-0.000610	-0.008522	
65276	    0	15.911519	0.187840	-6.530258	0.906385	-0.126840	-1.579116	0.159166	0.000917	-0.065196	0.999958	0.004532	-0.000634	-0.007895	
65277	    0	20.351507	3.996853	-10.502309	1.932781	-0.746180	-1.935642	0.204285	0.039001	-0.103882	0.999899	0.009664	-0.003731	-0.009678	
65278	    0	19.051925	2.208697	-13.184458	2.320416	-1.088202	-2.546449	0.191505	0.021173	-0.130555	0.999836	0.011601	-0.005441	-0.012732	
65279	    0	14.609793	0.892830	-12.710919	1.909749	-1.187013	-3.001580	0.146973	0.007935	-0.126160	0.999824	0.009548	-0.005935	-0.015007	
65280	    0	13.941812	2.595624	-12.372049	1.199410	-1.278188	-3.284644	0.140614	0.024391	-0.122675	0.999826	0.005997	-0.006391	-0.016422	
65281	    0	18.140774	2.254364	-9.610865	0.432040	-1.134557	-3.536430	0.182312	0.019531	-0.095032	0.999825	0.002160	-0.005672	-0.017681	
65282	    0	19.867295	-0.700269	-5.992256	-0.085645	-1.088211	-3.727384	0.198818	-0.010733	-0.058837	0.999811	-0.000428	-0.005441	-0.018636	
65283	    0	18.227596	-4.965339	-1.535664	-0.701952	-0.914636	-3.872944	0.181335	-0.053223	-0.014343	0.999795	-0.003510	-0.004573	-0.019363	
65284	    0	16.825131	-6.832093	2.427616	-1.027753	-0.800572	-3.936096	0.166765	-0.071485	0.025308	0.999784	-0.005138	-0.004003	-0.019679	
65285	    0	15.528882	-7.233040	3.360467	-1.138383	-0.752119	-3.808854	0.153748	-0.075073	0.034607	0.999795	-0.005692	-0.003760	-0.019043	
65286	    0	14.021103	-6.377809	3.392855	-1.074093	-0.668566	-3.585841	0.138925	-0.066092	0.034745	0.999819	-0.005370	-0.003343	-0.017928	
65287	    0	12.631269	-5.490549	3.689010	-1.017625	-0.671422	-3.357112	0.125244	-0.056824	0.037598	0.999840	-0.005088	-0.003357	-0.016785	
65288	    0	10.955333	-6.649367	4.492202	-0.773273	-0.712426	-3.062382	0.108358	-0.067984	0.045570	0.999868	-0.003866	-0.003562	-0.015311	
65289	    0	9.403010	-8.847723	4.873347	-0.377667	-0.627728	-2.608570	0.092712	-0.089600	0.049194	0.999907	-0.001888	-0.003139	-0.013042	
65290	    0	9.012008	-12.338156	4.153625	-0.515567	-0.483523	-2.161263	0.088679	-0.124237	0.042071	0.999935	-0.002578	-0.002418	-0.010806	
65291	    0	8.496816	-17.321542	4.008219	-1.045819	-0.352485	-1.824223	0.083313	-0.173767	0.041138	0.999943	-0.005229	-0.001762	-0.009121	
65292	    0	6.673399	-21.365514	3.470871	-1.519231	-0.251012	-1.395823	0.065197	-0.213841	0.036415	0.999946	-0.007596	-0.001255	-0.006979	
65293	    0	4.957418	-24.350803	2.688166	-1.639389	-0.217441	-0.788127	0.048584	-0.243469	0.028931	0.999958	-0.008197	-0.001087	-0.003941	
65294	    0	3.396883	-25.539831	2.119328	-1.415837	-0.152398	-0.259211	0.033621	-0.255283	0.023026	0.999973	-0.007079	-0.000762	-0.001296	
65295	    0	2.268659	-23.339203	2.468128	-0.716211	0.035858	0.221253	0.022949	-0.233276	0.025513	0.999992	-0.003581	0.000179	0.001106	
65296	    0	2.392113	-18.440557	3.304568	0.283051	0.315667	0.619127	0.024544	-0.184377	0.032746	0.999992	0.001415	0.001578	0.003096	
65297	    0	2.499449	-11.802114	5.089691	0.698284	0.548557	0.746159	0.025574	-0.118103	0.050415	0.999983	0.003491	0.002743	0.003731	
65298	    0	2.903200	-5.590524	7.507462	0.482562	0.714115	0.737194	0.029506	-0.055978	0.074835	0.999984	0.002413	0.003571	0.003686	
65299	    0	4.589034	-0.711777	5.877995	0.317575	0.759892	0.833135	0.046143	-0.007019	0.058594	0.999983	0.001588	0.003799	0.004166	
65300	    0	7.020332	1.565795	2.459078	0.018692	0.700574	1.070030	0.070204	0.016031	0.024346	0.999979	0.000093	0.003503	0.005350	
65301	    0	9.807941	0.878867	0.031573	-0.700958	0.578314	1.245130	0.098022	0.009399	0.000000	0.999969	-0.003505	0.002892	0.006226	
65302	    0	13.509348	1.634215	-3.135332	-0.915346	0.384335	1.249899	0.134928	0.017041	-0.031690	0.999968	-0.004577	0.001922	0.006249	
65303	    0	19.622320	1.636978	-4.648634	-0.811586	0.263217	1.363387	0.196045	0.017517	-0.046814	0.999968	-0.004058	0.001316	0.006817	
65304	    0	27.198088	-0.250690	-3.728635	-0.732624	0.100328	1.822120	0.271971	-0.000166	-0.037419	0.999951	-0.003663	0.000502	0.009110	
65305	    0	28.608185	-4.197450	-4.013757	-0.734539	-0.051881	2.349150	0.286560	-0.038757	-0.039917	0.999924	-0.003673	-0.000259	0.011745	
65306	    0	24.553256	-5.914259	-3.440789	-0.295267	0.154882	2.773566	0.246295	-0.055781	-0.034514	0.999902	-0.001476	0.000774	0.013867	
65307	    0	18.314557	-5.572468	-2.563461	0.557924	0.302137	3.177019	0.183960	-0.052734	-0.026062	0.999868	0.002789	0.001511	0.015884	
65308	    0	15.554164	-3.309833	-3.013532	1.665969	0.213825	3.201850	0.156010	-0.030350	-0.030562	0.999836	0.008329	0.001069	0.016008	
65309	    0	17.660821	0.596393	-6.445139	2.097445	-0.107390	3.127474	0.176514	0.009399	-0.064270	0.999822	0.010487	-0.000537	0.015636	
65310	    0	23.657722	6.394572	-10.788116	1.904596	-0.344678	3.151692	0.235704	0.068686	-0.106835	0.999828	0.009522	-0.001723	0.015758	
65311	    0	29.804639	13.064857	-14.904552	1.412281	-0.344677	3.386880	0.296021	0.136719	-0.147583	0.999829	0.007061	-0.001723	0.016933	
65312	    0	28.928330	16.966401	-14.794993	0.703666	0.170909	3.867208	0.285798	0.175733	-0.147584	0.999806	0.003518	0.000854	0.019335	
65313	    0	22.956909	17.107323	-10.842122	-0.142490	0.677542	4.218613	0.225525	0.175781	-0.109314	0.999771	-0.000712	0.003387	0.021091	
65314	    0	18.759211	15.382649	-7.209279	-0.705011	0.659612	4.211753	0.184061	0.157471	-0.073255	0.999766	-0.003525	0.003298	0.021057	
65315	    0	15.507545	12.583644	-5.419257	-0.869619	0.399044	3.916433	0.152466	0.128601	-0.055054	0.999796	-0.004348	0.001995	0.019581	
65316	    0	12.503635	10.373348	-4.704061	-0.775952	0.229467	3.521920	0.123132	0.105729	-0.047590	0.999836	-0.003880	0.001147	0.017609	
65317	    0	9.716951	10.156951	-4.728632	-0.531601	0.355545	3.172441	0.095459	0.102966	-0.047729	0.999868	-0.002658	0.001778	0.015862	
65318	    0	8.105614	11.759244	-4.078970	-0.123982	0.697351	2.784825	0.079266	0.118679	-0.041142	0.999896	-0.000620	0.003487	0.013924	
65319	    0	7.804234	12.892119	-3.222853	0.281722	0.785846	2.220969	0.076477	0.129822	-0.032349	0.999929	0.001409	0.003929	0.011105	
65320	    0	6.780227	15.350102	-4.803879	0.044633	0.795567	1.679254	0.066319	0.154073	-0.048270	0.999956	0.000223	0.003978	0.008396	
65321	    0	2.542326	21.273943	-5.530852	-0.606355	0.635538	1.642632	0.023499	0.212769	-0.056030	0.999956	-0.003032	0.003178	0.008213	
65322	    0	-2.350511	21.552665	-3.435097	-0.680747	0.615896	2.076575	-0.025847	0.215148	-0.035007	0.999935	-0.003404	0.003079	0.010383	
65323	    0	-4.669681	12.847524	5.986001	0.557723	0.360307	2.355253	-0.048096	0.127747	0.060303	0.999925	0.002789	0.001801	0.011776	
65324	    0	-4.616361	4.702424	7.410168	0.645459	-0.653661	1.966324	-0.046864	0.046327	0.074100	0.999941	0.003227	-0.003268	0.009831	
65325	    0	-4.016757	2.311225	2.451518	-0.270847	-1.254099	1.273363	-0.040466	0.022888	0.024231	0.999959	-0.001354	-0.006270	0.006367	
65326	    0	-1.698990	-0.078426	-0.333089	-0.339130	-1.457991	0.264933	-0.016964	-0.000813	-0.003453	0.999970	-0.001696	-0.007290	0.001325	
65327	    0	-1.460006	-1.200356	-5.255207	-1.344142	-1.995899	-0.391398	-0.014099	-0.012329	-0.052612	0.999926	-0.006721	-0.009979	-0.001957	
65328	    0	-2.311399	-5.704660	-2.133823	-0.995661	-2.223452	-0.306519	-0.022964	-0.057117	-0.021310	0.999924	-0.004978	-0.011117	-0.001533	
65329	    0	0.735673	-14.894186	1.821966	1.903002	-1.221492	-0.065614	0.007202	-0.149109	0.016846	0.999935	0.009515	-0.006107	-0.000328	
65330	    0	4.059905	-22.339868	1.134216	2.509570	0.702115	0.163274	0.040814	-0.223483	0.008395	0.999914	0.012547	0.003510	0.000816	
65331	    0	6.085243	-19.842717	-3.246564	2.045504	1.784761	0.061037	0.060608	-0.198059	-0.035034	0.999907	0.010227	0.008924	0.000305	
65332	    0	7.071023	-15.053265	1.876275	2.867456	1.838391	0.031854	0.070889	-0.150764	0.015951	0.999854	0.014337	0.009192	0.000159	
65333	    0	4.397289	-10.752397	7.320436	2.333911	1.574951	-0.424209	0.044312	-0.108459	0.071594	0.999898	0.011669	0.007874	-0.002121	
65334	    0	0.938116	-1.509766	5.791110	0.912677	1.175894	-0.802431	0.009660	-0.015400	0.057785	0.999964	0.004563	0.005879	-0.004012	
65335	    0	-0.533098	6.845661	0.776411	1.313990	1.010145	-0.655374	-0.005066	0.068420	0.008240	0.999960	0.006570	0.005051	-0.003277	
65336	    0	-0.314773	6.676870	-3.351014	2.832925	1.597097	-0.715861	-0.003170	0.067245	-0.032535	0.999861	0.014164	0.007985	-0.003579	
65337	    0	3.234941	8.717440	2.666298	0.535594	1.733623	-1.151298	0.033081	0.086914	0.026611	0.999942	0.002678	0.008668	-0.005756	
65338	    0	26.240389	-0.801594	-3.322852	-2.938570	-0.081256	0.494212	0.262437	-0.007854	-0.033006	0.999888	-0.014692	-0.000406	0.002471	
65339	    0	51.774530	-40.056591	-17.682333	-0.444041	-1.537169	1.761669	0.522583	-0.396362	-0.171936	0.999928	-0.002220	-0.007686	0.008808	
65340	    0	24.450139	-42.387322	-1.683706	-1.061641	-1.132404	0.098611	0.244792	-0.423829	-0.013202	0.999969	-0.005308	-0.005662	0.000493	
65341	    0	-5.604428	3.436922	0.339356	-0.965133	-1.061837	-1.233692	-0.055847	0.034729	0.002930	0.999955	-0.004826	-0.005309	-0.006168	
65342	    0	-10.034863	42.115361	1.642688	0.361637	-0.537878	-1.474969	-0.097284	0.421848	0.016925	0.999967	0.001808	-0.002689	-0.007375	
65343	    0	-1.752330	55.257840	-9.478763	-1.277745	0.583654	-0.524907	-0.016357	0.552002	-0.098267	0.999971	-0.006389	0.002918	-0.002625	
65344	    0	19.504602	32.937455	-4.878184	-2.624983	0.491159	-1.030957	0.196610	0.327682	-0.053572	0.999897	-0.013124	0.002456	-0.005155	
65345	    0	29.619438	9.813937	-4.621482	-3.824782	-1.107129	-2.562953	0.297668	0.093445	-0.046387	0.999720	-0.019122	-0.005535	-0.012814	
65346	    0	27.606233	-2.251609	-6.606446	-2.589205	-0.964419	-2.848431	0.276010	-0.027288	-0.064401	0.999803	-0.012945	-0.004822	-0.014241	
65347	    0	15.846964	-4.950066	-3.610550	-0.701730	0.028229	-2.232412	0.157898	-0.051392	-0.035950	0.999931	-0.003509	0.000141	-0.011162	
65348	    0	7.470404	-5.525995	-4.091404	0.076295	0.085260	-1.687642	0.074217	-0.055872	-0.040967	0.999964	0.000381	0.000426	-0.008438	
65349	    0	12.425927	-0.383097	-5.146887	1.083581	-0.161746	-1.551842	0.124268	-0.004517	-0.051392	0.999954	0.005418	-0.000809	-0.007759	
65350	    0	20.293321	5.254447	-8.757883	2.579413	-0.684957	-1.652022	0.203661	0.051982	-0.086209	0.999876	0.012897	-0.003425	-0.008260	
65351	    0	21.666730	3.620736	-12.882645	3.205323	-1.247299	-2.060838	0.217834	0.036011	-0.126892	0.999799	0.016026	-0.006236	-0.010303	
65352	    0	15.390996	1.203431	-12.214723	3.008305	-1.428711	-2.631576	0.154933	0.011825	-0.120864	0.999774	0.015040	-0.007143	-0.013157	
65353	    0	11.094717	2.231827	-10.551958	2.317971	-1.492223	-3.012294	0.112061	0.021851	-0.104431	0.999791	0.011589	-0.007461	-0.015060	
65354	    0	13.497338	2.894745	-7.994188	1.219626	-1.312328	-3.157789	0.135933	0.027289	-0.078882	0.999835	0.006098	-0.006561	-0.015788	
65355	    0	17.777153	2.014579	-5.319744	0.694503	-1.270363	-3.291498	0.178406	0.017395	-0.052002	0.999838	0.003472	-0.006351	-0.016457	
65356	    0	17.871003	-0.547007	-3.858463	-0.060085	-1.173083	-3.405755	0.178804	-0.008526	-0.037534	0.999837	-0.000300	-0.005865	-0.017028	
65357	    0	15.972998	-3.319542	-1.990744	-1.220014	-0.739142	-3.537965	0.159180	-0.036133	-0.019104	0.999818	-0.006100	-0.003695	-0.017689	
65358	    0	15.308537	-3.543812	1.610486	-2.087935	-0.423844	-3.587792	0.152384	-0.038003	0.016816	0.999782	-0.010439	-0.002119	-0.017938	
65359	    0	15.085250	-3.599929	4.351852	-2.324662	-0.476110	-3.538018	0.150085	-0.038147	0.044312	0.999773	-0.011622	-0.002380	-0.017689	
65360	    0	14.385727	-3.914758	4.600821	-2.279635	-0.525321	-3.411345	0.143045	-0.041061	0.046845	0.999785	-0.011397	-0.002626	-0.017056	
