// Start Time: Unknown
// Update Rate: 100.0Hz
// Filter Profile: human (34.3)
// Firmware Version: 2.1.4
PacketCounter	SampleTimeFine	Acc_X	Acc_Y	Acc_Z	Gyr_X	Gyr_Y	Gyr_Z	VelInc_X	VelInc_Y	VelInc_Z	OriInc_q0	OriInc_q1	OriInc_q2	OriInc_q3	
60882	    0	20.217566	2.678772	1.274453	0.460942	-3.181946	7.437452	0.200757	0.034238	0.016020	0.999179	0.002304	-0.015905	0.037177	
60883	    0	21.519372	4.223463	1.042124	0.551950	-3.087716	7.567423	0.213196	0.050293	0.013855	0.999161	0.002759	-0.015434	0.037827	
60884	    0	22.374396	6.457132	1.040504	0.479262	-2.988326	7.664178	0.220862	0.073043	0.013888	0.999151	0.002396	-0.014937	0.038310	
60885	    0	22.890165	8.050276	0.492642	0.502920	-2.893698	7.720090	0.225464	0.089233	0.008423	0.999146	0.002514	-0.014464	0.038589	
60886	    0	23.986496	9.757199	-0.156569	0.622163	-2.835316	7.727528	0.235846	0.106735	0.002120	0.999147	0.003110	-0.014173	0.038627	
60887	    0	25.330250	12.557493	0.128664	0.797490	-2.700593	7.610120	0.248230	0.135071	0.005188	0.999177	0.003986	-0.013499	0.038040	
60888	    0	26.384232	15.542284	3.271414	0.592569	-2.423505	7.297226	0.257517	0.164793	0.036340	0.999256	0.002962	-0.012115	0.036477	
60889	    0	26.888875	15.861552	6.534756	0.683165	-2.127521	6.732826	0.262634	0.167297	0.068726	0.999371	0.003415	-0.010635	0.033657	
60890	    0	25.946134	16.309298	7.565160	1.372947	-1.842233	5.889538	0.253802	0.170088	0.079159	0.999500	0.006864	-0.009210	0.029443	
60891	    0	22.853809	20.174963	5.797921	2.423603	-1.540576	4.807910	0.223145	0.206421	0.062195	0.999607	0.012116	-0.007702	0.024036	
60892	    0	16.245547	28.700863	2.759377	3.032609	-1.322880	3.647219	0.156985	0.289432	0.033021	0.999697	0.015162	-0.006614	0.018234	
60893	    0	11.125946	36.872836	2.596422	2.642403	-1.088778	2.387375	0.106689	0.369629	0.031433	0.999826	0.013211	-0.005444	0.011936	
60894	    0	10.944548	37.847758	5.057900	1.687653	-0.746169	1.031704	0.107295	0.378588	0.054176	0.999944	0.008438	-0.003731	0.005158	
60895	    0	12.331382	31.349755	6.975097	1.392568	-0.344852	-0.415043	0.123840	0.312744	0.072144	0.999971	0.006963	-0.001724	-0.002075	
60896	    0	11.561639	27.222672	6.530288	2.034821	0.037576	-1.762634	0.118018	0.270511	0.068039	0.999908	0.010174	0.000188	-0.008813	
60897	    0	9.544910	26.937667	3.784422	2.650619	0.280970	-2.833736	0.099304	0.267456	0.041260	0.999810	0.013252	0.001405	-0.014168	
60898	    0	9.680698	25.073825	0.987499	2.652957	0.309016	-3.528501	0.101227	0.248819	0.013030	0.999755	0.013264	0.001545	-0.017641	
60899	    0	12.099001	19.846485	0.773843	2.337279	0.243399	-3.940165	0.124878	0.195923	0.009888	0.999737	0.011685	0.001217	-0.019699	
60900	    0	13.694863	12.984947	-0.226415	2.432872	0.113498	-4.204210	0.139637	0.126948	-0.000787	0.999704	0.012163	0.000567	-0.021019	
60901	    0	18.880780	28.071590	-5.657418	3.427122	-0.181610	-5.304837	0.196228	0.276489	-0.051636	0.999500	0.017133	-0.000908	-0.026520	
60902	    0	24.669956	42.201844	-6.990719	1.744375	0.087371	-6.129539	0.259458	0.414785	-0.066380	0.999492	0.008720	0.000437	-0.030643	
60903	    0	31.718841	12.167562	-12.117236	0.356347	0.461839	-6.004481	0.320374	0.112305	-0.121704	0.999545	0.001781	0.002309	-0.030018	
60904	    0	39.601857	13.222071	-1.746076	1.490430	0.682828	-7.952395	0.400799	0.116477	-0.017917	0.999176	0.007450	0.003413	-0.039751	
60905	    0	31.448134	21.835742	5.592426	0.821324	0.625007	-7.772529	0.322815	0.205688	0.055786	0.999231	0.004106	0.003124	-0.038853	
60906	    0	21.111409	8.058389	16.959373	-0.545045	0.949869	-7.031971	0.214584	0.073539	0.168373	0.999367	-0.002725	0.004748	-0.035152	
60907	    0	3.772609	8.993739	8.808465	0.565632	0.703559	-6.564769	0.040955	0.088379	0.088196	0.999451	0.002828	0.003517	-0.032818	
60908	    0	-1.111875	17.681225	0.637570	0.182749	0.714782	-5.691165	-0.006060	0.177027	0.006565	0.999588	0.000914	0.003573	-0.028452	
60909	    0	4.072585	12.804967	-2.619956	-0.552232	0.567683	-4.791731	0.043701	0.126953	-0.026672	0.999704	-0.002761	0.002838	-0.023956	
60910	    0	14.416877	5.565730	2.043705	-0.882784	0.325036	-4.047113	0.145289	0.052814	0.019964	0.999784	-0.004414	0.001625	-0.020234	
60911	    0	19.344787	7.805934	-0.350605	-1.223825	0.311488	-3.487596	0.194763	0.074646	-0.004272	0.999827	-0.006119	0.001557	-0.017437	
60912	    0	24.716564	9.967770	2.778644	-1.659290	0.288406	-3.140997	0.248732	0.096004	0.026622	0.999841	-0.008296	0.001442	-0.015704	
60913	    0	26.203447	5.720703	5.587966	-1.869109	0.284591	-3.009192	0.262939	0.053772	0.054993	0.999842	-0.009345	0.001423	-0.015045	
60914	    0	26.911798	4.558003	6.515437	-2.076450	0.252928	-2.892648	0.269828	0.042352	0.064363	0.999841	-0.010382	0.001265	-0.014462	
60915	    0	25.975582	0.756419	6.857292	-2.290462	0.160416	-2.666611	0.259888	0.004883	0.068298	0.999845	-0.011452	0.000802	-0.013332	
60916	    0	24.212010	-1.490025	5.932391	-2.488833	0.066951	-2.405477	0.241943	-0.017072	0.059446	0.999849	-0.012444	0.000335	-0.012027	
60917	    0	21.501427	-3.919717	4.883620	-3.054023	-0.104528	-1.940261	0.214600	-0.040527	0.049561	0.999836	-0.015269	-0.000523	-0.009701	
60918	    0	18.982085	-2.026539	3.914126	-3.373533	-0.162897	-1.592156	0.189623	-0.021110	0.039647	0.999825	-0.016867	-0.000814	-0.007960	
60919	    0	18.279059	-3.510096	1.615357	-3.562949	-0.128944	-1.254347	0.182556	-0.035950	0.016907	0.999821	-0.017814	-0.000645	-0.006271	
60920	    0	16.716815	-7.592141	-1.476582	-3.471367	0.069431	-0.801129	0.166857	-0.076832	-0.013495	0.999841	-0.017356	0.000347	-0.004005	
60921	    0	16.540375	-9.802371	-3.267502	-2.610856	0.348864	-0.379192	0.165161	-0.098755	-0.031677	0.999911	-0.013054	0.001744	-0.001896	
60922	    0	15.841003	-6.033386	-3.175756	-0.980001	0.372698	-0.367739	0.158239	-0.060781	-0.031755	0.999984	-0.004900	0.001863	-0.001839	
60923	    0	16.758319	3.878696	-2.209366	-0.444795	0.190926	-0.849918	0.167725	0.038025	-0.022339	0.999988	-0.002224	0.000955	-0.004250	
60924	    0	11.889442	9.364131	-5.278735	-1.058971	0.166513	-1.129162	0.119375	0.092687	-0.053379	0.999969	-0.005295	0.000833	-0.005646	
60925	    0	12.373860	14.862261	-13.191217	-1.864678	0.224501	-1.835685	0.124939	0.146240	-0.133423	0.999913	-0.009323	0.001122	-0.009178	
60926	    0	17.723073	20.566822	-15.657022	-3.730728	0.827482	-2.642678	0.179241	0.200332	-0.161079	0.999730	-0.018652	0.004137	-0.013212	
60927	    0	15.077060	7.217676	-7.394577	-4.327123	1.433154	-2.563769	0.151123	0.068604	-0.076538	0.999658	-0.021633	0.007165	-0.012817	
60928	    0	9.950334	-2.102511	-3.507406	-3.789867	1.452579	-2.342057	0.098987	-0.022855	-0.035373	0.999725	-0.018948	0.007262	-0.011709	
60929	    0	9.987479	-4.658110	-3.015381	-3.179222	1.522181	-2.453039	0.099060	-0.048279	-0.030151	0.999769	-0.015895	0.007610	-0.012264	
60930	    0	11.031389	-6.019999	-2.843658	-2.705392	1.779497	-2.680022	0.109237	-0.062055	-0.028581	0.999779	-0.013526	0.008897	-0.013399	
60931	    0	12.040778	-6.215719	-4.474616	-1.897360	1.915862	-2.819240	0.119080	-0.064270	-0.045288	0.999809	-0.009486	0.009579	-0.014095	
60932	    0	12.979115	-6.268134	-5.715891	-0.945523	1.852897	-2.914775	0.128322	-0.064832	-0.058049	0.999839	-0.004727	0.009264	-0.014573	
60933	    0	13.723129	-6.245289	-5.353275	-0.253119	1.724338	-3.193841	0.135742	-0.064697	-0.054626	0.999834	-0.001266	0.008621	-0.015968	
60934	    0	13.825878	-5.017821	-4.031318	0.203146	1.649389	-3.530917	0.137006	-0.052563	-0.041499	0.999809	0.001016	0.008246	-0.017653	
60935	    0	13.597893	-3.827061	-2.675618	0.252551	1.605527	-3.747056	0.135010	-0.040771	-0.027893	0.999791	0.001263	0.008027	-0.018734	
60936	    0	13.054767	-4.244873	-2.725314	0.152026	1.524459	-3.785969	0.129500	-0.044886	-0.028276	0.999791	0.000760	0.007622	-0.018929	
60937	    0	11.790331	-6.153984	-4.156733	0.134286	1.385015	-3.673790	0.116455	-0.063660	-0.042419	0.999806	0.000671	0.006925	-0.018368	
60938	    0	10.861738	-7.796805	-5.653694	0.242819	1.194259	-3.496561	0.106893	-0.079778	-0.057275	0.999828	0.001214	0.005971	-0.017482	
60939	    0	10.602917	-8.570286	-6.252561	0.363941	1.046998	-3.344137	0.104248	-0.087341	-0.063232	0.999845	0.001820	0.005235	-0.016720	
60940	    0	10.600178	-8.238699	-6.213821	0.619728	0.931595	-3.249901	0.104355	-0.083898	-0.062885	0.999852	0.003098	0.004658	-0.016249	
60941	    0	10.548034	-6.443287	-6.256272	0.798073	0.781478	-3.202973	0.104187	-0.065857	-0.063232	0.999856	0.003990	0.003907	-0.016014	
60942	    0	10.212248	-4.842425	-5.952246	0.766025	0.624112	-3.098815	0.101171	-0.049767	-0.060028	0.999867	0.003830	0.003120	-0.015493	
60943	    0	9.730600	-3.767379	-5.523931	0.636506	0.498218	-2.854261	0.096619	-0.038879	-0.055603	0.999889	0.003182	0.002491	-0.014271	
60944	    0	9.571536	-2.855878	-5.079938	0.401127	0.358592	-2.539134	0.095252	-0.029668	-0.051029	0.999915	0.002006	0.001793	-0.012695	
60945	    0	9.679427	-2.095643	-4.893417	0.162700	0.249486	-2.186629	0.096497	-0.021973	-0.049072	0.999939	0.000813	0.001247	-0.010933	
60946	    0	10.230810	-1.721879	-4.871314	-0.156977	0.172236	-1.802660	0.102105	-0.018178	-0.048787	0.999958	-0.000785	0.000861	-0.009013	
60947	    0	11.469020	-2.266686	-4.829321	-0.321963	0.146676	-1.316081	0.114502	-0.023499	-0.048340	0.999976	-0.001610	0.000733	-0.006580	
60948	    0	11.630614	-2.411586	-4.841060	-0.266457	0.098419	-0.763132	0.116189	-0.024624	-0.048435	0.999991	-0.001332	0.000492	-0.003816	
60949	    0	10.671257	-2.037474	-3.998444	-0.221825	0.030518	-0.166321	0.106689	-0.020508	-0.039978	0.999998	-0.001109	0.000153	-0.000832	
60950	    0	9.611788	-1.361066	-2.817886	-0.027084	-0.080872	0.469780	0.096161	-0.013389	-0.028138	0.999997	-0.000135	-0.000404	0.002349	
60951	    0	8.851140	-0.611961	-2.058398	0.201417	-0.185205	1.092535	0.088562	-0.005615	-0.020508	0.999984	0.001007	-0.000926	0.005463	
60952	    0	8.238988	-0.139726	-1.790868	0.432021	-0.286106	1.765276	0.082423	-0.000631	-0.017793	0.999957	0.002160	-0.001431	0.008826	
60953	    0	7.693978	0.014916	-1.713213	0.648517	-0.420201	2.482675	0.076965	0.001160	-0.016968	0.999915	0.003242	-0.002101	0.012413	
60954	    0	7.273466	-0.072023	-1.670958	0.933311	-0.599509	3.216517	0.072783	0.000527	-0.016491	0.999855	0.004666	-0.002997	0.016082	
60955	    0	7.140040	0.226511	-1.922296	1.280306	-0.787220	3.913403	0.071411	0.003784	-0.018921	0.999780	0.006401	-0.003936	0.019566	
60956	    0	7.155832	1.180168	-2.491023	1.594134	-1.034270	4.566086	0.071388	0.013629	-0.024437	0.999694	0.007970	-0.005171	0.022828	
60957	    0	7.580772	2.227354	-2.913454	1.704630	-1.296976	5.182564	0.075378	0.024475	-0.028442	0.999606	0.008522	-0.006484	0.025909	
60958	    0	8.487615	2.901451	-3.005672	1.665572	-1.585069	5.745660	0.084225	0.031686	-0.029131	0.999521	0.008327	-0.007924	0.028724	
60959	    0	9.852050	3.464789	-3.030625	1.491821	-1.873933	6.196208	0.097656	0.037903	-0.029114	0.999448	0.007458	-0.009368	0.030975	
60960	    0	11.626663	3.776340	-2.913960	1.204738	-2.139721	6.570828	0.115240	0.041731	-0.027659	0.999385	0.006022	-0.010696	0.032847	
60961	    0	13.180652	3.362586	-2.667998	0.869179	-2.373837	6.816076	0.130859	0.038208	-0.024963	0.999339	0.004345	-0.011867	0.034073	
60962	    0	14.035394	2.874290	-1.881779	0.522352	-2.587342	6.951789	0.139468	0.033648	-0.016926	0.999309	0.002611	-0.012934	0.034751	
60963	    0	15.100731	2.091150	-0.969442	0.199365	-2.792256	6.993994	0.150269	0.026184	-0.007568	0.999290	0.000997	-0.013958	0.034962	
60964	    0	16.098393	1.618019	-0.367749	0.022512	-2.993151	6.935433	0.160325	0.021749	-0.001272	0.999287	0.000113	-0.014962	0.034669	
60965	    0	16.940652	1.740160	0.458547	-0.103021	-3.111811	6.855104	0.168579	0.023193	0.007202	0.999291	-0.000515	-0.015555	0.034267	
60966	    0	17.557292	2.363621	1.026396	-0.098633	-3.170956	6.842518	0.174436	0.029624	0.013022	0.999289	-0.000493	-0.015851	0.034204	
60967	    0	18.320935	2.638003	1.190070	-0.158729	-3.106471	6.867318	0.181946	0.032654	0.014709	0.999290	-0.000793	-0.015529	0.034328	
60968	    0	19.172383	3.289773	1.043861	-0.236567	-3.003071	6.925703	0.190247	0.039518	0.013259	0.999287	-0.001183	-0.015012	0.034620	
60969	    0	19.987800	4.412863	1.017317	-0.329478	-2.927337	6.984857	0.197998	0.051086	0.013000	0.999281	-0.001647	-0.014633	0.034916	
60970	    0	20.384295	5.897675	0.755320	-0.353326	-2.876590	7.011951	0.201473	0.066086	0.010350	0.999280	-0.001766	-0.014380	0.035051	
60971	    0	20.740217	6.988802	0.618593	-0.269383	-2.867629	7.052028	0.204651	0.077148	0.009033	0.999274	-0.001347	-0.014335	0.035252	
60972	    0	21.288019	8.385278	0.782160	0.022894	-2.850836	7.038091	0.209615	0.091268	0.010836	0.999279	0.000114	-0.014251	0.035182	
60973	    0	21.996349	10.907137	1.785389	0.369538	-2.755608	6.889402	0.215759	0.116516	0.021057	0.999310	0.001847	-0.013775	0.034439	
60974	    0	22.539245	13.552196	4.025926	0.604946	-2.556189	6.564745	0.220244	0.142680	0.043521	0.999374	0.003024	-0.012778	0.032817	
60975	    0	23.003772	14.915278	7.339258	0.818778	-2.223407	6.057281	0.224548	0.155701	0.076538	0.999471	0.004093	-0.011115	0.030281	
60976	    0	22.551155	16.011929	8.663897	1.485657	-1.899801	5.353934	0.220286	0.165403	0.089964	0.999569	0.007427	-0.009498	0.026766	
60977	    0	20.580630	19.130616	7.145736	2.431015	-1.606751	4.484330	0.200867	0.194946	0.075439	0.999642	0.012154	-0.008033	0.022419	
60978	    0	16.068536	25.105960	3.770047	3.248168	-1.371143	3.506831	0.155976	0.253154	0.042881	0.999690	0.016239	-0.006855	0.017532	
60979	    0	11.744480	32.342133	2.131073	3.318467	-1.142970	2.442355	0.113342	0.324402	0.027344	0.999771	0.016591	-0.005714	0.012211	
60980	    0	10.813999	35.658598	3.014544	2.735059	-0.907172	1.211406	0.105826	0.356771	0.035507	0.999877	0.013675	-0.004536	0.006057	
60981	    0	12.037120	32.968587	4.321461	2.165458	-0.563061	-0.146487	0.120483	0.329102	0.047119	0.999937	0.010827	-0.002815	-0.000732	
60982	    0	11.759575	29.917441	4.045782	2.111110	-0.206762	-1.401558	0.119642	0.297891	0.043730	0.999919	0.010555	-0.001034	-0.007008	
60983	    0	10.249341	28.237282	1.714732	2.317155	0.041391	-2.415579	0.105896	0.280884	0.020386	0.999860	0.011585	0.000207	-0.012077	
60984	    0	12.357440	25.279395	-1.830345	2.207317	0.049022	-3.090472	0.127459	0.251026	-0.015557	0.999819	0.011036	0.000245	-0.015451	
60985	    0	14.987742	18.639883	-3.205066	2.173015	-0.098236	-3.644072	0.153259	0.183960	-0.029968	0.999774	0.010864	-0.000491	-0.018219	
60986	    0	19.847970	36.329310	-1.954006	3.321210	-0.208315	-5.120119	0.207712	0.358310	-0.013349	0.999534	0.016603	-0.001041	-0.025597	
60987	    0	29.627108	51.446898	6.469847	2.235092	0.512988	-6.496951	0.312927	0.503723	0.069580	0.999406	0.011173	0.002564	-0.032478	
60988	    0	40.512719	17.872715	7.216908	0.561077	1.078276	-7.243449	0.411621	0.163696	0.070435	0.999326	0.002805	0.005390	-0.036209	
60989	    0	39.036127	5.380571	7.469211	1.426347	1.149510	-8.129374	0.392525	0.037354	0.072745	0.999131	0.007130	0.005746	-0.040635	
60990	    0	30.089118	15.418236	6.747771	2.001035	1.168033	-8.215155	0.307257	0.140973	0.067150	0.999089	0.010002	0.005838	-0.041063	
60991	    0	12.804628	9.640002	5.018247	0.839631	1.082878	-7.569463	0.131836	0.091248	0.049866	0.999260	0.004197	0.005413	-0.037838	
60992	    0	-0.083214	15.552683	0.701460	0.846271	0.842265	-6.859067	0.004531	0.155401	0.007661	0.999393	0.004230	0.004210	-0.034288	
60993	    0	-1.890981	19.066269	0.078773	-0.172258	0.631039	-5.738865	-0.013428	0.191101	0.000671	0.999582	-0.000861	0.003155	-0.028690	
60994	    0	6.235496	14.010856	0.350523	-0.661343	0.538116	-4.784864	0.065691	0.138574	0.002872	0.999704	-0.003306	0.002690	-0.023922	
60995	    0	10.921094	8.795191	0.600357	-0.862755	0.359370	-4.025555	0.110962	0.085754	0.005432	0.999786	-0.004313	0.001797	-0.020126	
60996	    0	18.905845	10.170366	0.899967	-1.177087	0.392172	-3.342233	0.190740	0.098575	0.008040	0.999841	-0.005885	0.001961	-0.016710	
60997	    0	22.477800	8.702965	2.872861	-1.426761	0.365655	-2.930582	0.226074	0.083923	0.027710	0.999866	-0.007133	0.001828	-0.014652	
60998	    0	25.615986	5.680057	5.895818	-1.484933	0.433177	-2.769205	0.257044	0.053679	0.057996	0.999874	-0.007424	0.002166	-0.013845	
60999	    0	25.712556	3.946511	4.412086	-1.692840	0.363937	-2.590284	0.257690	0.036499	0.043335	0.999878	-0.008464	0.001820	-0.012951	
61000	    0	24.943383	2.366792	4.273642	-1.984293	0.227365	-2.351473	0.249741	0.021153	0.042234	0.999881	-0.009921	0.001137	-0.011757	
61001	    0	24.621712	-0.007927	3.918726	-2.419190	0.065615	-2.005850	0.246216	-0.002075	0.039124	0.999876	-0.012095	0.000328	-0.010029	
61002	    0	23.825769	-1.838157	2.937300	-3.037027	-0.147254	-1.535490	0.238088	-0.019759	0.029841	0.999854	-0.015184	-0.000736	-0.007677	
61003	    0	21.435638	-1.817200	0.869846	-3.417393	-0.238622	-1.185673	0.214233	-0.019287	0.009277	0.999835	-0.017086	-0.001193	-0.005928	
61004	    0	21.139842	-3.865725	-2.072091	-3.666140	-0.239768	-0.814295	0.211262	-0.039886	-0.019744	0.999823	-0.018330	-0.001199	-0.004071	
61005	    0	20.395014	-7.161035	-5.136183	-3.574565	-0.076107	-0.476863	0.203796	-0.072998	-0.049988	0.999837	-0.017872	-0.000381	-0.002384	
61006	    0	18.613249	-9.699287	-4.858675	-2.934561	0.051310	-0.152975	0.186046	-0.097835	-0.047203	0.999891	-0.014672	0.000257	-0.000765	
61007	    0	17.896315	-1.074309	-4.531575	-1.961359	-0.044251	-0.321966	0.178955	-0.011475	-0.045166	0.999950	-0.009807	-0.000221	-0.001610	
61008	    0	18.016246	11.683423	-0.685233	-2.162225	0.097086	-1.169806	0.180838	0.115694	-0.008195	0.999924	-0.010811	0.000485	-0.005849	
61009	    0	9.652677	21.592753	-3.263190	-2.939579	0.200664	-2.163054	0.098816	0.214355	-0.035889	0.999832	-0.014697	0.001003	-0.010815	
61010	    0	12.022026	22.925097	-13.434339	-3.612669	0.611744	-3.039456	0.123240	0.224913	-0.138806	0.999716	-0.018062	0.003058	-0.015196	
61011	    0	17.251152	11.953827	-10.365808	-4.241542	1.571860	-3.284119	0.173584	0.114441	-0.107483	0.999609	-0.021205	0.007858	-0.016418	
61012	    0	14.982122	-1.218321	-4.170818	-3.184451	1.886750	-3.269909	0.149187	-0.015303	-0.042891	0.999695	-0.015921	0.009433	-0.016348	
61013	    0	13.496898	-6.352679	-4.224442	-1.474873	1.800863	-3.555565	0.133423	-0.066223	-0.042969	0.999774	-0.007374	0.009004	-0.017776	
61014	    0	14.183115	-6.257801	-4.043778	-0.432813	1.854668	-4.017016	0.140153	-0.065494	-0.041603	0.999752	-0.002164	0.009273	-0.020083	
61015	    0	16.022783	-4.318227	-2.852858	-0.057989	1.976395	-4.393430	0.158936	-0.046692	-0.030090	0.999709	-0.000290	0.009881	-0.021965	
61016	    0	16.892345	-4.530527	-2.500282	0.114262	2.079611	-4.584606	0.167554	-0.049142	-0.026777	0.999682	0.000571	0.010397	-0.022921	
61017	    0	15.974267	-6.030771	-3.009133	0.405165	1.993969	-4.692589	0.157959	-0.063965	-0.031799	0.999673	0.002026	0.009969	-0.023460	
61018	    0	14.465646	-6.415320	-4.318284	0.617668	1.833165	-4.781872	0.142665	-0.067444	-0.044702	0.999667	0.003088	0.009165	-0.023907	
61019	    0	13.925190	-6.499790	-5.152836	0.602978	1.721377	-4.750574	0.137207	-0.068115	-0.052917	0.999676	0.003015	0.008606	-0.023750	
61020	    0	14.090730	-7.271669	-5.559462	0.565586	1.612636	-4.626171	0.138722	-0.075783	-0.056931	0.999696	0.002828	0.008062	-0.023129	
61021	    0	14.300582	-8.216594	-6.100187	0.624906	1.401079	-4.483452	0.140686	-0.085144	-0.062256	0.999719	0.003124	0.007005	-0.022415	
61022	    0	14.189294	-8.404243	-6.727072	0.484317	1.108836	-4.356183	0.139644	-0.086936	-0.068257	0.999744	0.002421	0.005544	-0.021779	
61023	    0	13.706831	-8.183142	-6.896172	0.093277	0.853795	-4.210224	0.135010	-0.084656	-0.069580	0.999769	0.000466	0.004269	-0.021049	
61024	    0	13.537281	-8.569617	-6.452302	-0.360896	0.702145	-4.057601	0.133368	-0.088532	-0.064836	0.999786	-0.001804	0.003510	-0.020287	
61025	    0	13.414081	-9.160840	-6.230395	-0.546301	0.587693	-3.887432	0.132141	-0.094360	-0.062439	0.999803	-0.002731	0.002938	-0.019436	
61026	    0	12.956535	-9.022905	-5.980667	-0.512344	0.515777	-3.685977	0.127717	-0.092748	-0.059902	0.999824	-0.002562	0.002579	-0.018429	
61027	    0	12.112063	-8.113863	-5.596844	-0.351733	0.446533	-3.457055	0.119568	-0.083313	-0.056091	0.999846	-0.001759	0.002233	-0.017284	
61028	    0	11.369076	-6.930656	-4.916460	-0.157554	0.377480	-3.142679	0.112490	-0.071119	-0.049322	0.999874	-0.000788	0.001887	-0.015713	
61029	    0	10.712263	-6.197359	-3.942485	0.057985	0.316821	-2.729120	0.106201	-0.063416	-0.039612	0.999906	0.000290	0.001584	-0.013645	
61030	    0	10.717539	-5.168150	-2.770804	0.183300	0.256544	-2.247096	0.106550	-0.052855	-0.027893	0.999935	0.000916	0.001283	-0.011235	
61031	    0	11.557338	-4.243665	-2.255451	0.236514	0.278667	-1.710532	0.115173	-0.043396	-0.022766	0.999961	0.001183	0.001393	-0.008553	
61032	    0	11.888275	-3.674766	-2.485333	0.399592	0.278856	-1.088721	0.118646	-0.037344	-0.025093	0.999982	0.001998	0.001394	-0.005444	
61033	    0	10.764271	-3.390498	-2.886528	0.322915	0.246430	-0.370789	0.107544	-0.034058	-0.029053	0.999996	0.001615	0.001232	-0.001854	
61034	    0	8.615373	-2.904002	-1.850485	0.238419	0.177384	0.518800	0.086212	-0.028794	-0.018616	0.999995	0.001192	0.000887	0.002594	
61035	    0	7.342830	-2.726339	-1.027770	0.309184	0.154115	1.397717	0.073608	-0.026733	-0.010376	0.999973	0.001546	0.000771	0.006989	
61036	    0	6.355103	-2.021620	-0.325652	0.351341	0.095560	2.168508	0.063764	-0.019520	-0.003322	0.999939	0.001757	0.000478	0.010842	
61037	    0	5.133321	-0.443690	-0.303937	0.519582	0.008583	2.985496	0.051392	-0.003662	-0.003052	0.999885	0.002598	0.000043	0.014927	
61038	    0	4.573252	0.659174	-0.807343	0.651975	-0.066762	3.913755	0.045594	0.007511	-0.008035	0.999803	0.003260	-0.000334	0.019567	
61039	    0	5.167260	0.637025	-1.015822	0.825770	-0.223563	4.721522	0.051514	0.007629	-0.010071	0.999712	0.004128	-0.001118	0.023605	
61040	    0	5.824232	0.846261	-1.273692	1.245087	-0.424249	5.397537	0.058011	0.010109	-0.012554	0.999614	0.006225	-0.002121	0.026984	
61041	    0	6.960279	2.469604	-1.048792	1.477291	-0.648413	6.031253	0.068848	0.026855	-0.010071	0.999513	0.007385	-0.003242	0.030151	
61042	    0	8.337712	3.773559	-0.638522	1.411714	-0.890524	6.642877	0.082088	0.040519	-0.005738	0.999413	0.007057	-0.004452	0.033208	
61043	    0	10.045463	4.355268	-0.174120	1.194460	-1.109563	7.163323	0.098816	0.047119	-0.000916	0.999325	0.005971	-0.005547	0.035809	
61044	    0	12.157021	4.659547	-0.118524	1.017824	-1.321741	7.554603	0.119699	0.051144	-0.000137	0.999251	0.005088	-0.006607	0.037764	
61045	    0	14.113516	4.813565	0.102885	0.830299	-1.451306	7.812289	0.139099	0.053589	0.002258	0.999202	0.004150	-0.007255	0.039051	
61046	    0	15.747747	5.157875	0.744496	0.433658	-1.568458	7.913071	0.155209	0.057733	0.008789	0.999184	0.002168	-0.007840	0.039555	
61047	    0	17.284636	4.685284	1.226352	0.107603	-1.681781	7.865738	0.170715	0.053589	0.013733	0.999190	0.000538	-0.008407	0.039318	
61048	    0	18.968071	3.783821	2.019074	0.046170	-1.743574	7.655584	0.187862	0.045049	0.021844	0.999229	0.000231	-0.008716	0.038268	
61049	    0	19.824665	3.297270	2.710554	0.394535	-1.775600	7.409939	0.196594	0.040222	0.028931	0.999272	0.001972	-0.008876	0.037041	
61050	    0	19.804459	3.184069	3.301612	1.100226	-1.686301	7.227685	0.196438	0.038772	0.034878	0.999296	0.005500	-0.008430	0.036130	
61051	    0	19.647845	4.778360	2.921649	1.751543	-1.490367	7.100036	0.194397	0.054443	0.031128	0.999304	0.008756	-0.007450	0.035492	
61052	    0	19.668423	6.497547	1.700675	2.058891	-1.280702	7.079823	0.194108	0.071690	0.018970	0.999300	0.010292	-0.006402	0.035391	
61053	    0	19.435874	7.193611	-0.038284	2.078155	-1.093545	7.070269	0.191650	0.078735	0.001465	0.999306	0.010388	-0.005466	0.035343	
61054	    0	18.695762	6.784801	-1.818275	2.210182	-1.025440	7.097002	0.184477	0.074613	-0.016433	0.999296	0.011048	-0.005126	0.035477	
61055	    0	18.251145	6.770047	-3.933627	2.633549	-1.056358	7.121304	0.180137	0.074645	-0.037428	0.999265	0.013165	-0.005280	0.035598	
61056	    0	18.244229	8.258750	-5.656028	3.171787	-1.157678	7.115677	0.179648	0.089885	-0.054128	0.999225	0.015855	-0.005787	0.035569	
61057	    0	18.227551	11.246870	-6.754193	3.513503	-1.343701	7.024716	0.178589	0.119934	-0.064270	0.999206	0.017563	-0.006717	0.035114	
61058	    0	18.242485	14.218236	-7.060446	3.443253	-1.563658	6.807521	0.177951	0.149462	-0.066669	0.999242	0.017212	-0.007816	0.034029	
61059	    0	18.696674	15.567418	-6.762034	3.079917	-1.754965	6.441423	0.182373	0.162598	-0.063538	0.999324	0.015396	-0.008773	0.032200	
61060	    0	20.077470	16.612102	-5.767724	2.670800	-1.893025	5.941386	0.196228	0.172729	-0.053528	0.999424	0.013351	-0.009463	0.029701	
61061	    0	20.753709	19.116327	-4.825711	2.315889	-1.888384	5.397890	0.202698	0.197205	-0.044067	0.999524	0.011578	-0.009440	0.026985	
61062	    0	18.296183	22.607472	-5.869497	1.969396	-1.826327	4.813231	0.177955	0.230950	-0.054796	0.999618	0.009846	-0.009130	0.024063	
61063	    0	14.638183	28.475984	-0.234906	0.764716	-1.329908	4.062972	0.140564	0.287659	-0.000305	0.999763	0.003823	-0.006649	0.020313	
61064	    0	12.035181	25.274940	-1.708321	0.757638	-0.800937	3.351958	0.116158	0.254781	-0.015650	0.999844	0.003788	-0.004004	0.016759	
61065	    0	11.711226	32.342015	-6.964368	1.174382	-0.617995	1.964615	0.114136	0.324951	-0.067383	0.999929	0.005872	-0.003090	0.009823	
61066	    0	10.080255	36.638093	-3.708247	0.111008	-0.323487	0.254822	0.100395	0.366529	-0.036716	0.999997	0.000555	-0.001617	0.001274	
61067	    0	8.783708	34.053207	-2.837946	-0.644688	-0.127984	-1.061256	0.089661	0.339966	-0.029419	0.999980	-0.003223	-0.000640	-0.005306	
61068	    0	9.854257	30.835428	-1.626519	-1.260596	0.063707	-1.977584	0.101579	0.307249	-0.018236	0.999930	-0.006303	0.000319	-0.009888	
61069	    0	13.184615	23.130566	-2.159265	-1.467758	0.142675	-2.552125	0.134766	0.229431	-0.023376	0.999891	-0.007339	0.000713	-0.012760	
61070	    0	16.412136	20.491177	-4.291340	-0.318925	-0.024415	-3.462966	0.167641	0.201961	-0.043217	0.999848	-0.001595	-0.000122	-0.017314	
61071	    0	22.484128	50.250787	2.333981	0.731748	0.222996	-5.358778	0.238220	0.496155	0.024902	0.999633	0.003658	0.001115	-0.026791	
61072	    0	39.826488	51.577462	9.415032	-0.643872	1.065679	-7.151266	0.416855	0.501384	0.090332	0.999341	-0.003219	0.005327	-0.035748	
61073	    0	40.066654	1.551514	-4.394529	-0.689856	0.782384	-7.361009	0.400696	0.000610	-0.045532	0.999309	-0.003448	0.003911	-0.036797	
61074	    0	34.207836	3.638040	-6.134782	2.076576	0.620073	-8.169508	0.343009	0.023022	-0.062125	0.999106	0.010380	0.003099	-0.040835	
61075	    0	27.649593	19.048644	-1.329087	1.375211	0.861033	-8.128395	0.283875	0.179138	-0.013245	0.999141	0.006874	0.004304	-0.040630	
61076	    0	9.327025	8.585870	4.186411	0.500981	0.745748	-7.240566	0.096449	0.082300	0.041718	0.999334	0.002504	0.003728	-0.036195	
61077	    0	-4.878474	16.035744	0.523543	0.888223	0.669410	-6.504476	-0.043518	0.161804	0.006104	0.999455	0.004440	0.003346	-0.032516	
61078	    0	1.002338	18.523062	1.684736	0.003052	0.524584	-5.333585	0.015001	0.184875	0.016815	0.999640	0.000015	0.002623	-0.026665	
61079	    0	11.917319	14.325069	-0.505320	-1.003347	0.461044	-4.285781	0.122192	0.140625	-0.006042	0.999755	-0.005016	0.002305	-0.021427	
61080	    0	17.714988	6.208260	4.596685	-1.272276	0.215734	-3.511824	0.178256	0.059249	0.045392	0.999825	-0.006361	0.001079	-0.017558	
61081	    0	22.931272	6.600669	4.958058	-1.052905	0.097089	-3.168635	0.230347	0.062622	0.049133	0.999860	-0.005264	0.000485	-0.015842	
61082	    0	25.634553	5.829397	7.608429	-1.251656	-0.053408	-2.942974	0.257151	0.054989	0.075802	0.999871	-0.006258	-0.000267	-0.014714	
61083	    0	26.538915	5.031854	5.747506	-1.563900	-0.206765	-2.745171	0.265991	0.047119	0.057373	0.999874	-0.007819	-0.001034	-0.013725	
61084	    0	25.190267	1.725586	5.015849	-1.995364	-0.442906	-2.499307	0.251985	0.014610	0.050562	0.999869	-0.009976	-0.002214	-0.012496	
61085	    0	24.435308	2.145758	4.733079	-2.481201	-0.578909	-2.309532	0.244446	0.019226	0.047791	0.999852	-0.012405	-0.002894	-0.011547	
61086	    0	23.463707	-0.945328	3.615205	-3.455011	-0.681160	-1.893742	0.234412	-0.011038	0.037132	0.999800	-0.017274	-0.003406	-0.009468	
61087	    0	21.361916	-4.265938	2.621287	-4.026160	-0.641683	-1.548127	0.213196	-0.043762	0.027771	0.999762	-0.020129	-0.003208	-0.007740	
61088	    0	20.877516	-5.991071	-0.153902	-4.069452	-0.563665	-1.290803	0.208384	-0.061263	0.000286	0.999767	-0.020346	-0.002818	-0.006454	
61089	    0	18.705200	-9.439883	-3.285826	-3.734059	-0.337813	-0.963653	0.186646	-0.095886	-0.030762	0.999812	-0.018669	-0.001689	-0.004818	
61090	    0	15.984624	-10.914819	-4.207109	-2.698985	-0.064852	-0.624867	0.159516	-0.110201	-0.040537	0.999904	-0.013494	-0.000324	-0.003124	
61091	    0	16.714974	-3.982128	-2.881284	-1.230441	0.000000	-0.780494	0.166992	-0.040649	-0.028564	0.999973	-0.006152	0.000000	-0.003902	
61092	    0	16.749044	9.133830	-1.498940	-1.137749	-0.001526	-1.402493	0.168125	0.090074	-0.015503	0.999959	-0.005689	-0.000008	-0.007012	
61093	    0	9.869261	13.996205	-5.428919	-2.001828	0.090793	-1.970737	0.100037	0.138428	-0.055725	0.999901	-0.010009	0.000454	-0.009853	
61094	    0	13.261151	18.085232	-14.083587	-2.884677	0.207724	-2.783390	0.134944	0.176928	-0.143546	0.999798	-0.014422	0.001039	-0.013916	
61095	    0	17.738766	13.667008	-13.100357	-4.002637	0.822541	-3.181050	0.178955	0.131165	-0.134399	0.999664	-0.020011	0.004112	-0.015903	
61096	    0	14.295513	3.597470	-6.126549	-3.728496	1.244676	-3.135439	0.143096	0.032571	-0.062784	0.999683	-0.018641	0.006223	-0.015676	
61097	    0	11.877950	-2.157021	-2.960630	-2.651423	1.231672	-3.206123	0.118225	-0.023865	-0.030029	0.999764	-0.013256	0.006158	-0.016029	
61098	    0	12.116125	-4.217110	-2.892224	-1.923510	1.348212	-3.446638	0.120211	-0.044529	-0.029314	0.999782	-0.009617	0.006741	-0.017232	
61099	    0	13.277452	-4.317584	-2.303090	-1.613549	1.533625	-3.650180	0.131775	-0.045776	-0.023682	0.999771	-0.008067	0.007668	-0.018250	
61100	    0	14.526054	-4.765052	-2.918177	-1.463624	1.695385	-3.731259	0.144083	-0.050564	-0.030044	0.999763	-0.007318	0.008476	-0.018655	
61101	    0	15.499202	-6.246384	-3.683929	-1.288516	1.763293	-3.776850	0.153442	-0.065613	-0.037781	0.999762	-0.006442	0.008816	-0.018883	
61102	    0	14.733637	-7.814883	-3.767511	-1.041685	1.660095	-3.863446	0.145471	-0.081170	-0.038470	0.999765	-0.005208	0.008300	-0.019316	
61103	    0	13.607838	-7.698970	-3.756698	-0.749265	1.479646	-4.007272	0.134216	-0.079834	-0.038269	0.999764	-0.003746	0.007398	-0.020035	
61104	    0	12.982843	-6.344197	-3.541492	-0.652747	1.423567	-4.076709	0.128242	-0.066184	-0.036119	0.999762	-0.003263	0.007117	-0.020382	
61105	    0	12.373916	-5.826734	-3.036017	-0.713213	1.400103	-4.030923	0.122314	-0.060852	-0.031006	0.999765	-0.003566	0.007000	-0.020153	
61106	    0	11.933549	-6.203094	-3.286903	-0.632714	1.333526	-3.939347	0.117860	-0.064467	-0.033457	0.999779	-0.003163	0.006667	-0.019695	
61107	    0	11.419306	-6.806007	-4.096094	-0.433188	1.226127	-3.823349	0.112610	-0.070312	-0.041504	0.999796	-0.002166	0.006130	-0.019115	
61108	    0	11.426339	-6.876358	-5.046375	-0.201619	1.107094	-3.705447	0.112681	-0.070912	-0.051020	0.999812	-0.001008	0.005535	-0.018526	
61109	    0	11.754816	-7.164989	-5.316980	0.010873	1.026976	-3.576867	0.115967	-0.073730	-0.053772	0.999826	0.000054	0.005135	-0.017883	
61110	    0	11.756314	-7.246296	-5.364358	0.262275	0.957731	-3.455539	0.116030	-0.074406	-0.054298	0.999838	0.001311	0.004788	-0.017277	
61111	    0	11.347619	-7.119852	-5.265226	0.419828	0.852245	-3.287667	0.112061	-0.072937	-0.053284	0.999853	0.002099	0.004261	-0.016438	
61112	    0	10.708010	-6.785257	-4.934386	0.501844	0.719864	-3.049978	0.105851	-0.069348	-0.049899	0.999873	0.002509	0.003599	-0.015249	
61113	    0	10.281044	-6.161360	-4.477358	0.492304	0.586721	-2.789404	0.101807	-0.062927	-0.045227	0.999895	0.002461	0.002934	-0.013947	
61114	    0	10.063426	-5.038288	-4.057723	0.419628	0.445950	-2.436511	0.099920	-0.051517	-0.040908	0.999921	0.002098	0.002230	-0.012182	
61115	    0	10.253044	-3.395848	-3.727076	0.166324	0.344283	-2.045478	0.102112	-0.034973	-0.037476	0.999946	0.000832	0.001721	-0.010227	
61116	    0	11.646943	-2.760145	-3.350660	-0.064660	0.299075	-1.544015	0.116201	-0.028510	-0.033671	0.999969	-0.000323	0.001495	-0.007720	
61117	    0	12.176360	-2.920621	-3.666943	-0.049591	0.233651	-0.936893	0.121582	-0.029785	-0.036804	0.999988	-0.000248	0.001168	-0.004684	
61118	    0	11.297322	-2.439515	-3.129813	-0.101662	0.142860	-0.268746	0.112918	-0.024563	-0.031366	0.999998	-0.000508	0.000714	-0.001344	
61119	    0	10.232803	-1.643161	-1.988033	-0.064087	0.043678	0.395966	0.102356	-0.016235	-0.019897	0.999997	-0.000320	0.000218	0.001980	
61120	    0	8.656724	-1.168185	-1.230122	0.196458	-0.031853	1.084905	0.086631	-0.011200	-0.012299	0.999985	0.000982	-0.000159	0.005424	
61121	    0	7.326237	-1.090179	-0.916383	0.581560	-0.106050	1.860839	0.073364	-0.010193	-0.009155	0.999952	0.002908	-0.000530	0.009304	
61122	    0	6.540868	-0.126463	-0.795048	0.933870	-0.212486	2.689071	0.065426	-0.000348	-0.007884	0.999898	0.004669	-0.001062	0.013445	
61123	    0	5.976412	0.779029	-1.113550	1.147719	-0.335713	3.544060	0.059631	0.008911	-0.010986	0.999825	0.005738	-0.001678	0.017719	
61124	    0	5.985333	0.998967	-1.576939	1.368832	-0.511023	4.323953	0.059657	0.011388	-0.015542	0.999739	0.006844	-0.002555	0.021618	
61125	    0	6.319001	1.280989	-2.433195	1.600073	-0.739948	5.029129	0.062927	0.014587	-0.023987	0.999644	0.007999	-0.003699	0.025143	
61126	    0	6.986167	2.018647	-2.833969	1.725457	-0.966218	5.678842	0.069382	0.022403	-0.027817	0.999548	0.008626	-0.004830	0.028390	
61127	    0	8.222202	3.140537	-2.878855	1.599408	-1.242861	6.241201	0.081360	0.034180	-0.028015	0.999461	0.007996	-0.006213	0.031200	
61128	    0	9.674052	4.053279	-2.801792	1.287152	-1.525047	6.721538	0.095510	0.043933	-0.027011	0.999385	0.006434	-0.007624	0.033601	
61129	    0	11.239110	4.641798	-2.790341	0.863270	-1.829179	7.074808	0.110901	0.050476	-0.026672	0.999323	0.004315	-0.009144	0.035366	
61130	    0	12.322918	4.300732	-2.530639	0.496414	-2.133323	7.369712	0.121792	0.047574	-0.023888	0.999261	0.002481	-0.010664	0.036839	
61131	    0	13.499005	3.371977	-1.682568	0.168081	-2.379457	7.487125	0.133789	0.038757	-0.015198	0.999228	0.000840	-0.011894	0.037426	
61132	    0	14.815126	2.612364	-1.206817	0.026901	-2.624821	7.503769	0.147174	0.031660	-0.010128	0.999209	0.000134	-0.013121	0.037509	
61133	    0	16.684527	2.666526	-0.217751	-0.061051	-2.779927	7.430690	0.165710	0.032837	0.000122	0.999213	-0.000305	-0.013896	0.037144	
61134	    0	17.695851	2.535709	0.763308	-0.055327	-2.916323	7.293096	0.175741	0.031784	0.010194	0.999228	-0.000277	-0.014578	0.036456	
61135	    0	18.499522	2.666985	1.255938	0.189448	-2.966303	7.243671	0.183655	0.033325	0.015320	0.999233	0.000947	-0.014828	0.036209	
61136	    0	19.152598	2.941274	1.575486	0.550220	-2.915364	7.246915	0.190037	0.036269	0.018626	0.999233	0.002750	-0.014573	0.036225	
61137	    0	20.142372	5.132335	1.408494	0.819797	-2.775520	7.277250	0.199158	0.058533	0.017090	0.999233	0.004098	-0.013874	0.036377	
61138	    0	20.586147	7.914478	0.773696	0.811022	-2.664677	7.330866	0.202648	0.086574	0.010793	0.999231	0.004054	-0.013320	0.036645	
61139	    0	20.569722	9.291863	-0.373591	0.751690	-2.592187	7.415407	0.202087	0.100464	-0.000732	0.999221	0.003757	-0.012958	0.037067	
61140	    0	20.981277	10.046585	-1.996643	0.860058	-2.565864	7.443657	0.206109	0.108261	-0.016851	0.999214	0.004299	-0.012826	0.037209	
61141	    0	22.229611	11.380800	-3.255288	1.172947	-2.605170	7.417724	0.218262	0.122131	-0.028992	0.999209	0.005863	-0.013022	0.037079	
61142	    0	23.676579	14.337020	-3.863116	1.491928	-2.725917	7.191208	0.231890	0.152035	-0.034335	0.999232	0.007458	-0.013626	0.035947	
61143	    0	24.166714	16.804842	-2.659555	1.600260	-2.871425	6.750548	0.236145	0.176270	-0.021790	0.999295	0.007999	-0.014354	0.033745	
61144	    0	23.222717	19.435406	4.066777	1.309262	-2.639508	6.071480	0.225617	0.200986	0.044976	0.999431	0.006545	-0.013195	0.030352	
61145	    0	21.779456	17.653032	13.149128	0.828860	-1.966372	5.414582	0.211609	0.181763	0.134338	0.999577	0.004144	-0.009830	0.027069	
61146	    0	20.670835	15.188567	8.956817	2.286058	-1.574145	4.783668	0.202291	0.155710	0.092937	0.999618	0.011429	-0.007870	0.023915	
61147	    0	17.794626	23.632647	1.083934	3.365906	-1.303251	3.837266	0.173279	0.239441	0.015991	0.999653	0.016828	-0.006516	0.019184	
61148	    0	9.996778	33.209441	-0.834570	3.080020	-1.111302	2.596663	0.095670	0.333426	-0.002678	0.999782	0.015399	-0.005556	0.012982	
61149	    0	8.647602	37.037874	0.848598	2.133240	-0.890185	1.251257	0.084106	0.370789	0.012817	0.999913	0.010666	-0.004451	0.006256	
61150	    0	11.589317	32.611576	4.786736	1.142129	-0.605397	-0.200082	0.116070	0.325718	0.050079	0.999978	0.005711	-0.003027	-0.001000	
61151	    0	12.831972	26.028887	7.944673	0.899707	-0.115205	-1.381699	0.130066	0.259033	0.080688	0.999966	0.004498	-0.000576	-0.006908	
61152	    0	10.126954	23.911778	6.284002	1.523829	0.251778	-2.266001	0.104047	0.237462	0.064524	0.999906	0.007619	0.001259	-0.011330	
61153	    0	10.118810	22.735141	0.796859	1.735962	0.323502	-2.906939	0.104492	0.225769	0.009766	0.999855	0.008679	0.001617	-0.014534	
61154	    0	12.235482	19.296065	-3.647946	1.546567	0.072483	-3.376201	0.125579	0.191133	-0.035042	0.999827	0.007732	0.000362	-0.016880	
61155	    0	16.815337	24.216937	-4.795053	2.091407	-0.247787	-4.170606	0.173218	0.239075	-0.045227	0.999726	0.010456	-0.001239	-0.020851	
61156	    0	20.205774	52.634382	-7.349639	1.467151	-0.228151	-5.660102	0.216932	0.520864	-0.069420	0.999572	0.007335	-0.001141	-0.028296	
61157	    0	34.253326	42.163354	-17.614277	-1.158340	0.306945	-6.298381	0.355286	0.409546	-0.179077	0.999486	-0.005791	0.001534	-0.031487	
61158	    0	43.576595	9.567655	-3.916738	-0.625382	0.627672	-7.624209	0.438860	0.078857	-0.040806	0.999263	-0.003126	0.003138	-0.038112	
61159	    0	38.226031	6.391111	7.055287	0.845006	0.941736	-8.179520	0.384766	0.047913	0.068970	0.999144	0.004224	0.004707	-0.040886	
61160	    0	18.199334	1.581510	11.485804	0.004388	1.243514	-7.555900	0.183126	0.008907	0.113722	0.999267	0.000022	0.006216	-0.037770	
61161	    0	7.349163	11.110565	7.975619	1.128059	1.087424	-7.030481	0.077759	0.107971	0.079956	0.999352	0.005639	0.005436	-0.035145	
61162	    0	-3.880846	17.103176	2.497008	0.645551	0.691716	-6.145132	-0.033444	0.172032	0.025646	0.999516	0.003227	0.003458	-0.030721	
61163	    0	6.447517	18.739626	1.579411	-0.446368	0.714379	-5.028316	0.069214	0.185730	0.015137	0.999675	-0.002232	0.003572	-0.025139	
61164	    0	14.605176	8.162739	3.961657	-0.877639	0.442158	-4.190578	0.147808	0.078714	0.038941	0.999768	-0.004388	0.002211	-0.020951	
61165	    0	20.036400	5.408429	2.141937	-0.826313	0.390839	-3.676062	0.201355	0.050476	0.020813	0.999820	-0.004131	0.001954	-0.018379	
61166	    0	22.726878	8.535176	1.476373	-1.271888	0.322741	-3.319154	0.228667	0.081655	0.013868	0.999841	-0.006359	0.001614	-0.016595	
61167	    0	25.892710	6.045373	4.540292	-1.635637	0.240338	-3.126689	0.259888	0.056763	0.044617	0.999844	-0.008178	0.001202	-0.015633	
61168	    0	25.806604	3.385103	6.417921	-1.888754	0.148972	-2.961693	0.258583	0.030627	0.063687	0.999846	-0.009443	0.000745	-0.014808	
61169	    0	24.736806	2.210860	6.442093	-2.084264	0.099187	-2.770372	0.247681	0.019348	0.064087	0.999849	-0.010421	0.000496	-0.013851	
61170	    0	23.471020	0.002364	5.105727	-2.605956	0.034716	-2.401478	0.234702	-0.002130	0.051035	0.999843	-0.013029	0.000174	-0.012007	
61171	    0	22.595652	-3.070645	4.167371	-3.428108	-0.017358	-1.931124	0.225647	-0.032166	0.042236	0.999806	-0.017139	-0.000087	-0.009655	
61172	    0	21.042117	-3.706107	2.581589	-3.861135	-0.006676	-1.571578	0.210123	-0.038205	0.026553	0.999783	-0.019304	-0.000033	-0.007857	
61173	    0	21.720949	-6.687141	-0.687249	-3.898891	0.116166	-1.206291	0.216797	-0.068298	-0.005676	0.999791	-0.019493	0.000581	-0.006031	
61174	    0	20.044436	-10.907410	-3.933539	-3.434933	0.338000	-0.790828	0.199944	-0.110523	-0.037784	0.999843	-0.017174	0.001690	-0.003954	
61175	    0	18.219416	-11.545709	-4.525986	-2.068942	0.478372	-0.453958	0.181824	-0.116333	-0.044495	0.999941	-0.010345	0.002392	-0.002270	
61176	    0	17.363169	-4.467938	-2.909767	-0.488474	0.502016	-0.772098	0.173384	-0.045421	-0.029423	0.999986	-0.002442	0.002510	-0.003860	
61177	    0	15.431498	6.410065	-2.737119	-0.020409	0.508886	-1.514451	0.154724	0.062927	-0.027771	0.999968	-0.000102	0.002544	-0.007572	
61178	    0	8.787834	10.224197	-7.943754	-0.156787	0.470362	-2.162024	0.088789	0.101223	-0.079725	0.999938	-0.000784	0.002352	-0.010810	
61179	    0	17.382653	21.691220	-16.944637	-1.254337	0.678479	-3.219008	0.176697	0.213013	-0.171387	0.999845	-0.006271	0.003392	-0.016094	
61180	    0	15.862489	9.718804	-9.564194	-2.253706	1.543546	-3.323621	0.159449	0.093448	-0.097938	0.999768	-0.011268	0.007717	-0.016617	
61181	    0	13.634646	0.024898	-3.036271	-1.917215	1.771673	-3.244253	0.136047	-0.002258	-0.031555	0.999783	-0.009585	0.008858	-0.016220	
61182	    0	12.012713	-5.060385	-2.474974	-0.887352	1.664071	-3.290946	0.119061	-0.052681	-0.025513	0.999820	-0.004436	0.008320	-0.016454	
61183	    0	13.315776	-4.724415	-3.123596	-0.521122	1.688687	-3.557821	0.132019	-0.049683	-0.032227	0.999803	-0.002605	0.008443	-0.017788	
61184	    0	14.979925	-3.915228	-4.225662	-0.704626	1.807726	-3.707202	0.148648	-0.042067	-0.043459	0.999781	-0.003523	0.009038	-0.018535	
61185	    0	16.301038	-5.068302	-5.673497	-0.811638	1.806013	-3.750891	0.161499	-0.053955	-0.057983	0.999775	-0.004058	0.009029	-0.018753	
61186	    0	16.316553	-6.610038	-6.420136	-0.709396	1.553652	-3.878693	0.161336	-0.069471	-0.065217	0.999775	-0.003547	0.007768	-0.019392	
61187	    0	15.117804	-6.595726	-6.544125	-0.792757	1.321706	-4.075945	0.149353	-0.069275	-0.066162	0.999763	-0.003963	0.006608	-0.020378	
61188	    0	14.450102	-6.174853	-5.647005	-1.075261	1.254758	-4.138908	0.142821	-0.065022	-0.057026	0.999751	-0.005376	0.006273	-0.020693	
61189	    0	14.114237	-6.559933	-5.059124	-1.339069	1.180555	-4.066038	0.139465	-0.068787	-0.050964	0.999753	-0.006695	0.005902	-0.020329	
61190	    0	13.427125	-7.551647	-5.180329	-1.500248	1.049315	-3.941655	0.132471	-0.078528	-0.051920	0.999763	-0.007501	0.005246	-0.019707	
61191	    0	12.835745	-8.176375	-5.299218	-1.556511	0.906630	-3.805060	0.126526	-0.084595	-0.052917	0.999778	-0.007782	0.004533	-0.019024	
61192	    0	12.825038	-8.565658	-5.179062	-1.534377	0.790269	-3.686969	0.126433	-0.088395	-0.051621	0.999792	-0.007671	0.003951	-0.018434	
61193	    0	12.869615	-9.039366	-4.809945	-1.294788	0.737998	-3.532626	0.126892	-0.092957	-0.047974	0.999816	-0.006474	0.003690	-0.017662	
61194	    0	12.485535	-9.157504	-4.571289	-0.925304	0.678862	-3.387250	0.123123	-0.093882	-0.045702	0.999840	-0.004626	0.003394	-0.016935	
61195	    0	11.732599	-8.824980	-4.245165	-0.521874	0.556398	-3.180073	0.115784	-0.090210	-0.042542	0.999866	-0.002609	0.002782	-0.015900	
61196	    0	10.918832	-7.793479	-3.708619	-0.171858	0.421539	-2.916251	0.107958	-0.079547	-0.037247	0.999890	-0.000859	0.002108	-0.014581	
61197	    0	10.408052	-6.237816	-3.249722	0.050355	0.271805	-2.610091	0.103210	-0.063721	-0.032654	0.999913	0.000252	0.001359	-0.013050	
61198	    0	9.799963	-4.569764	-3.159607	0.222974	0.099375	-2.218102	0.097469	-0.046745	-0.031696	0.999937	0.001115	0.000497	-0.011090	
61199	    0	9.539863	-2.796159	-3.293086	0.312237	-0.034333	-1.758599	0.095154	-0.028748	-0.032959	0.999960	0.001561	-0.000172	-0.008793	
61200	    0	10.007543	-1.482938	-3.383351	0.340273	-0.124169	-1.213845	0.100004	-0.015379	-0.033797	0.999979	0.001701	-0.000621	-0.006069	
61201	    0	9.764402	-1.005743	-3.800374	0.217438	-0.229454	-0.611879	0.097656	-0.010315	-0.037903	0.999993	0.001087	-0.001147	-0.003059	
61202	    0	8.839219	-0.460564	-3.549242	-0.189018	-0.312615	0.085068	0.088449	-0.004601	-0.035350	0.999998	-0.000945	-0.001563	0.000425	
61203	    0	6.448910	-0.529234	-2.676475	-0.213433	-0.458529	0.978856	0.064575	-0.005005	-0.026611	0.999985	-0.001067	-0.002293	0.004894	
61204	    0	5.015946	-0.985199	-1.821740	0.118639	-0.596819	1.887352	0.050303	-0.009367	-0.018073	0.999950	0.000593	-0.002984	0.009437	
61205	    0	4.876101	-0.650056	-1.309522	0.592061	-0.710893	2.717684	0.048889	-0.005798	-0.012939	0.999896	0.002960	-0.003554	0.013588	
61206	    0	4.882474	0.562944	-1.160475	0.929505	-0.817347	3.531662	0.048761	0.006544	-0.011376	0.999825	0.004647	-0.004086	0.017657	
61207	    0	5.398074	1.387308	-0.966990	1.133252	-0.923235	4.271298	0.053711	0.015076	-0.009338	0.999744	0.005666	-0.004616	0.021355	
61208	    0	5.893797	1.439983	-1.184165	1.420567	-1.078158	4.961207	0.058618	0.015939	-0.011415	0.999652	0.007102	-0.005390	0.024803	
61209	    0	6.484828	1.817243	-1.393167	1.642087	-1.255792	5.567224	0.064392	0.020081	-0.013367	0.999558	0.008209	-0.006278	0.027832	
61210	    0	7.315120	2.778702	-1.557229	1.676858	-1.459000	6.149815	0.072358	0.030147	-0.014796	0.999465	0.008383	-0.007294	0.030744	
61211	    0	8.340953	3.692528	-1.879828	1.460754	-1.674993	6.622135	0.082275	0.039795	-0.017822	0.999390	0.007302	-0.008373	0.033104	
61212	    0	9.777823	3.894996	-2.314987	1.115476	-1.939063	6.980551	0.096554	0.042459	-0.021979	0.999328	0.005576	-0.009693	0.034895	
61213	    0	11.402172	3.831266	-2.506624	0.870155	-2.237487	7.284806	0.112793	0.042542	-0.023621	0.999264	0.004350	-0.011185	0.036415	
61214	    0	12.918141	3.674084	-2.261100	0.615473	-2.514168	7.528386	0.127945	0.041639	-0.020874	0.999207	0.003077	-0.012568	0.037632	
61215	    0	14.394137	3.456935	-1.263236	0.263477	-2.741992	7.623852	0.142639	0.040039	-0.010620	0.999178	0.001317	-0.013706	0.038109	
61216	    0	15.447133	2.734885	-0.823935	-0.058381	-2.949771	7.610526	0.153381	0.033198	-0.005980	0.999166	-0.000292	-0.014745	0.038042	
61217	    0	16.672986	1.623557	-0.545882	-0.115236	-3.129498	7.563605	0.166016	0.022522	-0.002869	0.999162	-0.000576	-0.015643	0.037807	
61218	    0	17.933233	2.137002	0.212020	0.025184	-3.218981	7.545680	0.178291	0.028111	0.004999	0.999158	0.000126	-0.016090	0.037718	
61219	    0	19.060244	2.737987	1.718957	0.178005	-3.212106	7.511703	0.189087	0.034485	0.020264	0.999165	0.000890	-0.016056	0.037548	
61220	    0	20.095814	3.738600	2.472132	0.483646	-3.135782	7.487834	0.198952	0.044796	0.027954	0.999173	0.002418	-0.015675	0.037429	
61221	    0	20.950960	5.936441	2.186841	0.718314	-2.992307	7.510912	0.206726	0.067078	0.025208	0.999176	0.003591	-0.014957	0.037544	
61222	    0	21.439040	8.403241	1.601208	0.779557	-2.811441	7.577307	0.210749	0.091993	0.019341	0.999175	0.003897	-0.014053	0.037876	
61223	    0	21.909128	10.535306	0.164151	0.858540	-2.670060	7.571942	0.214844	0.113525	0.005005	0.999185	0.004292	-0.013347	0.037849	
61224	    0	22.930552	12.736430	-1.367024	0.867312	-2.554431	7.536802	0.224435	0.135934	-0.010205	0.999199	0.004335	-0.012769	0.037674	
61225	    0	23.788113	14.554272	-1.667963	0.897445	-2.456336	7.365003	0.232483	0.154236	-0.013123	0.999236	0.004486	-0.012279	0.036816	
61226	    0	24.621935	17.122544	1.010256	0.722094	-2.299446	6.952137	0.239930	0.179595	0.013524	0.999323	0.003610	-0.011495	0.034753	
61227	    0	24.854978	17.456713	5.278821	0.763082	-2.092179	6.309160	0.242310	0.182068	0.056030	0.999440	0.003815	-0.010459	0.031540	
61228	    0	23.880928	17.148554	8.128689	1.379975	-1.797935	5.423373	0.233303	0.177286	0.084611	0.999567	0.006899	-0.008988	0.027113	
61229	    0	21.078974	20.348188	6.655930	2.382167	-1.488473	4.393503	0.205750	0.207214	0.070557	0.999660	0.011909	-0.007442	0.021965	
61230	    0	15.166630	27.719431	2.902744	2.944061	-1.231111	3.303246	0.146867	0.279170	0.034041	0.999736	0.014719	-0.006155	0.016515	
61231	    0	9.945458	35.043305	2.097066	2.492642	-0.977181	2.070717	0.095703	0.351135	0.025818	0.999856	0.012463	-0.004886	0.010353	
61232	    0	9.595669	35.561766	3.593715	1.568626	-0.713168	0.723849	0.094534	0.355663	0.039065	0.999956	0.007843	-0.003566	0.003619	
61233	    0	11.783252	29.012177	5.535804	1.318372	-0.385097	-0.641638	0.118652	0.289368	0.057495	0.999970	0.006592	-0.001925	-0.003208	
61234	    0	11.747816	24.905034	6.065952	1.822333	-0.027467	-1.897294	0.119822	0.247355	0.062935	0.999913	0.009111	-0.000137	-0.009486	
61235	    0	9.929973	24.478048	4.013073	2.326523	0.229658	-2.821508	0.102783	0.242859	0.042847	0.999832	0.011632	0.001148	-0.014107	
61236	    0	11.313944	22.214144	0.449672	2.273911	0.264377	-3.422979	0.116926	0.220093	0.006854	0.999787	0.011369	0.001322	-0.017114	
61237	    0	13.577783	16.250389	-1.783658	2.040451	0.057988	-3.831783	0.138855	0.160034	-0.016235	0.999763	0.010201	0.000290	-0.019157	
61238	    0	18.584572	23.768289	-3.959576	2.957156	-0.233871	-4.729504	0.191448	0.233748	-0.035898	0.999610	0.014784	-0.001169	-0.023644	
61239	    0	23.970787	48.214772	-6.335676	1.926939	-0.032049	-6.070209	0.254211	0.475159	-0.058716	0.999493	0.009633	-0.000160	-0.030346	
61240	    0	36.206869	19.451217	-2.836399	-0.944301	0.768604	-6.322809	0.367857	0.182801	-0.030652	0.999481	-0.004721	0.003842	-0.031609	
61241	    0	38.760025	2.189873	0.181678	0.526555	0.732789	-7.543471	0.388062	0.007263	0.000427	0.999278	0.002632	0.003663	-0.037708	
61242	    0	34.501583	16.563939	2.873469	2.152539	0.882232	-8.314044	0.351619	0.150801	0.028870	0.999068	0.010759	0.004410	-0.041557	
61243	    0	18.690344	11.913937	7.358305	0.003052	1.067036	-7.512178	0.191589	0.112000	0.072571	0.999280	0.000015	0.005334	-0.037552	
61244	    0	4.300352	9.636640	8.088271	0.626880	0.883851	-6.842646	0.046618	0.094559	0.080980	0.999399	0.003134	0.004418	-0.034206	
61245	    0	-1.012455	17.958697	3.540202	0.174739	0.756377	-5.955638	-0.004639	0.179749	0.035583	0.999549	0.000874	0.003781	-0.029774	
61246	    0	5.498867	15.772394	1.568445	-0.561010	0.702169	-4.950473	0.058924	0.156341	0.015042	0.999683	-0.002805	0.003510	-0.024750	
61247	    0	12.273167	7.568961	0.540494	-0.863526	0.524945	-4.284251	0.124329	0.073059	0.004761	0.999758	-0.004317	0.002625	-0.021420	
61248	    0	17.442522	5.457784	0.152659	-0.970327	0.413920	-3.660233	0.175387	0.051379	0.000910	0.999818	-0.004851	0.002069	-0.018300	
61249	    0	22.838127	9.931812	0.522695	-1.362492	0.416587	-3.283867	0.229980	0.095581	0.004089	0.999840	-0.006812	0.002083	-0.016418	
61250	    0	24.936890	6.232435	4.824033	-1.694958	0.370045	-3.066985	0.250378	0.058893	0.047269	0.999845	-0.008474	0.001850	-0.015334	
61251	    0	24.725981	4.577475	5.518576	-1.802915	0.330560	-2.909231	0.247986	0.042664	0.054382	0.999852	-0.009014	0.001653	-0.014545	
61252	    0	24.230793	3.413954	6.123648	-2.062896	0.212870	-2.684340	0.242807	0.031510	0.060644	0.999856	-0.010314	0.001064	-0.013421	
61253	    0	23.022517	0.866258	5.595638	-2.412530	0.124556	-2.382774	0.230347	0.006592	0.055725	0.999856	-0.012062	0.000623	-0.011913	
61254	    0	22.674497	-1.189263	4.930654	-3.007478	0.028421	-1.964675	0.226625	-0.013376	0.049468	0.999838	-0.015037	0.000142	-0.009823	
61255	    0	21.066955	-1.949204	3.657163	-3.454797	-0.005913	-1.568698	0.210510	-0.020508	0.036926	0.999820	-0.017273	-0.000030	-0.007843	
61256	    0	20.420107	-4.174295	1.188220	-3.490076	0.061802	-1.246142	0.203940	-0.042799	0.012560	0.999827	-0.017449	0.000309	-0.006230	
61257	    0	19.182840	-6.999679	-1.904548	-3.270690	0.186929	-0.971269	0.191467	-0.071228	-0.018066	0.999853	-0.016353	0.000935	-0.004856	
61258	    0	17.163244	-10.149701	-4.159303	-2.804091	0.325596	-0.619338	0.171249	-0.102600	-0.040439	0.999895	-0.014020	0.001628	-0.003097	
61259	    0	15.995807	-8.348153	-4.583053	-1.568431	0.374608	-0.487524	0.159668	-0.084229	-0.045471	0.999964	-0.007842	0.001873	-0.002438	
61260	    0	16.914962	-1.161366	-3.827476	-0.585750	0.326540	-0.898175	0.169032	-0.012486	-0.038515	0.999984	-0.002929	0.001633	-0.004491	
61261	    0	12.450348	6.852448	-4.434500	-0.507932	0.257113	-1.452651	0.124939	0.067505	-0.044678	0.999969	-0.002540	0.001286	-0.007263	
61262	    0	8.782819	10.618863	-9.775289	-0.901051	0.308997	-2.078865	0.088771	0.104827	-0.098364	0.999934	-0.004505	0.001545	-0.010394	
61263	    0	18.709937	18.859416	-14.183752	-2.047653	0.645483	-2.967237	0.189392	0.184326	-0.144348	0.999832	-0.010238	0.003227	-0.014835	
61264	    0	14.430413	10.074405	-6.234435	-2.498235	1.347830	-3.040533	0.145375	0.097742	-0.064555	0.999784	-0.012490	0.006739	-0.015202	
61265	    0	13.436619	1.131049	-2.288447	-2.213436	1.479630	-3.000842	0.134338	0.009033	-0.023987	0.999799	-0.011066	0.007398	-0.015003	
61266	    0	12.145598	-3.864543	-2.588268	-1.599598	1.482480	-3.104396	0.120640	-0.040732	-0.026459	0.999820	-0.007998	0.007412	-0.015521	
61267	    0	13.369752	-5.173473	-3.539065	-1.287163	1.633750	-3.360967	0.132507	-0.054199	-0.036133	0.999804	-0.006435	0.008168	-0.016804	
61268	    0	14.855410	-6.215566	-5.246589	-0.829752	1.749729	-3.519676	0.146962	-0.064972	-0.053491	0.999798	-0.004148	0.008748	-0.017597	
61269	    0	15.837596	-7.591380	-6.046747	-0.263804	1.708337	-3.644809	0.156433	-0.078857	-0.061707	0.999796	-0.001319	0.008541	-0.018223	
61270	    0	14.624447	-8.868411	-4.518193	0.148402	1.598474	-3.851407	0.144134	-0.091439	-0.046407	0.999782	0.000742	0.007992	-0.019256	
61271	    0	13.535417	-9.149765	-2.318757	0.588463	1.512264	-4.014138	0.133301	-0.094116	-0.024475	0.999765	0.002942	0.007561	-0.020069	
61272	    0	12.618821	-9.453889	-1.780345	1.065913	1.380460	-4.054971	0.124109	-0.096970	-0.019177	0.999756	0.005329	0.006902	-0.020273	
61273	    0	11.150938	-9.313979	-3.179971	1.533824	1.122376	-4.001945	0.109436	-0.095093	-0.033142	0.999754	0.007668	0.005611	-0.020008	
61274	    0	10.224461	-8.575339	-5.500061	1.813461	0.800960	-3.907516	0.100327	-0.087220	-0.056191	0.999760	0.009067	0.004004	-0.019536	
61275	    0	9.992644	-7.020093	-7.048087	1.713879	0.526467	-3.802007	0.098389	-0.071472	-0.071350	0.999779	0.008569	0.002632	-0.019009	
61276	    0	10.816047	-5.416672	-7.560540	1.339428	0.354599	-3.707746	0.107003	-0.055649	-0.076165	0.999804	0.006697	0.001773	-0.018538	
61277	    0	11.599838	-4.325575	-7.313793	0.863123	0.271622	-3.541762	0.115112	-0.044983	-0.073486	0.999832	0.004315	0.001358	-0.017708	
61278	    0	11.934662	-3.851557	-6.696778	0.198373	0.200281	-3.310737	0.118621	-0.040417	-0.067126	0.999862	0.000992	0.001001	-0.016553	
61279	    0	11.957383	-3.734413	-5.804405	-0.362982	0.118260	-3.014490	0.118958	-0.039246	-0.058044	0.999884	-0.001815	0.000591	-0.015072	
61280	    0	12.151389	-3.599018	-4.841613	-0.800922	0.024033	-2.703566	0.121005	-0.037822	-0.048282	0.999900	-0.004004	0.000120	-0.013517	
61281	    0	11.769867	-3.895005	-4.308543	-0.911546	-0.096133	-2.353731	0.117249	-0.040527	-0.042847	0.999920	-0.004558	-0.000481	-0.011768	
61282	    0	11.715268	-3.574156	-4.107538	-0.911539	-0.170711	-1.922644	0.116836	-0.037052	-0.040809	0.999943	-0.004558	-0.000854	-0.009613	
61283	    0	12.086972	-3.111211	-3.086742	-0.946628	-0.128175	-1.403062	0.120667	-0.032104	-0.030640	0.999964	-0.004733	-0.000641	-0.007015	
61284	    0	11.958363	-2.908549	-2.950836	-0.807004	-0.125886	-0.878339	0.119473	-0.029729	-0.029314	0.999982	-0.004035	-0.000629	-0.004392	
61285	    0	10.750026	-2.792415	-2.870779	-0.842288	-0.160027	-0.286103	0.107483	-0.028198	-0.028503	0.999990	-0.004211	-0.000800	-0.001431	
61286	    0	8.924040	-1.681150	-2.286572	-0.838855	-0.245286	0.448992	0.089306	-0.016706	-0.022686	0.999988	-0.004194	-0.001226	0.002245	
61287	    0	7.366124	-1.810561	-1.378468	-0.732428	-0.294307	1.235210	0.073792	-0.017700	-0.013611	0.999972	-0.003662	-0.001472	0.006176	
61288	    0	6.702752	-1.903553	-0.294130	-0.363737	-0.402457	1.933130	0.067213	-0.018392	-0.002772	0.999949	-0.001819	-0.002012	0.009665	
61289	    0	6.567932	-0.929607	-0.046362	-0.003624	-0.481429	2.655873	0.065796	-0.008423	-0.000305	0.999908	-0.000018	-0.002407	0.013279	
61290	    0	6.579295	-0.304797	0.016774	0.336855	-0.577192	3.392007	0.065831	-0.001932	0.000354	0.999850	0.001684	-0.002886	0.016959	
61291	    0	6.596517	-0.627201	-0.711944	0.848453	-0.742206	4.116371	0.066101	-0.004883	-0.006897	0.999772	0.004242	-0.003711	0.020580	
61292	    0	6.902226	-0.161801	-1.574656	1.420745	-0.954730	4.762395	0.069107	0.000137	-0.015420	0.999680	0.007103	-0.004773	0.023809	
61293	    0	7.428510	1.258963	-2.156900	1.787245	-1.207139	5.373370	0.074036	0.014771	-0.020996	0.999580	0.008935	-0.006035	0.026863	
61294	    0	8.441623	2.431720	-2.525048	1.817627	-1.412057	5.918162	0.083817	0.027028	-0.024420	0.999496	0.009087	-0.007059	0.029586	
61295	    0	9.803702	2.999115	-2.820118	1.634720	-1.594085	6.377104	0.097229	0.033325	-0.027161	0.999426	0.008172	-0.007969	0.031879	
61296	    0	11.451524	2.835920	-2.802049	1.299557	-1.780499	6.717364	0.113715	0.032365	-0.026804	0.999374	0.006496	-0.008901	0.033580	
61297	    0	12.791451	2.414429	-2.391499	0.935762	-1.986372	6.958789	0.127197	0.028687	-0.022522	0.999334	0.004678	-0.009930	0.034786	
61298	    0	13.660341	2.481339	-1.757391	0.604008	-2.187479	7.152710	0.135779	0.029730	-0.016001	0.999295	0.003019	-0.010935	0.035755	
61299	    0	14.740171	3.166789	-1.095341	0.106837	-2.343363	7.247388	0.146240	0.036987	-0.009216	0.999274	0.000534	-0.011714	0.036228	
61300	    0	15.766970	2.969277	-0.524049	-0.450627	-2.475014	7.269172	0.156502	0.035387	-0.003374	0.999260	-0.002253	-0.012372	0.036337	
61301	    0	16.784402	1.866352	0.103942	-0.748438	-2.580138	7.228353	0.166992	0.024719	0.003113	0.999256	-0.003741	-0.012897	0.036133	
61302	    0	17.183522	1.805264	0.630618	-0.602490	-2.617913	7.232362	0.170931	0.024269	0.008481	0.999255	-0.003012	-0.013086	0.036153	
61303	    0	17.733367	2.896713	1.118035	-0.386143	-2.550947	7.264219	0.175964	0.035400	0.013367	0.999257	-0.001930	-0.012752	0.036312	
61304	    0	18.492867	4.711017	1.114536	-0.276443	-2.453840	7.309628	0.182888	0.053838	0.013327	0.999255	-0.001382	-0.012266	0.036539	
61305	    0	19.112929	6.247212	0.329760	-0.237143	-2.401572	7.368026	0.188599	0.069458	0.005493	0.999249	-0.001185	-0.012005	0.036831	
61306	    0	19.875941	6.891066	-0.882780	-0.140035	-2.397766	7.435210	0.196103	0.076230	-0.006517	0.999236	-0.000700	-0.011986	0.037167	
61307	    0	21.203315	7.530596	-2.399363	0.173423	-2.436695	7.482553	0.209290	0.083191	-0.021362	0.999226	0.000867	-0.012180	0.037403	
61308	    0	22.495167	9.762541	-3.262580	0.647331	-2.571389	7.414254	0.221518	0.105980	-0.029428	0.999225	0.003236	-0.012854	0.037062	
61309	    0	23.454140	13.192127	-3.359541	1.082119	-2.753183	7.161215	0.230042	0.140381	-0.029663	0.999249	0.005409	-0.013762	0.035797	
61310	    0	23.659679	16.194372	-0.258211	1.148097	-2.761691	6.660796	0.231028	0.169700	0.001594	0.999333	0.005739	-0.013805	0.033297	
61311	    0	23.509416	17.562561	8.519571	0.643269	-2.308864	5.983244	0.228699	0.182251	0.088440	0.999480	0.003216	-0.011542	0.029911	
61312	    0	23.144720	14.137665	11.648511	1.304997	-1.842372	5.296867	0.226518	0.146646	0.119533	0.999585	0.006524	-0.009211	0.026481	
61313	    0	21.444896	17.042930	6.678793	2.860811	-1.513099	4.441629	0.210083	0.174133	0.070862	0.999622	0.014302	-0.007565	0.022205	
61314	    0	14.745878	26.969313	1.028001	3.690359	-1.268907	3.305032	0.142888	0.271817	0.016199	0.999673	0.018450	-0.006344	0.016523	
61315	    0	9.052097	34.216775	-0.829916	3.346675	-1.104813	2.046345	0.087036	0.343140	-0.002075	0.999792	0.016732	-0.005524	0.010231	
61316	    0	10.492097	35.227835	2.631291	2.580157	-0.938065	0.681518	0.103581	0.352250	0.031345	0.999900	0.012900	-0.004690	0.003407	
61317	    0	12.703169	29.972474	7.313942	1.943433	-0.486764	-0.641644	0.127808	0.298584	0.076355	0.999945	0.009717	-0.002434	-0.003208	
61318	    0	11.479202	26.057913	7.567588	2.301486	0.016404	-1.720488	0.117029	0.258685	0.078650	0.999896	0.011507	0.000082	-0.008602	
61319	    0	9.133143	25.395246	2.297244	2.768112	0.226035	-2.613989	0.094666	0.252380	0.026367	0.999818	0.013840	0.001130	-0.013069	
61320	    0	11.596785	22.769954	-2.866787	2.605815	0.119790	-3.218309	0.119599	0.226143	-0.025785	0.999785	0.013028	0.000599	-0.016090	
61321	    0	13.253923	17.953881	-2.942140	2.408988	-0.080878	-3.721160	0.135864	0.177368	-0.027222	0.999754	0.012044	-0.000404	-0.018604	
61322	    0	19.747685	35.822692	-4.269827	3.376340	-0.316478	-5.071854	0.206547	0.353715	-0.036379	0.999535	0.016879	-0.001582	-0.025355	
61323	    0	28.552237	56.643331	-1.739265	1.937463	0.121521	-6.386989	0.303406	0.557068	-0.012146	0.999442	0.009686	0.000607	-0.031929	
61324	    0	38.282765	22.837147	-1.453486	-0.612953	0.732567	-6.838059	0.390275	0.215062	-0.016628	0.999404	-0.003064	0.003662	-0.034184	
61325	    0	37.037085	3.917281	-2.138542	0.937330	0.686828	-7.909974	0.371460	0.024597	-0.022522	0.999201	0.004685	0.003433	-0.039539	
61326	    0	30.361333	17.554945	3.691227	1.518508	0.788159	-8.247525	0.310642	0.162553	0.036964	0.999113	0.007590	0.003940	-0.041225	
61327	    0	16.827581	11.147008	8.063829	-0.058760	0.973931	-7.464836	0.172668	0.105103	0.079773	0.999291	-0.000294	0.004869	-0.037315	
61328	    0	0.373712	9.332580	6.394579	0.951767	0.639090	-6.831963	0.007119	0.092815	0.064369	0.999400	0.004758	0.003195	-0.034153	
61329	    0	-1.919585	20.023939	2.487056	0.474616	0.579344	-5.802219	-0.013306	0.200623	0.025391	0.999572	0.002373	0.002896	-0.029007	
61330	    0	4.422855	16.480723	-0.043600	-0.267626	0.487373	-4.702817	0.048085	0.163706	-0.000770	0.999720	-0.001338	0.002437	-0.023512	
61331	    0	13.681350	9.625671	1.414073	-0.787978	0.316641	-3.886670	0.138672	0.093628	0.013550	0.999802	-0.003940	0.001583	-0.019432	
61332	    0	20.081783	6.588382	0.739214	-1.009799	0.226032	-3.243985	0.201859	0.062651	0.006843	0.999855	-0.005049	0.001130	-0.016219	
61333	    0	24.312814	9.131924	2.000108	-1.367247	0.186356	-2.919133	0.244446	0.087891	0.019165	0.999869	-0.006836	0.000932	-0.014595	
61334	    0	26.732130	6.560988	4.876335	-1.624558	0.097470	-2.747652	0.268216	0.062322	0.048118	0.999872	-0.008122	0.000487	-0.013738	
61335	    0	26.190087	3.650877	5.918219	-1.944053	-0.041010	-2.539934	0.262329	0.033752	0.058899	0.999871	-0.009720	-0.000205	-0.012699	
61336	    0	24.745409	2.630808	6.202335	-2.210522	-0.122076	-2.353008	0.247708	0.024079	0.061900	0.999869	-0.011052	-0.000610	-0.011765	
61337	    0	24.603114	0.115994	5.822177	-2.750343	-0.202952	-2.092084	0.245972	-0.000610	0.058472	0.999849	-0.013751	-0.001015	-0.010460	
61338	    0	22.512138	-2.496862	4.278987	-3.546558	-0.298900	-1.598269	0.224852	-0.025998	0.043581	0.999809	-0.017732	-0.001494	-0.007991	
61339	    0	21.122560	-3.975792	2.372468	-3.997906	-0.294516	-1.250550	0.210938	-0.040588	0.024841	0.999779	-0.019988	-0.001472	-0.006252	
61340	    0	20.340086	-4.692489	-1.173923	-3.962412	-0.211349	-1.019931	0.203169	-0.048179	-0.010578	0.999789	-0.019811	-0.001057	-0.005099	
61341	    0	18.603652	-8.422339	-3.505204	-3.672051	0.019838	-0.712627	0.185730	-0.085510	-0.033508	0.999825	-0.018359	0.000099	-0.003563	
61342	    0	16.271021	-9.173783	-3.421341	-2.678000	0.191504	-0.434889	0.162477	-0.092540	-0.033134	0.999907	-0.013390	0.000957	-0.002174	
61343	    0	16.301302	-2.740830	-1.505784	-1.492899	0.202181	-0.682076	0.162903	-0.028076	-0.015015	0.999966	-0.007464	0.001011	-0.003410	
61344	    0	15.266737	8.503619	-2.240733	-1.517702	0.156405	-1.227398	0.153167	0.083923	-0.023167	0.999951	-0.007588	0.000782	-0.006137	
61345	    0	9.936478	10.319551	-6.853781	-2.264481	0.383199	-1.696072	0.100098	0.101562	-0.069885	0.999898	-0.011322	0.001916	-0.008480	
61346	    0	14.953250	17.793062	-14.533239	-2.808940	0.452070	-2.679805	0.151547	0.173841	-0.148134	0.999808	-0.014044	0.002260	-0.013398	
61347	    0	16.666899	15.034475	-13.550461	-4.046903	1.036953	-3.163509	0.168274	0.144897	-0.139343	0.999657	-0.020232	0.005184	-0.015816	
61348	    0	14.058593	5.062714	-5.341338	-3.959358	1.562874	-3.170767	0.140925	0.047310	-0.055472	0.999647	-0.019794	0.007813	-0.015852	
61349	    0	11.259898	-2.604309	-1.983871	-3.023042	1.605562	-3.189378	0.112000	-0.028137	-0.020325	0.999726	-0.015114	0.008027	-0.015945	
61350	    0	11.741714	-5.832953	-2.139613	-2.001149	1.677257	-3.335821	0.116239	-0.060492	-0.021776	0.999775	-0.010005	0.008386	-0.016678	
61351	    0	12.602134	-6.779212	-2.570023	-1.227466	1.844918	-3.480777	0.124573	-0.070129	-0.026428	0.999786	-0.006137	0.009224	-0.017403	
61352	    0	13.033585	-8.367451	-3.737104	-0.459129	1.933417	-3.460160	0.128493	-0.085996	-0.038424	0.999801	-0.002295	0.009666	-0.017300	
61353	    0	12.945698	-10.095376	-4.186092	0.214590	1.844903	-3.405975	0.127319	-0.103088	-0.043152	0.999811	0.001073	0.009224	-0.017029	
61354	    0	11.757911	-9.687599	-3.719521	0.791408	1.615814	-3.391093	0.115608	-0.098697	-0.038523	0.999815	0.003957	0.008079	-0.016954	
61355	    0	10.711551	-7.058464	-3.484638	0.945529	1.440516	-3.369342	0.105652	-0.072205	-0.035950	0.999821	0.004727	0.007202	-0.016846	
61356	    0	10.834317	-5.529461	-3.194387	0.747531	1.372985	-3.269374	0.107198	-0.056931	-0.032893	0.999835	0.003737	0.006865	-0.016346	
61357	    0	10.420257	-5.663418	-4.101005	0.463890	1.286570	-3.149569	0.103027	-0.058167	-0.041809	0.999852	0.002319	0.006433	-0.015747	
61358	    0	9.511867	-7.205320	-6.005835	0.437755	1.075217	-2.951746	0.093718	-0.073311	-0.060724	0.999874	0.002189	0.005376	-0.014758	
61359	    0	9.157420	-8.228906	-7.018050	0.384727	0.881991	-2.829848	0.090088	-0.083435	-0.070740	0.999887	0.001924	0.004410	-0.014149	
61360	    0	10.090628	-8.271086	-7.014742	0.196082	0.713946	-2.818017	0.099477	-0.084050	-0.070586	0.999893	0.000980	0.003570	-0.014090	
61361	    0	11.071684	-8.116392	-6.529378	0.005532	0.576802	-2.805424	0.109375	-0.082703	-0.065613	0.999897	0.000028	0.002884	-0.014027	
61362	    0	11.660685	-7.574574	-6.059159	-0.139241	0.453201	-2.727977	0.115421	-0.077368	-0.060801	0.999904	-0.000696	0.002266	-0.013639	
61363	    0	11.892148	-6.944243	-5.666671	-0.288209	0.334177	-2.571942	0.117920	-0.071045	-0.056763	0.999914	-0.001441	0.001671	-0.012859	
61364	    0	11.897379	-5.825333	-5.230810	-0.393877	0.245291	-2.368222	0.118208	-0.059759	-0.052337	0.999927	-0.001969	0.001226	-0.011841	
61365	    0	11.995316	-4.241627	-4.895653	-0.492869	0.168041	-2.150770	0.119446	-0.043823	-0.048950	0.999938	-0.002464	0.000840	-0.010754	
61366	    0	12.347670	-2.837873	-4.654562	-0.578508	0.091363	-1.862174	0.123183	-0.029661	-0.046517	0.999952	-0.002892	0.000457	-0.009311	
61367	    0	13.824158	-1.967393	-4.332808	-0.675209	0.110055	-1.525897	0.138062	-0.020874	-0.043335	0.999965	-0.003376	0.000550	-0.007629	
61368	    0	15.560770	-2.221103	-4.226184	-0.732427	0.148584	-1.104745	0.155450	-0.023225	-0.042294	0.999977	-0.003662	0.000743	-0.005524	
61369	    0	14.560709	-2.975615	-3.774947	-0.740817	0.112343	-0.518801	0.145508	-0.030273	-0.037720	0.999990	-0.003704	0.000562	-0.002594	
61370	    0	12.693624	-2.940174	-2.332495	-0.517464	0.037193	0.124931	0.126950	-0.029383	-0.023273	0.999996	-0.002587	0.000186	0.000625	
61371	    0	11.080291	-2.423835	-1.766483	-0.035095	-0.038719	0.789644	0.110901	-0.023804	-0.017639	0.999991	-0.000175	-0.000194	0.003948	
61372	    0	10.341853	-1.072620	-1.281839	0.389675	-0.073624	1.415838	0.103496	-0.009969	-0.012800	0.999972	0.001948	-0.000368	0.007079	
61373	    0	9.546640	0.070875	-1.178644	0.727097	-0.131038	2.133987	0.095459	0.001770	-0.011719	0.999936	0.003635	-0.000655	0.010670	
61374	    0	9.116438	0.183466	-1.265086	1.028292	-0.210389	2.884406	0.091138	0.003214	-0.012541	0.999882	0.005141	-0.001052	0.014421	
61375	    0	8.906611	0.428361	-1.318070	1.453492	-0.316449	3.601302	0.088989	0.005981	-0.013000	0.999810	0.007267	-0.001582	0.018005	
61376	    0	8.650767	1.499548	-1.481533	1.873568	-0.472493	4.245189	0.086196	0.016964	-0.014459	0.999727	0.009367	-0.002362	0.021224	
61377	    0	8.588309	3.148446	-1.906174	2.073342	-0.672229	4.858973	0.085144	0.033752	-0.018433	0.999645	0.010365	-0.003361	0.024292	
61378	    0	8.840188	3.916691	-2.213616	2.035431	-0.884754	5.410966	0.087391	0.041760	-0.021332	0.999572	0.010176	-0.004423	0.027051	
61379	    0	9.659014	3.864277	-2.397900	1.878666	-1.096333	5.891624	0.095520	0.041687	-0.023071	0.999507	0.009392	-0.005481	0.029453	
61380	    0	11.006474	3.442829	-2.489657	1.653783	-1.309825	6.285102	0.109065	0.038067	-0.023875	0.999450	0.008267	-0.006548	0.031420	
61381	    0	12.376614	2.998292	-2.338610	1.398934	-1.526180	6.557231	0.122864	0.034180	-0.022217	0.999409	0.006993	-0.007629	0.032780	
61382	    0	13.323226	2.618714	-1.980757	1.093708	-1.745011	6.722500	0.132415	0.030751	-0.018490	0.999382	0.005467	-0.008723	0.033606	
61383	    0	13.834730	2.447791	-1.800094	0.840174	-1.950295	6.799228	0.137573	0.029236	-0.016541	0.999366	0.004200	-0.009749	0.033989	
61384	    0	14.438423	2.658006	-1.657187	0.605524	-2.076600	6.890077	0.143515	0.031582	-0.014988	0.999348	0.003027	-0.010381	0.034443	
61385	    0	15.181966	2.401611	-1.378962	0.298376	-2.199089	6.955738	0.151001	0.029297	-0.012085	0.999333	0.001492	-0.010993	0.034771	
61386	    0	16.097945	1.696461	-1.128583	0.234467	-2.252520	7.042965	0.160362	0.022632	-0.009453	0.999315	0.001172	-0.011260	0.035207	
61387	    0	17.167062	2.104349	-0.700817	0.221304	-2.237270	7.141255	0.170837	0.027161	-0.005066	0.999299	0.001106	-0.011184	0.035698	
61388	    0	18.160074	2.964755	-0.645213	0.358668	-2.196458	7.261305	0.180421	0.036222	-0.004405	0.999279	0.001793	-0.010980	0.036298	
61389	    0	19.033762	4.817405	-0.970026	0.480771	-2.184647	7.383270	0.188477	0.055176	-0.007507	0.999255	0.002403	-0.010921	0.036907	
61390	    0	19.968592	5.554532	-1.644934	0.629587	-2.177989	7.520702	0.197571	0.063049	-0.014099	0.999228	0.003147	-0.010887	0.037594	
61391	    0	21.047705	6.659837	-3.026923	0.930271	-2.178962	7.631043	0.208040	0.074701	-0.027658	0.999200	0.004650	-0.010892	0.038145	
61392	    0	22.589147	9.308208	-4.409269	1.169142	-2.203779	7.691953	0.222548	0.101932	-0.041049	0.999182	0.005844	-0.011016	0.038449	
61393	    0	23.393122	12.963239	-5.693343	1.246979	-2.374717	7.585664	0.229431	0.138733	-0.053345	0.999190	0.006233	-0.011870	0.037918	
61394	    0	24.194687	15.736762	-6.276653	1.118181	-2.643685	7.264458	0.236806	0.166368	-0.058700	0.999237	0.005589	-0.013215	0.036313	
61395	    0	24.445755	19.381934	-2.004785	0.717510	-2.680791	6.679465	0.238037	0.201904	-0.016113	0.999346	0.003587	-0.013401	0.033390	
61396	    0	23.996672	20.795174	8.984502	-0.379436	-2.132012	5.980164	0.232632	0.215155	0.091948	0.999494	-0.001897	-0.010658	0.029896	
61397	    0	22.081511	17.379800	8.308817	0.621878	-1.778458	5.329079	0.215332	0.179321	0.085571	0.999600	0.003109	-0.008891	0.026642	
61398	    0	20.172042	24.728525	1.490078	1.933298	-1.539962	4.328604	0.196174	0.251402	0.018843	0.999689	0.009665	-0.007699	0.021641	
61399	    0	12.256512	34.867030	-0.653596	2.115189	-1.276476	2.947417	0.117432	0.350464	-0.002075	0.999815	0.010575	-0.006382	0.014736	
61400	    0	9.421092	39.780248	1.151501	1.686899	-1.061846	1.326020	0.091496	0.398296	0.015364	0.999928	0.008434	-0.005309	0.006630	
61401	    0	11.876948	37.413142	5.400274	1.037796	-0.762945	-0.312045	0.119141	0.373657	0.056396	0.999977	0.005189	-0.003815	-0.001560	
61402	    0	13.135639	29.503295	8.252867	1.018349	-0.257687	-1.594949	0.133594	0.293548	0.084197	0.999954	0.005092	-0.001288	-0.007975	
61403	    0	10.993557	26.228400	6.843275	1.820446	0.121503	-2.484992	0.113220	0.260254	0.070740	0.999881	0.009102	0.000607	-0.012424	
61404	    0	12.132134	22.524229	0.555654	2.391590	0.044444	-3.153435	0.124853	0.223205	0.008206	0.999804	0.011957	0.000222	-0.015766	
61405	    0	16.384244	22.106357	-3.014816	3.160625	-0.234248	-3.958554	0.168213	0.218201	-0.026489	0.999678	0.015801	-0.001171	-0.019791	
61406	    0	22.015090	46.836313	-0.380745	3.707044	-0.235792	-5.524893	0.232971	0.462006	0.005066	0.999446	0.018532	-0.001179	-0.027619	
61407	    0	34.849823	52.176937	6.221126	1.842911	0.599232	-7.068690	0.366821	0.508423	0.065857	0.999328	0.009212	0.002995	-0.035336	
61408	    0	39.136079	10.657520	-5.635920	0.627275	0.541616	-7.227202	0.394720	0.092528	-0.057120	0.999338	0.003136	0.002707	-0.036128	
61409	    0	41.725608	13.679099	2.043074	1.334048	0.909144	-8.641546	0.422729	0.118469	0.019348	0.999034	0.006668	0.004544	-0.043194	
61410	    0	26.987272	12.903615	1.066906	0.603084	0.771742	-8.200305	0.274897	0.117801	0.009981	0.999147	0.003015	0.003858	-0.040990	
61411	    0	11.242177	5.161524	6.802023	0.236568	0.899150	-7.541945	0.114563	0.047241	0.067566	0.999278	0.001183	0.004495	-0.037701	
61412	    0	-4.611634	12.764383	1.546121	0.782356	0.553239	-6.759812	-0.041726	0.129042	0.016084	0.999417	0.003911	0.002766	-0.033792	
61413	    0	-1.957109	20.640851	0.392127	-0.054748	0.528786	-5.579343	-0.013794	0.206848	0.003906	0.999607	-0.000274	0.002644	-0.027893	
61414	    0	7.044726	13.210599	-0.390452	-0.608119	0.450558	-4.666954	0.073494	0.130402	-0.004466	0.999721	-0.003040	0.002253	-0.023333	
61415	    0	15.084766	7.746407	3.574477	-0.909292	0.241868	-3.843177	0.152344	0.074707	0.035217	0.999804	-0.004546	0.001209	-0.019215	
61416	    0	21.594880	7.854361	2.945359	-1.093156	0.252545	-3.264780	0.217231	0.075163	0.028763	0.999850	-0.005466	0.001263	-0.016323	
61417	    0	24.366289	8.553381	3.651979	-1.431149	0.178536	-2.975599	0.244934	0.082153	0.035706	0.999863	-0.007155	0.000893	-0.014877	
61418	    0	26.101331	5.616022	5.440591	-1.514692	0.068095	-2.862102	0.261804	0.052827	0.053908	0.999868	-0.007573	0.000340	-0.014310	
61419	    0	25.900701	3.742715	4.936068	-1.829608	-0.074581	-2.663538	0.259460	0.034424	0.049133	0.999869	-0.009148	-0.000373	-0.013317	
61420	    0	23.670312	0.763824	4.886624	-2.194883	-0.225077	-2.391539	0.236721	0.005345	0.049066	0.999867	-0.010974	-0.001125	-0.011957	
61421	    0	23.229163	-0.216183	4.354178	-2.719250	-0.360697	-2.068431	0.232178	-0.003967	0.044006	0.999852	-0.013596	-0.001803	-0.010342	
61422	    0	21.416054	-1.829247	4.102260	-3.473880	-0.484878	-1.636798	0.213904	-0.019321	0.041871	0.999812	-0.017368	-0.002424	-0.008183	
61423	    0	20.008643	-1.923784	2.510925	-3.782722	-0.455506	-1.389408	0.199890	-0.020142	0.025940	0.999794	-0.018912	-0.002277	-0.006947	
61424	    0	19.900527	-5.983657	-0.490708	-3.770882	-0.317403	-1.115871	0.198673	-0.061020	-0.003448	0.999804	-0.018853	-0.001587	-0.005579	
61425	    0	18.225363	-9.494498	-3.231417	-3.396588	-0.052645	-0.787393	0.181885	-0.096191	-0.030640	0.999847	-0.016982	-0.000263	-0.003937	
61426	    0	16.200112	-9.385086	-3.667073	-2.321298	0.069429	-0.511944	0.161747	-0.094683	-0.035631	0.999928	-0.011606	0.000347	-0.002560	
61427	    0	16.355157	-2.464555	-2.178168	-1.222239	0.048256	-0.749213	0.163452	-0.025391	-0.021667	0.999974	-0.006111	0.000241	-0.003746	
61428	    0	16.031646	8.671141	-1.741169	-1.391623	0.051690	-1.302548	0.160872	0.085541	-0.018051	0.999954	-0.006958	0.000258	-0.006513	
61429	    0	9.457052	10.011011	-6.205934	-2.169109	0.206954	-1.801360	0.095398	0.098572	-0.063232	0.999900	-0.010845	0.001035	-0.009007	
61430	    0	15.135124	16.917894	-14.876636	-2.840033	0.249306	-2.694303	0.153405	0.164985	-0.151320	0.999807	-0.014199	0.001246	-0.013471	
61431	    0	16.904210	12.322740	-12.983070	-3.909717	0.897503	-3.068869	0.170288	0.118042	-0.132935	0.999681	-0.019547	0.004487	-0.015343	
61432	    0	14.227270	3.209668	-6.034361	-3.708459	1.376103	-3.023269	0.142303	0.028808	-0.061877	0.999690	-0.018540	0.006880	-0.015115	
61433	    0	11.758561	-2.736459	-2.855734	-2.727530	1.412311	-3.043603	0.116943	-0.029541	-0.028992	0.999765	-0.013637	0.007061	-0.015217	
61434	    0	12.328538	-5.066133	-2.884749	-2.035668	1.564137	-3.242533	0.122211	-0.052945	-0.029275	0.999785	-0.010178	0.007820	-0.016212	
61435	    0	13.320404	-5.178708	-2.937381	-1.771488	1.797621	-3.428146	0.132019	-0.054321	-0.030090	0.999773	-0.008857	0.008987	-0.017139	
61436	    0	14.410487	-6.363374	-4.431293	-1.394183	1.881547	-3.482120	0.142542	-0.066438	-0.045202	0.999780	-0.006970	0.009407	-0.017409	
61437	    0	15.269770	-8.299234	-5.495834	-0.881065	1.749541	-3.567751	0.150696	-0.085938	-0.055908	0.999792	-0.004405	0.008747	-0.017838	
61438	    0	14.979630	-8.236836	-5.644405	-0.541152	1.556314	-3.730460	0.147779	-0.085292	-0.057371	0.999792	-0.002706	0.007781	-0.018651	
61439	    0	14.575340	-7.166752	-4.567630	-0.511016	1.496233	-3.872200	0.143982	-0.074585	-0.046570	0.999781	-0.002555	0.007481	-0.019360	
61440	    0	13.919187	-6.703326	-3.457288	-0.577398	1.465718	-3.960909	0.137569	-0.069870	-0.035386	0.999772	-0.002887	0.007328	-0.019803	
61441	    0	12.889641	-6.939690	-3.276615	-0.615547	1.408492	-3.946981	0.127258	-0.072021	-0.033447	0.999775	-0.003078	0.007042	-0.019733	
61442	    0	12.227568	-7.781076	-3.762139	-0.533522	1.317115	-3.818013	0.120509	-0.080224	-0.038207	0.999792	-0.002667	0.006585	-0.019089	
61443	    0	12.216524	-8.832227	-4.876006	-0.218214	1.183582	-3.640207	0.120239	-0.090576	-0.049377	0.999816	-0.001091	0.005918	-0.018200	
61444	    0	12.471882	-9.262196	-5.462200	0.151261	1.086486	-3.479197	0.122784	-0.094728	-0.055364	0.999833	0.000756	0.005432	-0.017395	
61445	    0	12.506966	-8.915328	-5.616910	0.521877	0.971462	-3.324297	0.123291	-0.091064	-0.057007	0.999846	0.002609	0.004857	-0.016621	
61446	    0	11.806796	-7.632166	-5.604473	0.761259	0.815811	-3.164249	0.116612	-0.077959	-0.056817	0.999859	0.003806	0.004079	-0.015821	
61447	    0	10.922995	-6.118867	-5.343096	0.805887	0.617243	-2.929042	0.108154	-0.062561	-0.054016	0.999880	0.004029	0.003086	-0.014645	
61448	    0	10.315781	-4.745219	-4.975622	0.581378	0.432409	-2.603038	0.102422	-0.048643	-0.050118	0.999908	0.002907	0.002162	-0.013015	
61449	    0	10.201060	-3.946554	-4.631267	0.284582	0.273329	-2.218675	0.101501	-0.040527	-0.046509	0.999936	0.001423	0.001367	-0.011093	
61450	    0	10.009740	-3.097706	-4.646403	-0.005531	0.095178	-1.773476	0.099795	-0.031864	-0.046511	0.999960	-0.000028	0.000476	-0.008867	
61451	    0	10.655646	-2.498498	-4.385414	-0.303652	0.014687	-1.325236	0.106384	-0.025757	-0.043823	0.999976	-0.001518	0.000073	-0.006626	
61452	    0	11.269822	-2.238536	-4.378295	-0.394632	-0.074005	-0.785258	0.112625	-0.022914	-0.043696	0.999990	-0.001973	-0.000370	-0.003926	
61453	    0	10.464838	-1.097981	-4.064869	-0.533295	-0.175286	-0.155640	0.104675	-0.011169	-0.040527	0.999995	-0.002666	-0.000876	-0.000778	
61454	    0	9.016887	-0.520378	-2.938530	-0.545694	-0.294305	0.597002	0.090227	-0.005014	-0.029239	0.999990	-0.002728	-0.001472	0.002985	
61455	    0	7.382387	-0.697118	-2.091056	-0.227167	-0.408939	1.421369	0.073914	-0.006470	-0.020752	0.999971	-0.001136	-0.002045	0.007107	
61456	    0	6.622068	-0.721104	-1.326558	0.220494	-0.511371	2.195596	0.066328	-0.006469	-0.013103	0.999935	0.001102	-0.002557	0.010978	
61457	    0	6.070902	0.443894	-1.119305	0.576233	-0.633265	2.967189	0.060669	0.005371	-0.010986	0.999880	0.002881	-0.003166	0.014835	
61458	    0	5.668804	1.105774	-1.339471	0.810865	-0.772716	3.738450	0.056519	0.012169	-0.013128	0.999809	0.004054	-0.003863	0.018691	
61459	    0	5.751444	1.182088	-1.754277	1.043223	-0.921714	4.434603	0.057312	0.013184	-0.017212	0.999729	0.005216	-0.004608	0.022171	
61460	    0	6.215471	1.645926	-2.216683	1.270255	-1.122036	5.067093	0.061831	0.018167	-0.021708	0.999642	0.006351	-0.005610	0.025332	
61461	    0	6.987303	2.578239	-2.452218	1.398100	-1.345259	5.590873	0.069275	0.027893	-0.023865	0.999561	0.006989	-0.006725	0.027950	
61462	    0	8.137583	3.691976	-2.825242	1.346057	-1.584516	6.076904	0.080420	0.039559	-0.027352	0.999484	0.006729	-0.007921	0.030379	
61463	    0	9.518364	4.451148	-2.949962	1.074428	-1.838851	6.493115	0.093933	0.047729	-0.028381	0.999415	0.005371	-0.009192	0.032459	
61464	    0	10.901490	4.714837	-2.880048	0.674392	-2.092428	6.826147	0.107612	0.050932	-0.027502	0.999356	0.003371	-0.010460	0.034123	
61465	    0	12.158727	4.080645	-2.312773	0.324324	-2.301364	7.060341	0.120300	0.045105	-0.021667	0.999309	0.001621	-0.011504	0.035294	
61466	    0	13.600557	2.773039	-1.278217	0.042544	-2.509335	7.142628	0.135046	0.032568	-0.011077	0.999283	0.000213	-0.012544	0.035705	
61467	    0	15.142841	1.448181	-0.353325	0.045787	-2.733316	7.089413	0.150818	0.019836	-0.001465	0.999278	0.000229	-0.013663	0.035439	
61468	    0	16.480492	0.811679	0.440736	0.334438	-2.898338	6.994777	0.164300	0.013860	0.006811	0.999282	0.001672	-0.014488	0.034966	
61469	    0	17.109736	1.505533	1.241095	0.693869	-2.976179	6.952812	0.170227	0.020935	0.015015	0.999279	0.003469	-0.014877	0.034756	
61470	    0	17.683550	2.453016	2.099155	0.952761	-2.904833	6.987739	0.175507	0.030570	0.023684	0.999272	0.004763	-0.014521	0.034930	
61471	    0	18.458239	2.964455	1.816593	1.175979	-2.798960	7.061980	0.183105	0.036011	0.020935	0.999261	0.005878	-0.013991	0.035301	
61472	    0	19.354030	4.329572	0.915792	1.390424	-2.705871	7.138326	0.191683	0.050083	0.012093	0.999247	0.006950	-0.013526	0.035683	
61473	    0	19.913851	6.631791	0.093720	1.436217	-2.614305	7.221533	0.196533	0.073425	0.004028	0.999236	0.007179	-0.013068	0.036098	
61474	    0	20.161290	8.425957	-1.126903	1.492315	-2.566049	7.306276	0.198472	0.091618	-0.008043	0.999221	0.007460	-0.012827	0.036522	
61475	    0	20.957023	10.230014	-2.671491	1.581990	-2.578460	7.350568	0.205933	0.110107	-0.023193	0.999209	0.007908	-0.012889	0.036743	
61476	    0	22.214478	11.691178	-3.887215	1.725077	-2.650575	7.276727	0.218169	0.125212	-0.034906	0.999212	0.008623	-0.013249	0.036374	
61477	    0	23.502334	13.986936	-3.544954	1.783435	-2.712737	7.033008	0.230347	0.148315	-0.031006	0.999249	0.008915	-0.013560	0.035156	
61478	    0	23.917587	18.358181	1.871983	1.264460	-2.463674	6.585186	0.232699	0.191180	0.022806	0.999362	0.006321	-0.012316	0.032919	
61479	    0	22.943421	17.895003	10.243038	0.378480	-1.902894	5.980905	0.222961	0.185486	0.104919	0.999505	0.001892	-0.009513	0.029900	
61480	    0	22.477669	15.264189	9.364472	1.132352	-1.558320	5.304087	0.219891	0.157977	0.096255	0.999601	0.005661	-0.007791	0.026517	
61481	    0	20.521888	19.440101	2.283524	2.166411	-1.320029	4.430871	0.200684	0.198608	0.026306	0.999674	0.010831	-0.006599	0.022152	
61482	    0	12.872512	30.655568	-0.781499	2.363945	-1.130947	3.186261	0.123847	0.308613	-0.003466	0.999786	0.011819	-0.005654	0.015930	
61483	    0	7.921204	38.947535	1.982605	1.368747	-0.867293	1.792951	0.075623	0.390015	0.022827	0.999927	0.006844	-0.004336	0.008965	
61484	    0	10.666143	33.734926	5.466878	0.468637	-0.570680	0.339128	0.105931	0.337399	0.055762	0.999991	0.002343	-0.002853	0.001696	
61485	    0	13.639870	24.462381	8.052663	0.305177	-0.137902	-1.058202	0.137634	0.243774	0.080994	0.999984	0.001526	-0.000690	-0.005291	
61486	    0	12.032879	22.120128	8.020180	1.088548	0.240522	-2.044533	0.122676	0.219515	0.081253	0.999931	0.005443	0.001203	-0.010222	
61487	    0	9.277195	23.359283	4.873229	1.583359	0.460073	-2.790955	0.096130	0.231873	0.050354	0.999868	0.007916	0.002300	-0.013954	
61488	    0	12.660893	18.954267	-0.180605	1.413800	0.321786	-3.226067	0.129642	0.187475	-0.000683	0.999844	0.007069	0.001609	-0.016129	
61489	    0	14.908364	15.038639	-1.117744	1.500040	0.090987	-3.737893	0.151855	0.147644	-0.010132	0.999797	0.007500	0.000455	-0.018688	
61490	    0	19.283902	35.509922	-1.033679	2.248290	-0.093854	-5.080304	0.201779	0.350135	-0.006289	0.999614	0.011240	-0.000469	-0.025398	
61491	    0	27.859601	56.561901	-10.404120	1.145556	0.039680	-6.251815	0.296082	0.557129	-0.100891	0.999495	0.005727	0.000198	-0.031254	
61492	    0	42.008115	25.451119	-15.710891	-0.469497	0.579955	-7.039968	0.428222	0.239160	-0.158916	0.999373	-0.002347	0.002899	-0.035192	
61493	    0	46.011828	4.633061	8.083596	0.577150	0.978388	-8.500988	0.461914	0.026489	0.078674	0.999081	0.002885	0.004890	-0.042492	
61494	    0	15.032447	-9.030981	6.958714	1.222362	0.907948	-7.827544	0.146939	-0.096526	0.068337	0.999205	0.006110	0.004539	-0.039127	
61495	    0	13.902910	18.949446	12.063791	1.519382	1.490574	-7.334393	0.146729	0.183289	0.120972	0.999270	0.007595	0.007451	-0.036663	
61496	    0	-1.029930	19.597665	5.221128	1.086055	0.901962	-6.517473	-0.003675	0.195881	0.053302	0.999444	0.005429	0.004509	-0.032581	
61497	    0	-1.669937	20.555418	2.049185	0.260957	0.809003	-5.293145	-0.011169	0.205872	0.020813	0.999640	0.001305	0.004045	-0.026463	
61498	    0	12.086545	12.286363	1.715724	-0.491373	0.540587	-4.384593	0.123566	0.120215	0.016528	0.999753	-0.002457	0.002703	-0.021921	
61499	    0	14.807058	4.724525	2.841719	-0.386071	0.422885	-3.772965	0.148987	0.044495	0.028015	0.999818	-0.001930	0.002114	-0.018864	
61500	    0	21.299088	9.417467	0.238004	-0.601415	0.458167	-3.280032	0.214501	0.090671	0.001614	0.999858	-0.003007	0.002291	-0.016399	
61501	    0	25.457428	7.849725	2.949963	-1.219992	0.368706	-2.915315	0.255737	0.074951	0.028564	0.999873	-0.006100	0.001843	-0.014576	
61502	    0	26.487630	3.621455	5.495447	-1.386125	0.302327	-2.725327	0.265423	0.032978	0.054317	0.999882	-0.006930	0.001512	-0.013626	
61503	    0	27.035495	3.743996	5.998628	-1.613487	0.231179	-2.538396	0.270874	0.034485	0.059387	0.999886	-0.008067	0.001156	-0.012691	
61504	    0	25.123718	2.005429	5.888950	-1.944807	0.164992	-2.309506	0.251499	0.017721	0.058502	0.999886	-0.009724	0.000825	-0.011547	
61505	    0	23.375722	-0.682167	4.359404	-2.597158	0.100903	-1.906668	0.233704	-0.008484	0.043579	0.999869	-0.012985	0.000504	-0.009533	
61506	    0	22.315027	-2.080250	3.648045	-3.446971	0.058559	-1.459588	0.223004	-0.021798	0.036785	0.999825	-0.017234	0.000293	-0.007298	
61507	    0	21.138794	-2.545362	1.662130	-3.900226	0.095374	-1.176534	0.211243	-0.026367	0.017029	0.999792	-0.019500	0.000477	-0.005882	
61508	    0	21.148484	-6.325018	-1.471017	-3.909375	0.310919	-0.895942	0.211176	-0.064472	-0.013786	0.999797	-0.019546	0.001554	-0.004479	
61509	    0	19.664199	-11.367463	-4.780833	-3.568466	0.571664	-0.489071	0.196228	-0.114990	-0.046326	0.999833	-0.017841	0.002858	-0.002445	
61510	    0	18.805938	-11.741149	-5.753237	-2.211621	0.723855	-0.106432	0.187790	-0.118143	-0.056909	0.999931	-0.011058	0.003619	-0.000532	
61511	    0	17.786344	-3.597869	-4.722153	-0.427057	0.590517	-0.608828	0.177612	-0.036621	-0.047668	0.999989	-0.002135	0.002953	-0.003044	
61512	    0	12.138777	10.953573	-5.128881	-0.262836	0.597580	-1.569004	0.122087	0.108512	-0.051796	0.999964	-0.001314	0.002988	-0.007845	
61513	    0	10.037274	16.940276	-12.043811	-1.361133	0.722721	-2.520081	0.102051	0.167297	-0.121948	0.999890	-0.006805	0.003613	-0.012600	
61514	    0	17.527621	18.856667	-15.533177	-2.668594	0.977785	-3.327635	0.177588	0.183522	-0.158668	0.999761	-0.013342	0.004889	-0.016637	
61515	    0	14.198309	5.357113	-10.230705	-3.183287	1.505614	-3.240513	0.142029	0.049622	-0.104187	0.999713	-0.015915	0.007527	-0.016201	
61516	    0	12.784146	-3.258008	-4.733993	-2.647618	1.689859	-3.146049	0.126898	-0.035213	-0.047960	0.999752	-0.013237	0.008449	-0.015729	
61517	    0	12.673512	-5.880438	-3.331702	-1.801432	1.750502	-3.353364	0.125427	-0.061218	-0.033875	0.999780	-0.009007	0.008752	-0.016766	
61518	    0	13.817875	-4.910912	-3.731253	-1.255130	1.873538	-3.596385	0.136908	-0.051817	-0.038280	0.999774	-0.006275	0.009367	-0.017981	
61519	    0	14.453075	-4.036908	-4.499590	-0.924563	1.867819	-3.747846	0.143311	-0.043274	-0.046143	0.999769	-0.004622	0.009338	-0.018738	
61520	    0	15.917476	-3.581220	-4.893207	-0.758040	1.703969	-3.940513	0.158002	-0.039122	-0.050138	0.999762	-0.003790	0.008519	-0.019701	
61521	    0	16.543510	-4.300412	-4.815047	-0.714933	1.539930	-4.120977	0.164124	-0.046570	-0.049255	0.999751	-0.003574	0.007699	-0.020603	
61522	    0	16.289346	-5.449194	-4.589909	-0.680600	1.439027	-4.234675	0.161354	-0.058078	-0.046870	0.999743	-0.003403	0.007195	-0.021172	
61523	    0	15.601967	-6.795340	-5.241760	-0.646836	1.333731	-4.246116	0.154175	-0.071411	-0.053223	0.999746	-0.003234	0.006668	-0.021229	
61524	    0	14.337847	-8.764016	-5.936840	-0.589227	1.228430	-4.152056	0.141149	-0.090762	-0.059976	0.999761	-0.002946	0.006142	-0.020759	
61525	    0	13.474219	-9.835468	-6.228071	-0.493467	1.067431	-4.035484	0.132385	-0.101196	-0.062744	0.999779	-0.002467	0.005337	-0.020176	
61526	    0	12.785400	-9.457498	-5.934509	-0.488124	0.873053	-3.926355	0.125703	-0.097202	-0.059662	0.999794	-0.002440	0.004365	-0.019630	
61527	    0	12.478021	-8.555525	-5.445191	-0.615541	0.717209	-3.805023	0.122925	-0.088074	-0.054626	0.999807	-0.003078	0.003586	-0.019024	
61528	    0	12.563236	-8.111663	-5.101308	-0.713201	0.625648	-3.694949	0.123943	-0.083599	-0.051107	0.999818	-0.003566	0.003128	-0.018474	
61529	    0	12.531357	-8.074447	-4.805796	-0.767560	0.569376	-3.542527	0.123718	-0.083130	-0.048096	0.999831	-0.003838	0.002847	-0.017712	
61530	    0	12.233276	-7.623336	-4.507919	-0.715101	0.503375	-3.358437	0.120914	-0.078433	-0.045107	0.999849	-0.003575	0.002517	-0.016791	
61531	    0	11.744833	-6.891406	-3.789012	-0.655966	0.416583	-3.125898	0.116272	-0.070862	-0.037903	0.999870	-0.003280	0.002083	-0.015629	
61532	    0	11.279626	-6.217638	-2.940191	-0.592634	0.312053	-2.827744	0.111856	-0.063849	-0.029389	0.999894	-0.002963	0.001560	-0.014138	
61533	    0	10.777040	-5.520369	-2.400893	-0.455487	0.197034	-2.462833	0.107056	-0.056580	-0.023987	0.999921	-0.002277	0.000985	-0.012314	
61534	    0	10.331763	-4.680852	-2.473663	-0.389106	0.073625	-2.041472	0.102823	-0.047908	-0.024682	0.999946	-0.001945	0.000368	-0.010207	
61535	    0	10.565760	-4.054800	-2.429229	-0.241663	-0.022125	-1.525894	0.105347	-0.041382	-0.024231	0.999969	-0.001208	-0.000111	-0.007629	
61536	    0	10.566258	-3.439851	-2.952322	0.008011	-0.106240	-0.921062	0.105518	-0.034883	-0.029469	0.999989	0.000040	-0.000531	-0.004605	
61537	    0	9.704276	-2.046418	-2.986747	0.052834	-0.180817	-0.231934	0.097046	-0.020569	-0.029785	0.999998	0.000264	-0.000904	-0.001160	
61538	    0	7.639225	-0.483383	-2.436145	0.090218	-0.309563	0.591851	0.076444	-0.004597	-0.024245	0.999994	0.000451	-0.001548	0.002959	
61539	    0	5.012026	-0.128531	-1.933560	0.472265	-0.446134	1.536578	0.050171	-0.000854	-0.019226	0.999965	0.002361	-0.002231	0.007683	
61540	    0	4.745577	-0.178289	-1.748135	1.003868	-0.536363	2.433087	0.047519	-0.001118	-0.017361	0.999909	0.005019	-0.002682	0.012165	
61541	    0	4.300460	0.535965	-1.971500	1.549810	-0.640906	3.322793	0.042969	0.006226	-0.019531	0.999826	0.007749	-0.003204	0.016613	
61542	    0	4.528362	0.794994	-2.156859	1.902180	-0.739737	4.186246	0.045180	0.009100	-0.021318	0.999728	0.009510	-0.003698	0.020929	
61543	    0	5.420167	0.816641	-2.431988	2.249616	-0.846968	4.907837	0.054077	0.009766	-0.023987	0.999626	0.011247	-0.004234	0.024536	
61544	    0	6.146651	1.445395	-2.731070	2.573425	-0.983396	5.550510	0.061160	0.016501	-0.026806	0.999519	0.012865	-0.004916	0.027748	
61545	    0	7.180539	2.596207	-2.737023	2.631308	-1.107236	6.132914	0.071106	0.028503	-0.026611	0.999428	0.013154	-0.005535	0.030659	
61546	    0	8.264963	3.825315	-2.690452	2.410454	-1.230696	6.660179	0.081470	0.041296	-0.025915	0.999353	0.012050	-0.006152	0.033294	
61547	    0	9.430083	4.229801	-2.497289	2.007761	-1.413102	7.059596	0.092896	0.045837	-0.023865	0.999301	0.010036	-0.007064	0.035290	
61548	    0	10.905135	3.640366	-2.545637	1.658091	-1.626612	7.388245	0.107803	0.040606	-0.024251	0.999249	0.008288	-0.008131	0.036932	
61549	    0	12.928942	3.226903	-2.046349	1.312029	-1.846799	7.617666	0.128113	0.037292	-0.019043	0.999210	0.006558	-0.009232	0.038078	
61550	    0	14.214267	3.498031	-1.563983	1.089014	-2.054399	7.790040	0.140784	0.040562	-0.013978	0.999173	0.005444	-0.010269	0.038939	
61551	    0	15.213835	3.341873	-0.990365	0.874577	-2.225935	7.897138	0.150757	0.039429	-0.008057	0.999148	0.004372	-0.011127	0.039474	
61552	    0	15.970375	2.890041	-0.936074	0.643534	-2.411964	7.923115	0.158488	0.035222	-0.007338	0.999137	0.003217	-0.012056	0.039604	
61553	    0	17.373252	3.235387	-0.937558	0.432904	-2.563462	7.954439	0.172363	0.039246	-0.007080	0.999125	0.002164	-0.012814	0.039761	
61554	    0	18.757541	3.317255	-0.244465	0.331022	-2.697594	7.950833	0.186069	0.040592	0.000135	0.999117	0.001655	-0.013484	0.039742	
61555	    0	19.797678	4.145738	0.362764	0.596224	-2.809979	7.944562	0.196045	0.049255	0.006531	0.999107	0.002980	-0.014046	0.039711	
61556	    0	20.972338	6.214437	1.014580	0.864094	-2.851948	7.881589	0.206884	0.070283	0.013402	0.999112	0.004319	-0.014256	0.039396	
61557	    0	22.133514	9.271577	0.641056	1.034088	-2.825807	7.852197	0.217346	0.101257	0.010010	0.999116	0.005169	-0.014125	0.039249	
61558	    0	23.238026	12.714600	-0.642934	1.028740	-2.714943	7.812663	0.227232	0.136111	-0.002636	0.999131	0.005142	-0.013571	0.039052	
61559	    0	24.641716	15.185783	-2.165139	0.855494	-2.699843	7.680367	0.240601	0.161255	-0.017700	0.999162	0.004276	-0.013495	0.038391	
61560	    0	25.343359	17.484160	-2.550631	0.606312	-2.674604	7.385638	0.247054	0.184114	-0.021625	0.999224	0.003031	-0.013370	0.036919	
61561	    0	24.912329	20.336396	1.577137	-0.073068	-2.441951	6.896985	0.241699	0.211792	0.018677	0.999331	-0.000365	-0.012207	0.034477	
61562	    0	23.330038	19.298862	8.069645	-0.640605	-2.053445	6.259917	0.226264	0.200407	0.082410	0.999452	-0.003202	-0.010265	0.031294	
61563	    0	22.347248	16.574105	9.319017	0.227577	-1.721422	5.399283	0.218079	0.171570	0.095276	0.999598	0.001138	-0.008606	0.026993	
61564	    0	20.660853	18.297588	5.212875	1.762752	-1.408141	4.260285	0.202274	0.186838	0.055199	0.999709	0.008813	-0.007040	0.021299	
61565	    0	14.964535	26.848543	2.263017	2.637675	-1.158799	3.048167	0.145386	0.270386	0.027039	0.999780	0.013187	-0.005794	0.015240	
61566	    0	8.459731	35.796482	3.994471	2.324386	-0.886189	1.784204	0.081212	0.358200	0.044472	0.999883	0.011621	-0.004431	0.008921	
61567	    0	8.159042	36.414919	6.158330	1.221476	-0.542264	0.468449	0.080566	0.363953	0.064026	0.999974	0.006107	-0.002711	0.002342	
61568	    0	11.536965	28.126986	6.497011	0.665286	-0.191308	-0.842289	0.116489	0.280562	0.066015	0.999985	0.003326	-0.000957	-0.004211	
61569	    0	12.801471	21.489310	6.197505	1.036283	0.146487	-1.932565	0.130127	0.213318	0.062988	0.999939	0.005181	0.000732	-0.009663	
61570	    0	10.947108	19.977951	5.117507	1.747402	0.380152	-2.787527	0.112336	0.197771	0.052697	0.999863	0.008737	0.001901	-0.013937	
61571	    0	9.703318	18.681248	2.748169	2.043480	0.407437	-3.438800	0.100281	0.184814	0.029175	0.999798	0.010217	0.002037	-0.017193	
61572	    0	12.666411	13.885880	0.891351	1.985891	0.231570	-3.763865	0.129257	0.136346	0.010127	0.999772	0.009929	0.001158	-0.018818	
61573	    0	13.638508	10.360266	-0.546840	2.285398	0.041202	-4.014944	0.138428	0.100891	-0.004333	0.999733	0.011426	0.000206	-0.020073	
61574	    0	17.208370	28.990196	-3.299966	3.059465	-0.219760	-5.161488	0.179528	0.285790	-0.028412	0.999549	0.015295	-0.001099	-0.025804	
61575	    0	22.740712	52.986184	-29.801303	2.638745	-0.796469	-6.155799	0.244812	0.526367	-0.290100	0.999431	0.013191	-0.003982	-0.030773	
61576	    0	39.441182	42.104054	-23.165890	0.530572	0.414003	-7.882648	0.410127	0.405694	-0.231407	0.999217	0.002652	0.002069	-0.039403	
61577	    0	42.960080	5.414676	15.523416	-1.012676	1.039576	-7.638185	0.432068	0.038452	0.152771	0.999244	-0.005062	0.005197	-0.038181	
61578	    0	8.569635	-3.510892	13.753568	0.905992	0.875849	-7.015569	0.084981	-0.038720	0.136992	0.999365	0.004529	0.004378	-0.035070	
61579	    0	17.976058	27.640260	16.176123	1.030919	1.196698	-6.416725	0.189453	0.269592	0.162048	0.999454	0.005154	0.005982	-0.032078	
61580	    0	3.256428	10.899407	8.497109	0.602607	0.585629	-5.419457	0.035746	0.107798	0.085196	0.999623	0.003013	0.002928	-0.027094	
61581	    0	9.811255	17.786001	3.400702	-0.119029	0.780746	-4.524629	0.102234	0.175598	0.033508	0.999736	-0.000595	0.003903	-0.022621	
61582	    0	11.878381	5.789622	3.544816	-0.134095	0.268761	-3.753884	0.119890	0.055676	0.035250	0.999823	-0.000670	0.001344	-0.018768	
61583	    0	19.427278	7.897157	-0.978095	-0.409526	0.323501	-3.224325	0.195496	0.075806	-0.010254	0.999866	-0.002048	0.001617	-0.016121	
61584	    0	23.197009	6.736515	-0.835599	-1.159710	0.204666	-2.723031	0.232849	0.064148	-0.008972	0.999889	-0.005798	0.001023	-0.013615	
61585	    0	26.307924	6.423017	0.884404	-1.727170	0.144201	-2.478885	0.263855	0.061035	0.008118	0.999886	-0.008636	0.000721	-0.012394	
61586	    0	26.883582	5.328524	4.421215	-2.451057	0.096135	-2.277671	0.269444	0.050755	0.043450	0.999860	-0.012255	0.000481	-0.011388	
61587	    0	25.333280	2.000947	5.184746	-2.951020	0.045016	-2.085990	0.253540	0.018127	0.051514	0.999836	-0.014754	0.000225	-0.010429	
61588	    0	25.601935	-2.013263	5.207431	-3.208917	0.060276	-1.859199	0.255838	-0.021673	0.052337	0.999827	-0.016044	0.000301	-0.009295	
61589	    0	23.520504	-5.497309	3.720148	-3.669788	0.064854	-1.490881	0.234802	-0.056030	0.038147	0.999804	-0.018348	0.000324	-0.007454	
61590	    0	21.963396	-6.238429	1.903717	-3.891833	0.138674	-1.196563	0.219271	-0.063313	0.020111	0.999792	-0.019458	0.000693	-0.005982	
61591	    0	20.092722	-8.159299	-1.806143	-3.654699	0.290125	-0.974332	0.200500	-0.082886	-0.016846	0.999820	-0.018272	0.001451	-0.004871	
61592	    0	18.735170	-10.090733	-4.511490	-2.724743	0.586721	-0.817518	0.186805	-0.102279	-0.044276	0.999894	-0.013623	0.002934	-0.004087	
61593	    0	15.998048	-11.142131	-5.402862	-1.228918	0.694282	-0.768288	0.159363	-0.112366	-0.053894	0.999968	-0.006145	0.003471	-0.003841	
61594	    0	14.636889	-4.318656	-3.462336	0.172235	0.633436	-1.292621	0.145975	-0.044101	-0.035124	0.999973	0.000861	0.003167	-0.006463	
61595	    0	12.078398	6.466175	-3.442810	0.192264	0.497635	-1.810482	0.121277	0.063599	-0.034668	0.999955	0.000961	0.002488	-0.009052	
61596	    0	9.474104	9.001459	-5.920012	-1.103239	0.634210	-2.149829	0.095510	0.088661	-0.059994	0.999922	-0.005516	0.003171	-0.010749	
61597	    0	13.795243	14.715473	-12.295625	-2.434491	0.754591	-2.736823	0.139465	0.143738	-0.125244	0.999825	-0.012172	0.003773	-0.013683	
61598	    0	17.031685	9.661590	-11.157732	-3.195098	1.281091	-3.145312	0.171063	0.092119	-0.114167	0.999728	-0.015974	0.006405	-0.015725	
61599	    0	15.286325	4.375503	-8.453982	-3.085610	1.475088	-3.210744	0.152893	0.039978	-0.086304	0.999724	-0.015427	0.007375	-0.016052	
61600	    0	13.078941	-1.725609	-5.813146	-3.053946	1.491875	-3.241837	0.130040	-0.020263	-0.058809	0.999723	-0.015268	0.007459	-0.016208	
61601	    0	11.649117	-5.008940	-5.527178	-2.555294	1.401826	-3.350342	0.115234	-0.052734	-0.055420	0.999753	-0.012775	0.007009	-0.016750	
61602	    0	12.436926	-5.970273	-5.774209	-2.094053	1.383700	-3.561302	0.122872	-0.062506	-0.057951	0.999763	-0.010469	0.006918	-0.017805	
61603	    0	13.573390	-5.205817	-5.999022	-1.760045	1.350506	-3.657048	0.134338	-0.055054	-0.060425	0.999771	-0.008800	0.006752	-0.018284	
61604	    0	15.034241	-5.252561	-5.504524	-1.661236	1.302055	-3.702062	0.148970	-0.055752	-0.055564	0.999772	-0.008306	0.006510	-0.018509	
61605	    0	15.609452	-6.209804	-4.518723	-1.553271	1.245974	-3.761575	0.154602	-0.065369	-0.045654	0.999773	-0.007766	0.006229	-0.018806	
61606	    0	15.113024	-6.531770	-3.832359	-1.411163	1.211640	-3.836732	0.149603	-0.068470	-0.038757	0.999772	-0.007055	0.006058	-0.019182	
61607	    0	14.480015	-7.061170	-3.518718	-1.228233	1.171962	-3.866864	0.143188	-0.073608	-0.035583	0.999777	-0.006141	0.005859	-0.019333	
61608	    0	13.505410	-8.135306	-3.565470	-1.063043	1.127325	-3.874869	0.133240	-0.084137	-0.035967	0.999782	-0.005315	0.005636	-0.019373	
61609	    0	12.781889	-9.099784	-3.762948	-0.882781	1.079061	-3.797409	0.125854	-0.093567	-0.037903	0.999795	-0.004414	0.005395	-0.018986	
61610	    0	12.719032	-9.895891	-3.792193	-0.523790	0.999131	-3.680647	0.125149	-0.101375	-0.038287	0.999814	-0.002619	0.004995	-0.018402	
61611	    0	12.678575	-9.863015	-3.915052	-0.150880	0.952965	-3.556262	0.124817	-0.100891	-0.039673	0.999830	-0.000754	0.004765	-0.017780	
61612	    0	12.622841	-9.142387	-3.911449	0.138862	0.910425	-3.431691	0.124455	-0.093542	-0.039748	0.999842	0.000694	0.004552	-0.017158	
61613	    0	12.259531	-7.970279	-4.025127	0.415822	0.879903	-3.266302	0.121094	-0.081604	-0.040955	0.999854	0.002079	0.004399	-0.016331	
61614	    0	11.770561	-6.267489	-4.193469	0.592448	0.807607	-3.073254	0.116554	-0.064346	-0.042596	0.999869	0.002962	0.004038	-0.015366	
61615	    0	11.473534	-4.764200	-4.179400	0.601409	0.732449	-2.834426	0.113892	-0.049133	-0.042358	0.999887	0.003007	0.003662	-0.014172	
61616	    0	11.801284	-4.131611	-4.165515	0.561540	0.649090	-2.500798	0.117349	-0.042668	-0.042155	0.999912	0.002808	0.003245	-0.012504	
61617	    0	12.500525	-4.112665	-4.034199	0.410470	0.551044	-2.110334	0.124451	-0.042358	-0.040771	0.999938	0.002052	0.002755	-0.010551	
61618	    0	13.668287	-4.087279	-3.503885	0.300411	0.514037	-1.674483	0.136244	-0.041962	-0.035452	0.999960	0.001502	0.002570	-0.008372	
61619	    0	14.356710	-3.101293	-3.271732	0.363162	0.427440	-1.180276	0.143311	-0.031799	-0.033081	0.999978	0.001816	0.002137	-0.005901	
61620	    0	13.316384	-1.742156	-3.214118	0.310517	0.326348	-0.701906	0.133049	-0.017838	-0.032386	0.999990	0.001553	0.001632	-0.003510	
61621	    0	11.820209	-0.387866	-3.190636	0.210762	0.225067	-0.103760	0.118164	-0.003906	-0.032043	0.999998	0.001054	0.001125	-0.000519	
61622	    0	9.824380	0.512878	-3.086550	0.199700	0.119972	0.628663	0.098208	0.005468	-0.030919	0.999994	0.000998	0.000600	0.003143	
61623	    0	7.732830	0.706255	-2.777929	0.436406	0.020790	1.467910	0.077271	0.007690	-0.027771	0.999970	0.002182	0.000104	0.007339	
61624	    0	6.322080	0.814704	-2.493469	0.785656	-0.096896	2.312146	0.063132	0.008975	-0.024870	0.999925	0.003928	-0.000484	0.011560	
61625	    0	5.775453	1.789314	-2.415968	1.106503	-0.243389	3.107594	0.057495	0.018921	-0.023987	0.999863	0.005532	-0.001217	0.015537	
61626	    0	5.505296	2.703695	-2.497135	1.254170	-0.401525	3.899086	0.054560	0.028259	-0.024687	0.999788	0.006270	-0.002007	0.019494	
61627	    0	5.296111	2.593209	-2.921305	1.426836	-0.576648	4.580371	0.052429	0.027344	-0.028870	0.999707	0.007133	-0.002883	0.022900	
61628	    0	5.612375	2.528853	-3.229297	1.664943	-0.789932	5.178150	0.055566	0.026999	-0.031853	0.999622	0.008324	-0.003949	0.025887	
61629	    0	6.429230	3.066364	-3.253156	1.822942	-0.996361	5.703848	0.063538	0.032776	-0.031921	0.999539	0.009113	-0.004981	0.028515	
61630	    0	7.525678	3.943115	-2.852764	1.768234	-1.190205	6.154385	0.074158	0.041972	-0.027720	0.999470	0.008840	-0.005950	0.030766	
61631	    0	8.674753	4.486293	-2.494727	1.581310	-1.374322	6.514485	0.085388	0.047852	-0.023987	0.999414	0.007905	-0.006870	0.032566	
61632	    0	9.872193	4.157397	-2.299294	1.419556	-1.553671	6.782240	0.097406	0.045051	-0.021921	0.999370	0.007096	-0.007767	0.033904	
61633	    0	11.033391	3.543543	-2.352653	1.324188	-1.707079	7.012987	0.109192	0.039429	-0.022339	0.999327	0.006619	-0.008533	0.035057	
61634	    0	11.788503	3.625467	-2.372642	1.323635	-1.822717	7.236496	0.116675	0.040643	-0.022400	0.999282	0.006617	-0.009111	0.036174	
61635	    0	12.325707	3.755238	-2.074464	1.192959	-1.885688	7.360365	0.121948	0.042175	-0.019348	0.999260	0.005963	-0.009426	0.036793	
61636	    0	12.843611	3.848986	-1.984929	1.065524	-1.950567	7.471450	0.127061	0.043355	-0.018383	0.999240	0.005326	-0.009750	0.037348	
61637	    0	14.050693	3.520611	-1.277942	0.910611	-1.965837	7.545120	0.139160	0.040527	-0.011230	0.999229	0.004552	-0.009827	0.037716	
61638	    0	15.104346	4.352560	-0.977972	1.216253	-2.022509	7.559463	0.149341	0.049245	-0.007976	0.999216	0.006080	-0.010110	0.037787	
61639	    0	15.907521	6.399503	-0.706056	1.608135	-2.071936	7.581073	0.156555	0.070007	-0.004883	0.999195	0.008039	-0.010357	0.037895	
61640	    0	17.235830	8.080325	-0.760964	1.968931	-2.077871	7.646968	0.169162	0.087371	-0.005002	0.999166	0.009842	-0.010386	0.038224	
61641	    0	19.212921	10.258538	-2.091873	2.237771	-2.061290	7.715529	0.188171	0.110107	-0.017761	0.999140	0.011186	-0.010303	0.038567	
61642	    0	21.654870	12.885643	-4.259060	2.362755	-2.082292	7.785987	0.211720	0.137636	-0.038777	0.999118	0.011810	-0.010408	0.038918	
61643	    0	23.837242	15.494967	-6.392896	2.323827	-2.167189	7.733881	0.232788	0.164734	-0.059509	0.999125	0.011616	-0.010833	0.038658	
61644	    0	25.101299	17.475835	-7.347697	2.147125	-2.327038	7.516083	0.245010	0.184797	-0.068654	0.999168	0.010733	-0.011632	0.037570	
61645	    0	25.954217	20.692828	-4.893438	1.571474	-2.408436	7.174943	0.252441	0.216431	-0.044189	0.999252	0.007855	-0.012039	0.035866	
61646	    0	25.713582	22.734511	2.486198	0.353123	-2.246747	6.653249	0.249084	0.235674	0.028102	0.999382	0.001765	-0.011231	0.033259	
61647	    0	22.515772	20.438730	7.782955	-0.170163	-1.923492	5.934343	0.218201	0.210999	0.079773	0.999513	-0.000851	-0.009616	0.029667	
61648	    0	20.362264	16.897585	5.289303	0.948634	-1.531015	4.952813	0.198943	0.173683	0.055244	0.999652	0.004743	-0.007654	0.024761	
61649	    0	19.421368	22.400268	-0.083031	2.099019	-1.254948	3.712006	0.190002	0.227539	0.002747	0.999753	0.010494	-0.006274	0.018559	
61650	    0	11.343687	32.838039	0.841875	1.825980	-1.058050	2.327633	0.109549	0.329572	0.012011	0.999876	0.009130	-0.005290	0.011638	
61651	    0	7.811568	36.340242	3.958688	0.821121	-0.786598	0.914010	0.076294	0.363586	0.041382	0.999973	0.004106	-0.003933	0.004570	
61652	    0	9.604282	31.569590	6.754396	0.056458	-0.404549	-0.498391	0.096692	0.315436	0.067828	0.999994	0.000282	-0.002023	-0.002492	
61653	    0	12.811543	23.186313	8.856197	0.070382	0.031281	-1.728842	0.130127	0.230713	0.088623	0.999962	0.000352	0.000156	-0.008644	
61654	    0	12.168747	19.968637	9.249046	0.640507	0.434889	-2.569276	0.124438	0.197803	0.092857	0.999909	0.003202	0.002174	-0.012846	
61655	    0	9.904766	19.040460	6.015976	0.846139	0.575474	-3.184658	0.102234	0.188538	0.060669	0.999860	0.004230	0.002877	-0.015923	
61656	    0	11.392351	15.178491	0.702701	0.593599	0.393126	-3.522300	0.116587	0.149726	0.007246	0.999838	0.002968	0.001966	-0.017611	
61657	    0	12.966489	13.290417	-4.468784	0.394464	0.100142	-3.805774	0.132141	0.130493	-0.044495	0.999816	0.001972	0.000501	-0.019028	
61658	    0	16.388354	34.350527	-8.020875	-0.263431	0.021937	-4.903141	0.172227	0.339245	-0.080676	0.999699	-0.001317	0.000110	-0.024513	
61659	    0	20.657127	44.705759	-11.297527	-2.421030	0.304465	-5.923712	0.219482	0.439270	-0.118652	0.999487	-0.012103	0.001522	-0.029613	
61660	    0	32.231788	28.167072	-21.145454	-1.815576	0.496007	-6.561600	0.330752	0.268970	-0.214748	0.999417	-0.009076	0.002480	-0.032802	
61661	    0	34.181854	21.273684	-8.431961	1.201198	0.230662	-8.039782	0.349915	0.199280	-0.083496	0.999173	0.006004	0.001153	-0.040188	
61662	    0	21.041930	5.824076	16.700501	-1.330062	0.839778	-6.650311	0.212922	0.052293	0.165753	0.999415	-0.006649	0.004198	-0.033245	
61663	    0	18.249017	14.545624	20.509387	-0.199159	1.111207	-6.065568	0.187927	0.140015	0.203918	0.999524	-0.000996	0.005555	-0.030323	
61664	    0	9.983814	8.532290	10.164809	0.459921	0.692075	-5.477271	0.102471	0.082307	0.101488	0.999616	0.002299	0.003460	-0.027383	
61665	    0	9.533897	16.188693	0.396529	0.184840	0.797350	-4.774942	0.099182	0.159546	0.003723	0.999706	0.000924	0.003986	-0.023872	
61666	    0	12.479100	6.604755	-1.112797	-0.493847	0.511396	-4.012767	0.126053	0.063498	-0.011608	0.999792	-0.002469	0.002557	-0.020062	
61667	    0	16.744109	5.653325	-3.442623	-0.672758	0.360127	-3.510473	0.168335	0.053467	-0.034912	0.999838	-0.003364	0.001801	-0.017551	
61668	    0	22.301350	7.720858	-1.462684	-1.440878	0.301566	-2.990480	0.224111	0.073753	-0.015504	0.999861	-0.007204	0.001508	-0.014952	
61669	    0	22.919876	7.354603	1.966617	-1.931666	0.206767	-2.813858	0.230225	0.070496	0.018738	0.999853	-0.009658	0.001034	-0.014069	
61670	    0	24.606725	4.815529	5.803885	-2.491702	0.222218	-2.552741	0.246725	0.045725	0.057185	0.999840	-0.012458	0.001111	-0.012763	
61671	    0	24.346809	3.235660	7.321890	-2.801479	0.173960	-2.345407	0.243896	0.030518	0.072571	0.999832	-0.014007	0.000870	-0.011726	
61672	    0	25.530804	1.286281	7.126238	-3.000810	0.246253	-2.114987	0.255520	0.011226	0.070771	0.999830	-0.015003	0.001231	-0.010574	
61673	    0	25.041873	-2.897455	4.979018	-3.494483	0.306912	-1.685440	0.250244	-0.030212	0.049927	0.999810	-0.017471	0.001534	-0.008427	
61674	    0	23.732333	-6.289890	2.437317	-3.806370	0.397709	-1.222693	0.236984	-0.063875	0.025111	0.999798	-0.019031	0.001988	-0.006113	
61675	    0	22.587285	-8.111854	-1.688106	-3.490642	0.587687	-0.880481	0.225464	-0.082397	-0.016113	0.999833	-0.017452	0.002938	-0.004402	
61676	    0	23.456142	-11.320603	-6.000149	-2.158217	0.805684	-0.711268	0.233914	-0.114684	-0.059712	0.999927	-0.010791	0.004028	-0.003556	
61677	    0	22.130479	-10.069566	-6.894147	0.123597	0.853161	-0.602725	0.220703	-0.101318	-0.069946	0.999986	0.000618	0.004266	-0.003014	
61678	    0	15.908454	-3.600181	-5.099342	1.357293	0.815597	-1.331544	0.158631	-0.036709	-0.051888	0.999946	0.006786	0.004078	-0.006658	
61679	    0	12.265311	3.850841	-4.532279	0.957514	1.034000	-2.038626	0.122803	0.037476	-0.045776	0.999923	0.004787	0.005170	-0.010193	
61680	    0	11.939939	10.278285	-10.438609	0.124553	1.035719	-2.372999	0.120066	0.101426	-0.104943	0.999915	0.000623	0.005178	-0.011865	
61681	    0	17.968772	11.256728	-14.694483	-1.420478	1.195590	-3.051920	0.180481	0.108765	-0.148804	0.999840	-0.007102	0.005978	-0.015259	
61682	    0	13.556700	4.115386	-13.345946	-1.922743	1.243298	-3.420690	0.135395	0.037546	-0.134674	0.999787	-0.009613	0.006216	-0.017102	
61683	    0	13.150014	-0.655479	-10.431718	-2.338413	1.265822	-3.591455	0.130676	-0.010132	-0.105042	0.999750	-0.011691	0.006329	-0.017956	
61684	    0	13.471642	-4.608814	-8.440447	-2.311903	1.114940	-3.720982	0.133345	-0.049555	-0.084591	0.999744	-0.011559	0.005574	-0.018603	
61685	    0	13.768079	-6.088887	-7.949773	-2.256022	1.001066	-3.905834	0.136047	-0.064453	-0.079468	0.999733	-0.011279	0.005005	-0.019527	
61686	    0	15.167450	-5.756276	-6.867759	-2.620577	0.927064	-4.029867	0.150144	-0.061498	-0.068587	0.999700	-0.013102	0.004635	-0.020147	
61687	    0	16.703918	-6.808786	-6.039480	-3.077277	0.837229	-4.067683	0.165344	-0.072388	-0.059998	0.999665	-0.015385	0.004186	-0.020336	
61688	    0	17.426173	-8.469214	-5.696719	-3.513771	0.828846	-4.082613	0.172237	-0.089213	-0.056143	0.999628	-0.017567	0.004144	-0.020411	
61689	    0	16.875136	-10.401412	-5.295848	-3.612028	0.874441	-4.118875	0.166321	-0.108398	-0.051758	0.999615	-0.018058	0.004372	-0.020592	
61690	    0	16.249684	-11.655619	-4.942061	-3.232770	0.931851	-4.166720	0.159784	-0.120690	-0.048241	0.999641	-0.016162	0.004659	-0.020831	
61691	    0	15.381704	-11.436616	-4.518587	-2.656070	0.971514	-4.134801	0.151184	-0.118103	-0.044373	0.999686	-0.013279	0.004857	-0.020672	
61692	    0	14.455430	-10.891170	-3.532301	-2.046197	1.020523	-4.041272	0.142131	-0.112159	-0.034916	0.999730	-0.010230	0.005102	-0.020205	
61693	    0	13.589405	-10.118695	-2.578326	-1.334293	1.074301	-3.934018	0.133728	-0.104004	-0.025818	0.999769	-0.006671	0.005371	-0.019669	
61694	    0	12.817982	-9.412784	-2.117158	-0.579872	1.106334	-3.752190	0.126265	-0.096571	-0.021596	0.999804	-0.002899	0.005531	-0.018760	
61695	    0	11.967492	-8.850646	-2.047386	0.106245	1.109377	-3.510483	0.117981	-0.090576	-0.021179	0.999830	0.000531	0.005547	-0.017551	
61696	    0	11.229540	-8.166059	-2.509460	0.704610	1.068359	-3.203169	0.110832	-0.083353	-0.025981	0.999851	0.003523	0.005342	-0.016015	
61697	    0	10.767769	-7.479264	-2.734652	1.134732	1.018569	-2.878698	0.106445	-0.076172	-0.028320	0.999866	0.005673	0.005093	-0.014393	
61698	    0	10.397828	-6.623507	-2.798904	1.390130	0.951041	-2.549652	0.102988	-0.067353	-0.028946	0.999883	0.006950	0.004755	-0.012748	
61699	    0	10.225992	-5.767465	-2.647124	1.481676	0.866155	-2.200389	0.101501	-0.058594	-0.027344	0.999902	0.007408	0.004331	-0.011002	
61700	    0	9.678733	-4.766481	-2.812875	1.470030	0.741977	-1.802489	0.096248	-0.048324	-0.028840	0.999925	0.007350	0.003710	-0.009012	
61701	    0	8.925024	-3.363734	-2.768388	1.334594	0.646984	-1.364159	0.088928	-0.034058	-0.028198	0.999949	0.006673	0.003235	-0.006821	
61702	    0	8.945539	-2.147090	-2.636256	1.237120	0.631339	-0.817498	0.089283	-0.021671	-0.026778	0.999967	0.006186	0.003157	-0.004087	
61703	    0	8.255870	-0.677953	-3.132705	1.209268	0.602918	-0.154878	0.082458	-0.006653	-0.031616	0.999976	0.006046	0.003015	-0.000774	
61704	    0	6.501552	1.220736	-3.375897	0.943953	0.560383	0.617413	0.064882	0.012568	-0.033882	0.999980	0.004720	0.002802	0.003087	
61705	    0	4.505930	2.649848	-3.044162	0.644691	0.451093	1.425187	0.044800	0.026917	-0.030457	0.999967	0.003223	0.002255	0.007126	
61706	    0	3.034457	3.242365	-3.340133	0.618186	0.299652	2.291734	0.029920	0.032871	-0.033345	0.999928	0.003091	0.001498	0.011458	
61707	    0	2.753240	2.982024	-3.253463	0.580049	0.173194	3.087743	0.027039	0.030334	-0.032471	0.999876	0.002900	0.000866	0.015438	
61708	    0	2.973454	2.633135	-3.376297	0.607719	-0.011254	3.796621	0.029228	0.026992	-0.033680	0.999815	0.003038	-0.000056	0.018982	
61709	    0	3.420044	2.370995	-3.509665	0.725046	-0.209063	4.490287	0.033691	0.024597	-0.034973	0.999741	0.003625	-0.001045	0.022449	
61710	    0	4.200143	2.287549	-3.331024	0.978391	-0.429393	5.130020	0.041465	0.024106	-0.033105	0.999657	0.004891	-0.002147	0.025647	
61711	    0	5.369701	3.015634	-3.265382	1.269710	-0.630086	5.634337	0.052917	0.031860	-0.032288	0.999578	0.006348	-0.003150	0.028168	
61712	    0	6.425523	4.225880	-3.474770	1.405374	-0.813045	6.061595	0.063070	0.044424	-0.034183	0.999507	0.007026	-0.004065	0.030303	
61713	    0	7.711570	4.811301	-3.374317	1.373733	-0.998871	6.406049	0.075684	0.050781	-0.033020	0.999451	0.006867	-0.004993	0.032024	
61714	    0	9.021414	4.468785	-3.183198	1.349146	-1.174779	6.676668	0.088835	0.047880	-0.030992	0.999402	0.006744	-0.005873	0.033377	
61715	    0	10.496740	3.546555	-3.144482	1.391323	-1.388843	6.840433	0.103882	0.039246	-0.030457	0.999367	0.006955	-0.006943	0.034195	
61716	    0	11.551440	3.194058	-3.127809	1.553315	-1.597384	7.022348	0.114536	0.036211	-0.030090	0.999321	0.007765	-0.007985	0.035104	
61717	    0	12.569631	3.460906	-2.733758	1.584431	-1.758232	7.183261	0.124573	0.039307	-0.025940	0.999285	0.007920	-0.008789	0.035908	
61718	    0	13.414614	3.396745	-2.515262	1.490198	-1.938154	7.301418	0.133017	0.039018	-0.023582	0.999258	0.007449	-0.009688	0.036498	
61719	    0	14.017120	3.018140	-2.956808	1.361618	-2.071140	7.376434	0.139221	0.035522	-0.027893	0.999243	0.006806	-0.010353	0.036873	
61720	    0	15.322389	2.283250	-2.914246	1.216055	-2.130482	7.446861	0.152526	0.028691	-0.027352	0.999231	0.006079	-0.010650	0.037225	
61721	    0	16.966874	2.439313	-2.888031	1.291424	-2.174187	7.535247	0.168884	0.030945	-0.026855	0.999210	0.006455	-0.010868	0.037666	
61722	    0	18.535494	3.787537	-2.393513	1.377857	-2.208158	7.592332	0.183983	0.045033	-0.021605	0.999194	0.006887	-0.011038	0.037951	
61723	    0	20.121751	5.386299	-1.798130	1.547090	-2.267310	7.600945	0.199158	0.061584	-0.015259	0.999184	0.007733	-0.011333	0.037994	
61724	    0	21.785420	7.405478	-2.172992	1.827176	-2.282586	7.627128	0.215039	0.082472	-0.018537	0.999166	0.009133	-0.011410	0.038125	
61725	    0	24.019194	11.424755	-2.796104	1.845303	-2.154952	7.679604	0.235840	0.123596	-0.024292	0.999162	0.009224	-0.010772	0.038387	
61726	    0	25.629876	15.726301	-2.163678	1.354390	-1.928274	7.666163	0.250205	0.167064	-0.018095	0.999195	0.006770	-0.009639	0.038321	
61727	    0	25.835004	18.811978	-1.687771	0.535716	-1.780186	7.468732	0.251221	0.197632	-0.014099	0.999259	0.002678	-0.008899	0.037334	
61728	    0	25.790806	21.110033	-0.878077	-0.372396	-1.679790	7.055307	0.250315	0.220007	-0.007061	0.999340	-0.001862	-0.008397	0.035269	
61729	    0	23.620783	21.247011	-0.665532	-0.778150	-1.628412	6.390792	0.229309	0.219849	-0.005615	0.999449	-0.003890	-0.008141	0.031948	
61730	    0	21.680011	21.699802	-0.584153	-0.410706	-1.549925	5.396602	0.210880	0.222732	-0.004645	0.999603	-0.002053	-0.007749	0.026979	
61731	    0	18.317207	25.079987	0.984790	-0.004578	-1.409834	4.137750	0.177856	0.254517	0.011108	0.999761	-0.000023	-0.007049	0.020687	
61732	    0	14.183405	29.071982	3.675627	0.256549	-1.194049	2.879451	0.137405	0.292671	0.037960	0.999877	0.001283	-0.005970	0.014397	
61733	    0	11.337747	32.196134	6.076934	0.302319	-0.916303	1.588463	0.110535	0.322754	0.061768	0.999956	0.001512	-0.004581	0.007942	
61734	    0	11.037146	31.279578	6.960768	0.278664	-0.534249	0.271035	0.109760	0.312847	0.070337	0.999994	0.001393	-0.002671	0.001355	
61735	    0	11.869252	26.947259	6.756486	0.544742	-0.205804	-1.020819	0.119995	0.268677	0.068420	0.999982	0.002724	-0.001029	-0.005104	
61736	    0	11.736064	22.939774	6.603757	1.128034	0.041009	-2.153068	0.119832	0.227739	0.067301	0.999926	0.005640	0.000205	-0.010765	
61737	    0	11.053503	20.171862	6.249558	1.696101	0.189409	-3.048861	0.113647	0.199463	0.064087	0.999846	0.008480	0.000947	-0.015244	
61738	    0	12.976191	15.906405	4.699593	2.076679	0.117310	-3.586454	0.132608	0.156204	0.048551	0.999784	0.010383	0.000587	-0.017931	
61739	    0	12.427859	13.138148	2.652092	2.590619	-0.000763	-4.037863	0.126892	0.128479	0.028198	0.999712	0.012952	-0.000004	-0.020187	
61740	    0	14.207982	25.392550	0.567018	3.320240	-0.242270	-5.000485	0.148355	0.250126	0.010021	0.999549	0.016599	-0.001211	-0.024999	
61741	    0	17.713604	46.255197	-15.514449	2.418170	-0.636973	-5.913797	0.191223	0.458862	-0.148987	0.999484	0.012089	-0.003184	-0.029564	
61742	    0	26.567967	46.491984	-41.235901	0.898934	-0.727999	-7.048770	0.283375	0.456984	-0.409283	0.999362	0.004494	-0.003639	-0.035236	
61743	    0	48.974880	15.286478	9.408720	-1.670546	0.922845	-8.010839	0.495789	0.133850	0.090637	0.999152	-0.008350	0.004613	-0.040043	
61744	    0	11.162134	-17.013101	7.425073	0.314585	0.302185	-6.933462	0.105745	-0.173982	0.073816	0.999396	0.001573	0.001511	-0.034660	
61745	    0	17.194712	29.526601	14.772189	0.963002	0.972350	-6.418999	0.182007	0.288818	0.148254	0.999461	0.004814	0.004861	-0.032089	
61746	    0	8.504645	11.552274	9.940339	-0.138300	0.274120	-5.467717	0.088299	0.113207	0.099205	0.999624	-0.000691	0.001370	-0.027335	
61747	    0	8.997344	16.332259	3.760285	-0.895582	0.421944	-4.565082	0.093750	0.161377	0.036682	0.999727	-0.004478	0.002110	-0.022823	
61748	    0	15.076442	5.028525	8.958069	-0.951829	0.142870	-3.823719	0.151758	0.047815	0.089241	0.999805	-0.004759	0.000714	-0.019117	
61749	    0	17.801498	6.291691	2.103535	-0.609429	0.041201	-3.474606	0.179077	0.059875	0.020813	0.999844	-0.003047	0.000206	-0.017372	
61750	    0	23.172512	6.827990	2.018528	-1.042794	-0.081829	-3.112933	0.232743	0.064767	0.019937	0.999865	-0.005214	-0.000409	-0.015564	
61751	    0	23.930795	4.597803	1.467811	-1.464718	-0.191506	-2.905402	0.239929	0.042603	0.014587	0.999866	-0.007323	-0.000957	-0.014526	
61752	    0	25.241470	6.890605	2.685170	-2.089032	-0.166138	-2.739279	0.253307	0.065718	0.026364	0.999851	-0.010445	-0.000831	-0.013696	
61753	    0	23.479109	2.970630	3.459155	-2.748071	-0.134285	-2.413312	0.235107	0.027344	0.034363	0.999832	-0.013740	-0.000671	-0.012066	
61754	    0	22.267979	0.401447	3.308342	-3.035910	-0.038149	-2.133492	0.222703	0.002141	0.033084	0.999827	-0.015179	-0.000191	-0.010667	
61755	    0	21.150893	-2.488588	2.840016	-3.476169	0.094801	-1.699172	0.211304	-0.026184	0.028748	0.999812	-0.017380	0.000474	-0.008495	
61756	    0	20.404208	-4.191566	2.082801	-3.841856	0.279255	-1.307768	0.203794	-0.042842	0.021360	0.999793	-0.019208	0.001396	-0.006538	
61757	    0	19.957829	-5.424869	-1.392326	-3.884388	0.453407	-0.972814	0.199280	-0.055481	-0.013306	0.999797	-0.019421	0.002267	-0.004864	
61758	    0	19.702044	-7.828242	-4.680377	-3.271264	0.732458	-0.747336	0.196554	-0.079777	-0.046227	0.999852	-0.016356	0.003662	-0.003736	
61759	    0	18.260915	-7.332615	-5.541692	-2.013439	0.753990	-0.568402	0.182190	-0.074402	-0.055359	0.999938	-0.010067	0.003770	-0.002842	
