// Start Time: Unknown
// Update Rate: 100.0Hz
// Filter Profile: human (34.3)
// Firmware Version: 2.1.4
PacketCounter	SampleTimeFine	Acc_X	Acc_Y	Acc_Z	Gyr_X	Gyr_Y	Gyr_Z	VelInc_X	VelInc_Y	VelInc_Z	OriInc_q0	OriInc_q1	OriInc_q2	OriInc_q3	
18323	    0	9.117307	-4.453743	-0.361867	-0.681881	0.425723	0.923163	0.091370	-0.044128	-0.003662	0.999981	-0.003409	0.002129	0.004616	
18324	    0	9.211137	-5.231001	-0.002859	-0.755889	0.400547	1.194392	0.092422	-0.051759	-0.000017	0.999972	-0.003779	0.002003	0.005972	
18325	    0	9.629789	-4.982207	0.840885	-0.863659	0.412183	1.477833	0.096680	-0.049072	0.008423	0.999961	-0.004318	0.002061	0.007389	
18326	    0	10.028727	-3.912147	-0.687150	-0.842107	0.193599	1.696612	0.100608	-0.038298	-0.006806	0.999954	-0.004210	0.000968	0.008483	
18327	    0	10.822492	-2.297482	-3.807084	-0.079347	-0.068475	1.989779	0.108459	-0.021912	-0.038025	0.999949	-0.000397	-0.000342	0.009949	
18328	    0	11.658632	-1.124236	-4.568552	0.506603	-0.156978	2.278952	0.116739	-0.009797	-0.045620	0.999931	0.002533	-0.000785	0.011395	
18329	    0	12.756770	-0.503449	-3.450458	0.652331	-0.050928	2.452916	0.127625	-0.003357	-0.034485	0.999919	0.003262	-0.000255	0.012264	
18330	    0	13.627185	-0.266363	-2.258518	0.496496	-0.077250	2.466267	0.136299	-0.000927	-0.022536	0.999920	0.002482	-0.000386	0.012331	
18331	    0	15.337998	1.202465	-2.468441	0.363359	-0.321206	2.409423	0.153259	0.013916	-0.024414	0.999924	0.001817	-0.001606	0.012047	
18332	    0	17.414933	2.736180	-2.625720	-0.056840	-0.583472	2.300889	0.173895	0.029356	-0.025758	0.999929	-0.000284	-0.002917	0.011504	
18333	    0	18.675094	5.721860	-2.772019	-0.092318	-0.694862	2.143905	0.186218	0.059204	-0.027100	0.999936	-0.000462	-0.003474	0.010719	
18334	    0	17.907337	5.873092	-2.665814	-0.099947	-0.678267	2.106710	0.178531	0.060600	-0.026082	0.999938	-0.000500	-0.003391	0.010533	
18335	    0	16.189126	4.858555	-1.835739	-0.295073	-0.677504	2.070659	0.161438	0.050232	-0.017883	0.999939	-0.001475	-0.003387	0.010353	
18336	    0	14.347594	4.431874	-0.582642	-0.405892	-0.717750	2.039760	0.143034	0.045768	-0.005404	0.999939	-0.002029	-0.003589	0.010199	
18337	    0	13.092757	3.579597	0.089609	-0.212864	-0.836771	2.008097	0.130554	0.037109	0.001404	0.999940	-0.001064	-0.004184	0.010040	
18338	    0	12.220304	3.083734	-0.027654	0.330169	-0.916500	1.974527	0.121890	0.032042	0.000335	0.999939	0.001651	-0.004582	0.009872	
18339	    0	11.553422	3.112422	-0.406120	1.081112	-0.922226	1.983692	0.115234	0.032288	-0.003357	0.999925	0.005405	-0.004611	0.009918	
18340	    0	11.193422	3.373494	-0.728393	1.695496	-0.909834	1.982561	0.111623	0.034900	-0.006483	0.999904	0.008477	-0.004549	0.009912	
18341	    0	10.912354	4.014116	-1.056821	2.060777	-0.923764	1.978376	0.108765	0.041321	-0.009644	0.999887	0.010303	-0.004619	0.009892	
18342	    0	10.575696	4.664363	-1.319437	2.225011	-0.938644	1.933938	0.105357	0.047803	-0.012172	0.999880	0.011125	-0.004693	0.009669	
18343	    0	10.125301	5.115963	-1.679574	2.282807	-0.903166	1.908951	0.100830	0.052307	-0.015747	0.999879	0.011414	-0.004516	0.009544	
18344	    0	9.731029	5.634172	-1.798433	2.286428	-0.854907	1.837039	0.096860	0.057430	-0.016917	0.999883	0.011432	-0.004274	0.009185	
18345	    0	9.182038	5.959047	-2.025159	2.180749	-0.804930	1.757112	0.091370	0.060608	-0.019226	0.999893	0.010903	-0.004025	0.008785	
18346	    0	8.332956	6.172187	-2.579039	1.901683	-0.766014	1.699307	0.082896	0.062667	-0.024879	0.999911	0.009508	-0.003830	0.008496	
18347	    0	7.553824	7.089966	-1.797731	1.515424	-0.759143	1.658669	0.075012	0.071655	-0.017151	0.999929	0.007577	-0.003796	0.008293	
18348	    0	7.337885	5.981845	-1.224639	1.272607	-0.694860	1.552420	0.072952	0.060461	-0.011609	0.999943	0.006363	-0.003474	0.007762	
18349	    0	6.987296	6.639364	-1.770911	0.686082	-0.770579	1.443500	0.069458	0.066956	-0.017212	0.999960	0.003430	-0.003853	0.007217	
18350	    0	6.482368	6.945908	-0.652407	0.549131	-0.712784	1.314940	0.064387	0.069901	-0.006103	0.999968	0.002746	-0.003564	0.006575	
18351	    0	6.107198	6.396701	0.252498	0.572973	-0.726135	1.223767	0.060669	0.064331	0.002930	0.999970	0.002865	-0.003631	0.006119	
18352	    0	5.976306	5.797334	0.600587	0.754936	-0.711639	1.097117	0.059422	0.058276	0.006437	0.999971	0.003775	-0.003558	0.005486	
18353	    0	5.769326	5.350197	0.075619	0.748640	-0.704199	0.952156	0.057434	0.053772	0.001160	0.999975	0.003743	-0.003521	0.004761	
18354	    0	5.590718	5.061957	-0.852436	0.353243	-0.767140	0.827794	0.055729	0.050865	-0.008221	0.999982	0.001766	-0.003836	0.004139	
18355	    0	5.517950	4.785370	-0.845053	-0.080681	-0.835423	0.669101	0.055054	0.048035	-0.008240	0.999985	-0.000403	-0.004177	0.003345	
18356	    0	5.799779	3.766114	0.167630	-0.183297	-0.778964	0.539019	0.057889	0.037819	0.001867	0.999988	-0.000916	-0.003895	0.002695	
18357	    0	6.141812	2.769795	0.567866	-0.224114	-0.690462	0.415803	0.061340	0.027832	0.005859	0.999990	-0.001121	-0.003452	0.002079	
18358	    0	6.366326	2.468943	0.376550	-0.488092	-0.578501	0.354959	0.063608	0.024812	0.003889	0.999990	-0.002440	-0.002892	0.001775	
18359	    0	6.668568	2.278397	-0.054626	-0.919156	-0.489047	0.319673	0.066650	0.022888	-0.000488	0.999985	-0.004596	-0.002445	0.001598	
18360	    0	7.061764	1.199936	0.084414	-1.285182	-0.451473	0.250437	0.070601	0.012094	0.000926	0.999975	-0.006426	-0.002257	0.001252	
18361	    0	7.611311	-0.219894	0.138437	-1.604290	-0.486761	0.132753	0.076111	-0.002136	0.001587	0.999964	-0.008021	-0.002434	0.000664	
18362	    0	7.889380	-0.950683	-0.988826	-1.912721	-0.569544	-0.000763	0.078921	-0.009600	-0.009572	0.999949	-0.009563	-0.002848	-0.000004	
18363	    0	8.004656	-2.152851	-2.726926	-2.118728	-0.762765	-0.092318	0.080139	-0.021851	-0.026733	0.999936	-0.010593	-0.003814	-0.000462	
18364	    0	8.202577	-4.165014	-5.989494	-2.130367	-0.997948	-0.116160	0.082297	-0.042330	-0.059036	0.999930	-0.010652	-0.004990	-0.000581	
18365	    0	8.177370	-6.841913	-7.861805	-1.902619	-1.091025	-0.131228	0.082153	-0.069214	-0.077515	0.999939	-0.009513	-0.005455	-0.000656	
18366	    0	9.320027	-9.451479	-4.947395	-0.853734	-0.722508	-0.169373	0.093297	-0.094803	-0.048733	0.999984	-0.004269	-0.003613	-0.000847	
18367	    0	10.908005	-11.019087	-2.611102	0.362396	-0.120354	-0.157929	0.109009	-0.110229	-0.026245	0.999997	0.001812	-0.000602	-0.000790	
18368	    0	12.011502	-10.744596	-2.380797	0.842669	0.052452	-0.064087	0.120074	-0.107383	-0.024292	0.999990	0.004213	0.000262	-0.000320	
18369	    0	13.403927	-10.946750	-3.270074	0.966648	-0.129510	0.173188	0.134155	-0.109192	-0.033142	0.999988	0.004833	-0.000648	0.000866	
18370	    0	13.671407	-10.505705	-5.898858	1.152809	-0.168992	0.469211	0.137010	-0.104394	-0.059476	0.999980	0.005764	-0.000845	0.002346	
18371	    0	12.112249	-7.737831	-7.314663	1.297008	0.040627	0.599676	0.121338	-0.076538	-0.073669	0.999974	0.006485	0.000203	0.002998	
18372	    0	10.160069	-4.250789	-5.919810	1.562519	0.280193	0.610359	0.101645	-0.041733	-0.059669	0.999964	0.007812	0.001401	0.003052	
18373	    0	8.756595	-1.256400	-2.785992	1.806097	0.520333	0.514992	0.087524	-0.012085	-0.028198	0.999952	0.009030	0.002602	0.002575	
18374	    0	7.981191	0.704150	-0.596146	1.756312	0.578317	0.331121	0.079782	0.007227	-0.006129	0.999955	0.008781	0.002892	0.001656	
18375	    0	7.868451	1.686728	-0.188296	1.351940	0.468640	0.067139	0.078674	0.016907	-0.001953	0.999974	0.006760	0.002343	0.000336	
18376	    0	8.310831	2.863023	0.188485	1.054769	0.191308	-0.204850	0.083139	0.028535	0.001956	0.999985	0.005274	0.000957	-0.001024	
18377	    0	10.101490	4.242439	-3.183355	1.574152	-0.251773	-0.379948	0.101135	0.042480	-0.031372	0.999966	0.007871	-0.001259	-0.001900	
18378	    0	10.520530	7.979738	-4.712499	2.085345	-0.277143	-0.517092	0.105476	0.080009	-0.046145	0.999941	0.010427	-0.001386	-0.002585	
18379	    0	11.067782	8.257629	0.229578	1.390091	-0.002098	-0.839243	0.111023	0.082092	0.002869	0.999967	0.006950	-0.000010	-0.004196	
18380	    0	12.675235	2.183089	-0.057903	0.969512	-0.094605	-0.801282	0.126839	0.021325	-0.000415	0.999980	0.004848	-0.000473	-0.004006	
18381	    0	14.403737	-1.416315	-1.009911	0.968367	0.032807	-0.742345	0.143982	-0.014648	-0.010193	0.999981	0.004842	0.000164	-0.003712	
18382	    0	15.523536	-0.181757	0.472811	1.303686	0.307658	-0.798615	0.155233	-0.002467	0.004475	0.999969	0.006518	0.001538	-0.003993	
18383	    0	15.829730	2.716225	2.010659	1.263631	0.476842	-0.767525	0.158447	0.026428	0.019897	0.999969	0.006318	0.002384	-0.003838	
18384	    0	14.785296	5.729730	0.205598	1.214038	0.446324	-0.700385	0.148057	0.056767	0.002071	0.999972	0.006070	0.002232	-0.003502	
18385	    0	11.863030	8.233700	-0.961964	0.769047	0.263406	-0.679019	0.118896	0.081970	-0.009460	0.999986	0.003845	0.001317	-0.003395	
18386	    0	9.537360	8.382401	-3.297168	0.171280	0.043488	-0.677492	0.095650	0.083529	-0.032921	0.999993	0.000856	0.000217	-0.003387	
18387	    0	8.146123	6.887256	-4.737547	-0.291253	0.024414	-0.788882	0.081726	0.068481	-0.047485	0.999990	-0.001456	0.000122	-0.003944	
18388	    0	8.180235	5.367266	-4.439488	-0.612453	0.017166	-0.951581	0.082052	0.053146	-0.044565	0.999984	-0.003062	0.000086	-0.004758	
18389	    0	9.220573	4.996711	-3.910330	-0.679784	0.075722	-1.120003	0.092468	0.049316	-0.039307	0.999978	-0.003399	0.000379	-0.005600	
18390	    0	10.348200	5.096508	-3.764557	-0.641256	0.090409	-1.259624	0.103783	0.050191	-0.037854	0.999974	-0.003206	0.000452	-0.006298	
18391	    0	11.340104	3.855899	-3.626788	-0.619513	0.092507	-1.387037	0.113647	0.037659	-0.036438	0.999970	-0.003098	0.000463	-0.006935	
18392	    0	11.814108	2.727369	-3.006576	-0.459676	0.107385	-1.519028	0.118327	0.026306	-0.030190	0.999968	-0.002298	0.000537	-0.007595	
18393	    0	11.612533	2.820919	-2.220154	-0.284580	0.168802	-1.644154	0.116333	0.027222	-0.022339	0.999965	-0.001423	0.000844	-0.008221	
18394	    0	11.146298	3.169007	-1.513784	-0.234416	0.209620	-1.754212	0.111719	0.030693	-0.015291	0.999960	-0.001172	0.001048	-0.008771	
18395	    0	10.723915	3.470013	-0.898198	-0.234989	0.248150	-1.857785	0.107544	0.033691	-0.009155	0.999955	-0.001175	0.001241	-0.009289	
18396	    0	10.230006	3.479720	-0.777400	-0.331503	0.269894	-1.938279	0.102620	0.033791	-0.007969	0.999950	-0.001657	0.001349	-0.009691	
18397	    0	9.944303	3.127847	-0.993051	-0.522623	0.243573	-1.964603	0.099731	0.030273	-0.010132	0.999948	-0.002613	0.001218	-0.009823	
18398	    0	9.790325	2.799397	-1.450314	-0.741209	0.196842	-1.969946	0.098158	0.026974	-0.014701	0.999944	-0.003706	0.000984	-0.009850	
18399	    0	9.721178	2.246450	-1.795225	-0.939960	0.149730	-1.964608	0.097412	0.021423	-0.018127	0.999940	-0.004700	0.000749	-0.009823	
18400	    0	9.651995	1.257978	-1.873423	-1.144243	0.121310	-1.933139	0.096623	0.011539	-0.018861	0.999936	-0.005721	0.000607	-0.009665	
18401	    0	10.025324	-0.180233	-1.833457	-1.352722	0.107768	-1.879925	0.100220	-0.002869	-0.018372	0.999932	-0.006763	0.000539	-0.009399	
18402	    0	10.180952	-1.497170	-1.941074	-1.477465	0.106432	-1.779596	0.101660	-0.016020	-0.019349	0.999932	-0.007387	0.000532	-0.008898	
18403	    0	10.115877	-2.225080	-2.121884	-1.483758	0.137332	-1.676213	0.100952	-0.023254	-0.021118	0.999937	-0.007419	0.000687	-0.008381	
18404	    0	9.897577	-2.516832	-2.105633	-1.414326	0.170139	-1.618226	0.098749	-0.026116	-0.020958	0.999942	-0.007071	0.000851	-0.008091	
18405	    0	9.557656	-2.737932	-2.065345	-1.206990	0.176433	-1.583889	0.095337	-0.028259	-0.020569	0.999949	-0.006035	0.000882	-0.007919	
18406	    0	9.376951	-2.538524	-2.197667	-0.865566	0.188449	-1.564619	0.093546	-0.026213	-0.021953	0.999959	-0.004328	0.000942	-0.007823	
18407	    0	9.309116	-2.094337	-2.411472	-0.493437	0.232699	-1.560992	0.092896	-0.021729	-0.024170	0.999966	-0.002467	0.001163	-0.007805	
18408	    0	9.436378	-1.659445	-1.952872	-0.330166	0.310138	-1.547067	0.094201	-0.017356	-0.019647	0.999967	-0.001651	0.001551	-0.007735	
18409	    0	9.801056	-1.015652	-1.736893	-0.263980	0.331310	-1.522843	0.097900	-0.010925	-0.017517	0.999969	-0.001320	0.001657	-0.007614	
18410	    0	10.104199	-0.415104	-1.845890	-0.257113	0.296024	-1.524560	0.100979	-0.004945	-0.018602	0.999969	-0.001286	0.001480	-0.007623	
18411	    0	10.366244	0.094592	-1.784430	-0.275996	0.309757	-1.541917	0.103638	0.000122	-0.018005	0.999968	-0.001380	0.001549	-0.007710	
18412	    0	10.390454	0.594985	-1.374247	-0.198176	0.387959	-1.570147	0.103920	0.005120	-0.013949	0.999967	-0.000991	0.001940	-0.007851	
18413	    0	10.181924	0.979244	-1.124199	-0.062562	0.451093	-1.603717	0.101868	0.008972	-0.011475	0.999965	-0.000313	0.002255	-0.008018	
18414	    0	9.963921	1.297794	-0.974384	-0.032235	0.470167	-1.627560	0.099717	0.012165	-0.009980	0.999964	-0.000161	0.002351	-0.008138	
18415	    0	9.749777	1.460141	-0.788779	-0.171663	0.446516	-1.641103	0.097595	0.013794	-0.008118	0.999963	-0.000858	0.002233	-0.008205	
18416	    0	9.653856	1.149454	-0.759815	-0.422101	0.352482	-1.622792	0.096614	0.010695	-0.007792	0.999963	-0.002110	0.001762	-0.008114	
18417	    0	9.645620	0.701026	-0.747181	-0.659760	0.282291	-1.574727	0.096497	0.006226	-0.007629	0.999962	-0.003299	0.001411	-0.007874	
18418	    0	9.774393	0.676036	-0.821629	-0.813876	0.235942	-1.506633	0.097781	0.005990	-0.008357	0.999962	-0.004069	0.001180	-0.007533	
18419	    0	9.761765	0.715723	-0.902190	-0.904094	0.211528	-1.448840	0.097656	0.006409	-0.009155	0.999963	-0.004520	0.001058	-0.007244	
18420	    0	9.905066	0.324504	-1.119777	-0.946247	0.201418	-1.366631	0.099058	0.002515	-0.011311	0.999965	-0.004731	0.001007	-0.006833	
18421	    0	10.012336	-0.243098	-0.822765	-0.972758	0.174143	-1.281752	0.100098	-0.003113	-0.008301	0.999967	-0.004864	0.000871	-0.006409	
18422	    0	9.911035	-0.718267	-0.812153	-1.028453	0.138475	-1.175320	0.099060	-0.007807	-0.008151	0.999969	-0.005142	0.000692	-0.005877	
18423	    0	9.754193	-1.201552	-0.954267	-1.058207	0.090981	-1.040659	0.097473	-0.012573	-0.009521	0.999972	-0.005291	0.000455	-0.005203	
18424	    0	9.702039	-1.725171	-1.085902	-1.058205	0.043297	-0.887687	0.096940	-0.017739	-0.010787	0.999975	-0.005291	0.000216	-0.004438	
18425	    0	9.669375	-2.016778	-0.853377	-1.140603	0.011635	-0.730139	0.096619	-0.020569	-0.008423	0.999976	-0.005703	0.000058	-0.003651	
18426	    0	9.683998	-2.804293	-0.684573	-1.213083	-0.019074	-0.518421	0.096767	-0.028335	-0.006665	0.999978	-0.006065	-0.000095	-0.002592	
18427	    0	9.654746	-3.573515	-0.290004	-1.148231	-0.018120	-0.285341	0.096497	-0.035889	-0.002686	0.999982	-0.005741	-0.000091	-0.001427	
18428	    0	9.613178	-3.881533	-0.409822	-1.095968	-0.002098	-0.066376	0.096119	-0.038869	-0.003884	0.999985	-0.005480	-0.000010	-0.000332	
18429	    0	9.884053	-3.802688	-0.618109	-1.158912	0.041390	0.198365	0.098877	-0.037964	-0.005981	0.999982	-0.005795	0.000207	0.000992	
18430	    0	10.065380	-4.167251	-0.516261	-1.313220	0.129892	0.474171	0.100749	-0.041467	-0.004955	0.999975	-0.006566	0.000649	0.002371	
18431	    0	9.962965	-4.634931	-0.509931	-1.287091	0.161172	0.723273	0.099792	-0.046021	-0.004883	0.999972	-0.006435	0.000806	0.003616	
18432	    0	9.503711	-5.198263	-0.739967	-1.195157	0.144006	0.965891	0.095282	-0.051566	-0.007159	0.999969	-0.005976	0.000720	0.004829	
18433	    0	9.263000	-6.293331	-0.410664	-1.287096	0.172617	1.249712	0.093018	-0.062378	-0.003784	0.999959	-0.006435	0.000863	0.006248	
18434	    0	9.695375	-7.168131	0.300091	-1.350999	0.264172	1.533345	0.097504	-0.070913	0.003353	0.999947	-0.006755	0.001321	0.007667	
18435	    0	10.518629	-6.963164	1.095556	-1.261165	0.418290	1.814308	0.105835	-0.068604	0.011169	0.999936	-0.006306	0.002091	0.009071	
18436	    0	11.077370	-5.446657	0.437658	-1.154355	0.430880	2.061893	0.111337	-0.053295	0.004447	0.999928	-0.005772	0.002154	0.010309	
18437	    0	11.607884	-2.962186	-1.103893	-0.585188	0.264174	2.294213	0.116394	-0.028320	-0.011108	0.999928	-0.002926	0.001321	0.011471	
18438	    0	11.446088	-0.010704	-2.862636	-0.029755	-0.021744	2.514142	0.114453	0.001328	-0.028614	0.999921	-0.000149	-0.000109	0.012570	
18439	    0	11.709648	1.664685	-3.570966	0.245102	-0.178534	2.770323	0.116882	0.018311	-0.035583	0.999903	0.001225	-0.000893	0.013851	
18440	    0	13.326646	1.858568	-3.026096	-0.056841	-0.193221	2.859595	0.133012	0.020480	-0.030138	0.999897	-0.000284	-0.000966	0.014297	
18441	    0	15.293011	2.229251	-2.362439	-0.242623	-0.362217	2.735225	0.152649	0.024353	-0.023376	0.999904	-0.001213	-0.001811	0.013676	
18442	    0	18.052980	2.483306	-1.899362	-0.544565	-0.599116	2.576334	0.180246	0.027105	-0.018525	0.999908	-0.002723	-0.002995	0.012881	
18443	    0	20.275113	5.615938	-3.804697	-0.390444	-0.736256	2.357544	0.202209	0.058472	-0.037415	0.999922	-0.001952	-0.003681	0.011787	
18444	    0	19.391912	5.039137	-4.729756	-0.173954	-0.747889	2.233366	0.193516	0.052513	-0.046618	0.999929	-0.000870	-0.003739	0.011167	
18445	    0	17.605872	4.132830	-3.844728	-0.205807	-0.669113	2.188158	0.175720	0.043213	-0.037903	0.999933	-0.001029	-0.003345	0.010941	
18446	    0	15.785947	3.525618	-1.877246	-0.286109	-0.656905	2.171754	0.157525	0.036942	-0.018307	0.999934	-0.001431	-0.003284	0.010859	
18447	    0	14.556806	3.457061	-0.532836	-0.069238	-0.714127	2.152298	0.145203	0.036133	-0.004822	0.999935	-0.000346	-0.003571	0.010761	
18448	    0	13.450093	3.428571	-0.333913	0.659004	-0.779360	2.086496	0.134145	0.035696	-0.002700	0.999932	0.003295	-0.003897	0.010432	
18449	    0	12.488605	3.461370	-1.110640	1.545952	-0.829340	2.011931	0.124573	0.035950	-0.010315	0.999910	0.007730	-0.004147	0.010059	
18450	    0	11.566238	3.561007	-1.895682	2.176561	-0.819238	2.004321	0.115372	0.036967	-0.018086	0.999882	0.010882	-0.004096	0.010021	
18451	    0	10.729510	4.274596	-2.025341	2.426446	-0.816381	2.024168	0.106934	0.044067	-0.019287	0.999866	0.012132	-0.004082	0.010120	
18452	    0	9.869064	5.122834	-1.840741	2.495497	-0.811804	2.001472	0.098242	0.052434	-0.017359	0.999864	0.012477	-0.004059	0.010007	
18453	    0	9.105041	5.480230	-1.808693	2.512663	-0.794256	1.956265	0.090576	0.055908	-0.017029	0.999865	0.012563	-0.003971	0.009781	
18454	    0	8.352693	5.534325	-1.953137	2.460393	-0.782618	1.875003	0.083076	0.056355	-0.018517	0.999872	0.012301	-0.003913	0.009375	
18455	    0	7.868621	5.649250	-2.062237	2.357575	-0.754386	1.801370	0.078247	0.057434	-0.019653	0.999883	0.011787	-0.003772	0.009007	
18456	    0	7.597661	5.915257	-2.110547	2.132106	-0.730730	1.723538	0.075537	0.060023	-0.020192	0.999899	0.010660	-0.003654	0.008617	
18457	    0	7.491366	6.552280	-2.425124	1.819088	-0.733968	1.627394	0.074463	0.066345	-0.023376	0.999918	0.009095	-0.003670	0.008137	
18458	    0	7.381584	6.878223	-0.526619	1.640929	-0.723855	1.490055	0.073318	0.069368	-0.004433	0.999931	0.008204	-0.003619	0.007450	
18459	    0	7.212950	5.638962	-1.044962	1.322387	-0.688946	1.362633	0.071777	0.056946	-0.009827	0.999949	0.006612	-0.003445	0.006813	
18460	    0	6.887686	6.215534	-0.616007	0.915920	-0.690278	1.229682	0.068513	0.062604	-0.005637	0.999964	0.004580	-0.003451	0.006148	
18461	    0	6.293608	6.297619	0.671023	0.939379	-0.622565	1.117718	0.062561	0.063293	0.007202	0.999968	0.004697	-0.003113	0.005589	
18462	    0	6.204189	5.602310	0.907091	0.978098	-0.571447	1.016627	0.061729	0.056292	0.009522	0.999970	0.004890	-0.002857	0.005083	
18463	    0	5.965181	5.306443	0.947020	0.989541	-0.518613	0.899513	0.059387	0.053284	0.009888	0.999974	0.004948	-0.002593	0.004498	
18464	    0	5.680715	4.744140	0.462423	0.821500	-0.532535	0.774007	0.056610	0.047641	0.004971	0.999980	0.004107	-0.002663	0.003870	
18465	    0	5.548831	4.370890	-0.209954	0.457766	-0.607111	0.617220	0.055359	0.043884	-0.001831	0.999988	0.002289	-0.003036	0.003086	
18466	    0	5.714819	3.856731	-0.135214	0.240708	-0.598146	0.483514	0.057058	0.038707	-0.001135	0.999991	0.001204	-0.002991	0.002418	
18467	    0	6.055473	3.351874	0.226580	0.084877	-0.533296	0.372315	0.060486	0.033630	0.002441	0.999994	0.000424	-0.002666	0.001862	
18468	    0	6.429439	2.902935	0.731250	-0.129891	-0.472260	0.283432	0.064236	0.029125	0.007445	0.999995	-0.000649	-0.002361	0.001417	
18469	    0	6.737186	2.480089	0.912384	-0.497438	-0.458337	0.233460	0.067322	0.024902	0.009216	0.999993	-0.002487	-0.002292	0.001167	
18470	    0	7.066009	1.844592	0.629067	-0.946431	-0.444414	0.182534	0.070629	0.018540	0.006360	0.999986	-0.004732	-0.002222	0.000913	
18471	    0	7.489446	0.575487	0.040506	-1.499955	-0.501066	0.106050	0.074890	0.005798	0.000549	0.999969	-0.007500	-0.002505	0.000530	
18472	    0	7.910777	-0.464897	-0.648428	-2.003897	-0.588428	0.043298	0.079127	-0.004695	-0.006205	0.999945	-0.010019	-0.002942	0.000216	
18473	    0	8.472607	-1.860988	-1.624522	-2.256827	-0.676552	-0.022126	0.084778	-0.018799	-0.015747	0.999930	-0.011284	-0.003383	-0.000111	
18474	    0	9.007999	-4.035823	-3.861596	-2.321683	-0.767155	-0.069620	0.090212	-0.040832	-0.037798	0.999925	-0.011608	-0.003836	-0.000348	
18475	    0	9.032828	-6.913350	-6.597163	-2.348389	-0.873398	-0.105288	0.090576	-0.069946	-0.064758	0.999921	-0.011742	-0.004367	-0.000526	
18476	    0	9.087384	-8.214341	-6.319903	-1.578351	-0.750742	-0.148584	0.091047	-0.082705	-0.062206	0.999961	-0.007892	-0.003754	-0.000743	
18477	    0	10.460662	-10.685948	-4.112287	-0.523950	-0.485994	-0.170899	0.104614	-0.107056	-0.040588	0.999992	-0.002620	-0.002430	-0.000854	
18478	    0	12.491787	-13.214670	-2.805770	-0.006104	-0.421906	-0.008011	0.124971	-0.132153	-0.027790	0.999997	-0.000031	-0.002110	-0.000040	
18479	    0	14.505902	-14.338279	-4.486045	0.165558	-0.498772	0.300599	0.145386	-0.143127	-0.044617	0.999995	0.000828	-0.002494	0.001503	
18480	    0	14.705879	-11.543084	-7.375200	0.523187	-0.437547	0.561335	0.147543	-0.114824	-0.073730	0.999990	0.002616	-0.002188	0.002807	
18481	    0	12.781950	-6.943036	-8.213846	1.133736	-0.014305	0.657659	0.128052	-0.068542	-0.082520	0.999978	0.005669	-0.000072	0.003288	
18482	    0	10.386177	-2.923198	-6.063466	1.588651	0.462920	0.638016	0.103812	-0.028417	-0.061103	0.999960	0.007943	0.002315	0.003190	
18483	    0	8.558183	-0.560665	-2.121754	1.808198	0.796713	0.524911	0.085510	-0.005188	-0.021606	0.999948	0.009041	0.003983	0.002625	
18484	    0	7.552499	1.595839	0.224713	1.848253	0.842491	0.310903	0.075509	0.016056	0.002077	0.999947	0.009241	0.004212	0.001554	
18485	    0	6.844955	3.276190	0.844815	2.026595	0.506601	-0.062562	0.068481	0.032654	0.008606	0.999945	0.010133	0.002533	-0.000313	
18486	    0	8.640985	6.738085	-1.582021	2.924072	0.172049	-0.357641	0.086517	0.067449	-0.014909	0.999890	0.014620	0.000860	-0.001788	
18487	    0	8.748039	14.819777	0.175122	2.893177	0.242815	-0.879703	0.088135	0.147766	0.003784	0.999885	0.014465	0.001214	-0.004398	
18488	    0	10.077668	11.513502	2.807273	0.840576	-0.166322	-1.137362	0.101405	0.114440	0.028639	0.999974	0.004203	-0.000832	-0.005687	
18489	    0	11.620709	1.993643	-2.190450	-0.423435	-0.793273	-1.037606	0.116394	0.019287	-0.021484	0.999976	-0.002117	-0.003966	-0.005188	
18490	    0	12.712294	-0.330553	-4.080126	0.196267	-0.351145	-1.159103	0.127172	-0.004003	-0.040582	0.999981	0.000981	-0.001756	-0.005795	
18491	    0	14.038304	2.891354	-0.163783	0.837144	0.183107	-1.288618	0.140564	0.028015	-0.001648	0.999969	0.004186	0.000916	-0.006443	
18492	    0	17.224248	2.524331	0.954744	0.937854	0.516516	-1.216902	0.172416	0.024151	0.009217	0.999967	0.004689	0.002583	-0.006084	
18493	    0	17.924503	2.117848	2.639700	1.115431	0.636490	-1.129927	0.179443	0.020020	0.025940	0.999963	0.005577	0.003182	-0.005650	
18494	    0	15.873291	3.824440	1.010218	1.013956	0.438313	-1.040850	0.158951	0.037367	0.009945	0.999970	0.005070	0.002192	-0.005204	
18495	    0	12.490398	5.100839	-2.674493	0.635532	0.238992	-0.987250	0.125122	0.050476	-0.026733	0.999982	0.003178	0.001195	-0.004936	
18496	    0	9.684911	5.429478	-3.522489	0.052452	0.109864	-0.963215	0.097090	0.053837	-0.035264	0.999988	0.000262	0.000549	-0.004816	
18497	    0	8.097732	5.415107	-4.105697	-0.488856	0.025177	-0.987249	0.081238	0.053650	-0.041199	0.999985	-0.002444	0.000126	-0.004936	
18498	    0	7.720757	5.302873	-4.483249	-0.698095	-0.002289	-1.114090	0.077501	0.052441	-0.045015	0.999978	-0.003490	-0.000011	-0.005570	
18499	    0	8.743368	4.439889	-4.017891	-0.681120	0.035858	-1.279461	0.087708	0.043701	-0.040344	0.999973	-0.003406	0.000179	-0.006397	
18500	    0	10.029996	3.189644	-3.330971	-0.635154	0.079537	-1.459519	0.100515	0.031057	-0.033449	0.999968	-0.003176	0.000398	-0.007298	
18501	    0	10.844342	1.957599	-2.998413	-0.595863	0.091745	-1.604481	0.108582	0.018616	-0.030090	0.999963	-0.002979	0.000459	-0.008022	
18502	    0	11.087468	1.660021	-2.367480	-0.490386	0.151636	-1.704429	0.110992	0.015596	-0.023798	0.999960	-0.002452	0.000758	-0.008522	
18503	    0	10.857359	1.691351	-1.291872	-0.415617	0.200656	-1.760126	0.108704	0.015930	-0.013062	0.999958	-0.002078	0.001003	-0.008801	
18504	    0	10.387362	1.622839	-0.549515	-0.338559	0.251774	-1.797511	0.104007	0.015285	-0.005652	0.999957	-0.001693	0.001259	-0.008987	
18505	    0	9.820772	2.127476	-0.343351	-0.255588	0.287060	-1.799037	0.098389	0.020386	-0.003601	0.999957	-0.001278	0.001435	-0.008995	
18506	    0	9.240333	2.730964	-0.595810	-0.310902	0.300602	-1.801707	0.092635	0.026466	-0.006139	0.999957	-0.001554	0.001503	-0.009008	
18507	    0	8.938968	2.572243	-1.032073	-0.537689	0.244907	-1.769282	0.089600	0.024902	-0.010498	0.999956	-0.002688	0.001225	-0.008846	
18508	    0	8.764737	2.206158	-1.683566	-0.807202	0.196651	-1.715877	0.087815	0.021240	-0.017009	0.999954	-0.004036	0.000983	-0.008579	
18509	    0	8.794009	1.886301	-2.333121	-1.051157	0.161746	-1.668576	0.088074	0.018005	-0.023499	0.999950	-0.005256	0.000809	-0.008343	
18510	    0	8.908731	1.450894	-2.619085	-1.291489	0.119211	-1.640350	0.089186	0.013608	-0.026334	0.999945	-0.006457	0.000596	-0.008202	
18511	    0	9.315688	0.794778	-2.381173	-1.451140	0.130656	-1.621278	0.093201	0.007019	-0.023926	0.999940	-0.007256	0.000653	-0.008106	
18512	    0	9.661467	0.095460	-2.030379	-1.465445	0.184254	-1.602205	0.096599	0.000031	-0.020395	0.999940	-0.007327	0.000921	-0.008011	
18513	    0	9.664500	-0.794866	-1.992174	-1.424244	0.202183	-1.572448	0.096558	-0.008850	-0.019958	0.999943	-0.007121	0.001011	-0.007862	
18514	    0	9.584568	-1.496866	-2.072934	-1.307701	0.227741	-1.541927	0.095702	-0.015842	-0.020737	0.999948	-0.006538	0.001139	-0.007710	
18515	    0	9.427080	-1.632372	-1.925604	-1.109140	0.264744	-1.529717	0.094116	-0.017151	-0.019287	0.999954	-0.005546	0.001324	-0.007648	
18516	    0	9.384768	-1.582078	-1.721917	-0.851643	0.279621	-1.563856	0.093696	-0.016627	-0.017281	0.999959	-0.004258	0.001398	-0.007819	
18517	    0	9.608255	-1.367037	-1.514725	-0.538451	0.312046	-1.570911	0.095947	-0.014465	-0.015259	0.999964	-0.002692	0.001560	-0.007854	
18518	    0	9.892627	-1.113746	-1.310077	-0.283435	0.336079	-1.560800	0.098813	-0.011928	-0.013250	0.999967	-0.001417	0.001680	-0.007804	
18519	    0	10.370608	-0.585270	-1.105336	-0.165560	0.351909	-1.525895	0.103638	-0.006653	-0.011230	0.999969	-0.000828	0.001760	-0.007629	
18520	    0	10.625168	-0.077879	-1.195607	-0.145914	0.354008	-1.519219	0.106220	-0.001595	-0.012143	0.999969	-0.000730	0.001770	-0.007596	
18521	    0	10.797012	0.345803	-1.096190	-0.131227	0.380901	-1.530473	0.107971	0.002625	-0.011169	0.999969	-0.000656	0.001904	-0.007652	
18522	    0	10.926616	0.833540	-0.861104	-0.088502	0.436406	-1.551836	0.109307	0.007483	-0.008853	0.999967	-0.000443	0.002182	-0.007759	
18523	    0	10.894468	1.104432	-0.693036	-0.069238	0.492101	-1.557940	0.109009	0.010193	-0.007202	0.999966	-0.000346	0.002460	-0.007790	
18524	    0	10.661810	1.207418	-0.743382	-0.115396	0.500875	-1.536195	0.106688	0.011250	-0.007708	0.999967	-0.000577	0.002504	-0.007681	
18525	    0	10.492202	1.080338	-0.830646	-0.321964	0.422864	-1.486221	0.104980	0.010010	-0.008545	0.999969	-0.001610	0.002114	-0.007431	
18526	    0	10.565018	0.671319	-0.940719	-0.638778	0.343136	-1.413932	0.105678	0.005936	-0.009608	0.999968	-0.003194	0.001716	-0.007070	
18527	    0	10.675173	0.221661	-0.924734	-0.862894	0.271037	-1.332870	0.106750	0.001465	-0.009399	0.999967	-0.004314	0.001355	-0.006664	
18528	    0	10.646183	-0.102075	-0.927102	-1.062787	0.214961	-1.248183	0.106442	-0.001735	-0.009377	0.999966	-0.005314	0.001075	-0.006241	
18529	    0	10.594451	-0.666470	-0.941250	-1.200881	0.171091	-1.138319	0.105896	-0.007324	-0.009460	0.999965	-0.006004	0.000855	-0.005692	
18530	    0	10.519963	-1.442162	-1.126406	-1.268782	0.133134	-1.015865	0.105117	-0.015027	-0.011240	0.999967	-0.006344	0.000666	-0.005079	
18531	    0	10.197471	-2.206239	-0.863354	-1.326003	0.117685	-0.910197	0.101868	-0.022583	-0.008545	0.999967	-0.006630	0.000588	-0.004551	
18532	    0	9.791675	-2.798821	-0.497527	-1.298726	0.112153	-0.791367	0.097802	-0.028407	-0.004847	0.999970	-0.006494	0.000561	-0.003957	
18533	    0	9.715591	-3.291834	-0.504150	-1.197061	0.081826	-0.651555	0.097046	-0.033264	-0.004883	0.999976	-0.005985	0.000409	-0.003258	
18534	    0	9.791745	-3.397230	-0.675246	-0.976186	0.072861	-0.521090	0.097826	-0.034260	-0.006621	0.999984	-0.004881	0.000364	-0.002605	
18535	    0	9.962286	-3.811901	-0.609034	-0.765803	0.075531	-0.377656	0.099548	-0.038330	-0.005981	0.999990	-0.003829	0.000378	-0.001888	
18536	    0	10.144065	-3.744622	-0.326353	-0.549508	0.086594	-0.202179	0.101401	-0.037558	-0.003204	0.999995	-0.002748	0.000433	-0.001011	
18537	    0	10.272601	-3.496152	-0.201988	-0.414276	0.129891	-0.014496	0.102722	-0.034973	-0.002014	0.999997	-0.002071	0.000649	-0.000072	
18538	    0	10.221153	-3.546396	-0.407821	-0.367356	0.177002	0.200653	0.102243	-0.035369	-0.004104	0.999997	-0.001837	0.000885	0.001003	
18539	    0	9.947843	-3.731136	-0.749521	-0.362206	0.282288	0.433350	0.099548	-0.037109	-0.007568	0.999994	-0.001811	0.001411	0.002167	
18540	    0	9.364834	-4.230330	-0.890302	-0.398637	0.346948	0.683596	0.093777	-0.042001	-0.008982	0.999990	-0.001993	0.001735	0.003418	
18541	    0	8.830959	-4.197156	-0.042308	-0.539973	0.402071	0.922399	0.088501	-0.041565	-0.000488	0.999983	-0.002700	0.002010	0.004612	
18542	    0	8.751775	-4.306930	0.620320	-0.722319	0.431255	1.174556	0.087782	-0.042532	0.006168	0.999973	-0.003612	0.002156	0.005873	
18543	    0	9.205910	-4.293112	1.660524	-1.000037	0.467688	1.457998	0.092407	-0.042175	0.016602	0.999958	-0.005000	0.002338	0.007290	
18544	    0	9.258565	-4.081711	1.001408	-1.150152	0.415619	1.691658	0.092947	-0.039974	0.010053	0.999945	-0.005751	0.002078	0.008458	
18545	    0	9.709534	-2.771903	-0.668625	-0.820939	0.285536	1.957740	0.097351	-0.026794	-0.006714	0.999942	-0.004105	0.001428	0.009789	
18546	    0	10.272643	-0.993843	-2.298671	-0.220303	0.097086	2.179952	0.102816	-0.008843	-0.023026	0.999939	-0.001101	0.000485	0.010900	
18547	    0	10.923651	0.356964	-3.458327	0.384722	-0.052644	2.394926	0.109192	0.004944	-0.034546	0.999926	0.001924	-0.000263	0.011974	
18548	    0	12.053954	0.989599	-3.411666	0.461401	-0.068666	2.557064	0.120411	0.011515	-0.034050	0.999915	0.002307	-0.000343	0.012785	
18549	    0	13.475933	1.417550	-2.727534	0.189405	-0.148777	2.568125	0.134583	0.015930	-0.027161	0.999916	0.000947	-0.000744	0.012840	
18550	    0	15.712122	2.036432	-2.539383	-0.050928	-0.354967	2.470462	0.156898	0.022297	-0.025121	0.999922	-0.000255	-0.001775	0.012352	
18551	    0	18.223314	3.496010	-2.671883	-0.364694	-0.593391	2.347623	0.181885	0.037048	-0.026245	0.999925	-0.001823	-0.002967	0.011738	
18552	    0	19.533000	5.773366	-3.455757	-0.282675	-0.712029	2.202465	0.194800	0.059833	-0.033947	0.999931	-0.001413	-0.003560	0.011012	
18553	    0	18.419903	5.498132	-3.254871	-0.228696	-0.685897	2.110334	0.183716	0.056885	-0.031982	0.999937	-0.001143	-0.003429	0.010551	
18554	    0	16.541933	5.143707	-2.208692	-0.325019	-0.653089	2.052157	0.164951	0.053096	-0.021633	0.999940	-0.001625	-0.003265	0.010261	
18555	    0	14.702665	4.955096	-1.051276	-0.441560	-0.671400	2.040904	0.146545	0.051025	-0.010132	0.999939	-0.002208	-0.003357	0.010204	
18556	    0	13.338516	4.289349	-0.110645	-0.321585	-0.733771	2.015344	0.132947	0.044233	-0.000689	0.999941	-0.001608	-0.003669	0.010077	
18557	    0	12.257709	3.767468	0.100611	0.157359	-0.800339	1.971473	0.122192	0.038879	0.001526	0.999943	0.000787	-0.004002	0.009857	
18558	    0	11.313268	3.366954	-0.304139	0.821703	-0.846118	1.923220	0.112813	0.034766	-0.002422	0.999936	0.004108	-0.004230	0.009616	
18559	    0	10.570548	3.395285	-0.601674	1.450386	-0.863479	1.857806	0.105408	0.034973	-0.005310	0.999921	0.007252	-0.004317	0.009289	
18560	    0	9.937069	3.719981	-0.791407	1.961392	-0.898772	1.816428	0.099060	0.038173	-0.007097	0.999900	0.009807	-0.004494	0.009082	
18561	    0	9.741436	3.971894	-1.171723	2.354524	-0.902402	1.770853	0.097107	0.040710	-0.010803	0.999881	0.011772	-0.004512	0.008854	
18562	    0	9.644975	4.405906	-1.662637	2.642557	-0.856437	1.677777	0.096143	0.045077	-0.015623	0.999867	0.013212	-0.004282	0.008389	
18563	    0	9.170295	5.042410	-2.156605	2.750711	-0.776707	1.621319	0.091370	0.051453	-0.020508	0.999865	0.013753	-0.003883	0.008106	
18564	    0	8.760876	5.738735	-2.315735	2.647892	-0.699454	1.592703	0.087225	0.058380	-0.022083	0.999874	0.013239	-0.003497	0.007963	
18565	    0	8.256862	6.407157	-2.640293	2.255324	-0.687241	1.557211	0.082153	0.065002	-0.025391	0.999900	0.011276	-0.003436	0.007786	
18566	    0	7.838860	7.287509	-1.082905	1.807448	-0.689714	1.488723	0.077878	0.073548	-0.009897	0.999925	0.009037	-0.003448	0.007443	
18567	    0	7.659823	5.592130	-0.925694	1.435879	-0.646031	1.398494	0.076233	0.056519	-0.008606	0.999944	0.007179	-0.003230	0.006992	
18568	    0	7.434243	6.219983	-1.452889	0.798044	-0.699815	1.316277	0.073980	0.062744	-0.014020	0.999964	0.003990	-0.003499	0.006581	
18569	    0	6.523697	6.960564	-0.254885	0.654036	-0.566869	1.213848	0.064819	0.070007	-0.002136	0.999971	0.003270	-0.002834	0.006069	
18570	    0	6.244361	6.488491	0.660733	0.602536	-0.546078	1.134500	0.062056	0.065217	0.006973	0.999975	0.003013	-0.002730	0.005672	
18571	    0	6.025533	5.751928	0.851530	0.608830	-0.530056	1.024635	0.059937	0.057800	0.008850	0.999978	0.003044	-0.002650	0.005123	
18572	    0	5.681378	5.214863	0.019030	0.474742	-0.579837	0.912862	0.056574	0.052406	0.000479	0.999982	0.002374	-0.002899	0.004564	
18573	    0	5.388057	4.953530	-0.583132	0.092316	-0.718502	0.765232	0.053711	0.049744	-0.005615	0.999986	0.000462	-0.003592	0.003826	
18574	    0	5.402560	4.349431	-0.852121	-0.229836	-0.776485	0.604632	0.053926	0.043648	-0.008362	0.999987	-0.001149	-0.003882	0.003023	
18575	    0	5.597259	3.454392	-0.490517	-0.359918	-0.739291	0.474550	0.055908	0.034668	-0.004761	0.999989	-0.001800	-0.003696	0.002373	
18576	    0	5.676813	2.690187	0.064369	-0.426675	-0.673678	0.375558	0.056715	0.027010	0.000777	0.999990	-0.002133	-0.003368	0.001878	
18577	    0	5.954496	2.065289	0.055827	-0.736049	-0.636294	0.325014	0.059509	0.020752	0.000671	0.999987	-0.003680	-0.003181	0.001625	
18578	    0	6.338419	1.292689	-0.370386	-1.179322	-0.559811	0.305941	0.063375	0.013002	-0.003603	0.999977	-0.005897	-0.002799	0.001530	
18579	    0	6.798605	0.085677	-0.322419	-1.559466	-0.527769	0.244143	0.067993	0.000916	-0.003052	0.999965	-0.007797	-0.002639	0.001221	
18580	    0	7.203607	-0.915976	-0.979348	-1.908716	-0.580607	0.176623	0.072072	-0.009188	-0.009497	0.999949	-0.009543	-0.002903	0.000883	
18581	    0	7.524171	-1.514410	-1.947966	-2.214673	-0.711076	0.097658	0.075317	-0.015320	-0.019043	0.999931	-0.011073	-0.003555	0.000488	
18582	    0	8.155113	-3.181087	-3.905336	-2.445862	-0.900485	0.038339	0.081731	-0.032267	-0.038293	0.999914	-0.012229	-0.004502	0.000192	
18583	    0	8.604192	-6.319178	-6.632098	-2.788649	-1.135869	0.038911	0.086426	-0.064087	-0.064941	0.999887	-0.013943	-0.005679	0.000195	
18584	    0	8.781512	-8.158164	-6.513329	-2.402568	-1.174008	-0.001335	0.088191	-0.082353	-0.063630	0.999910	-0.012012	-0.005870	-0.000007	
18585	    0	9.938990	-10.019640	-4.425124	-1.138124	-0.816352	-0.038910	0.099548	-0.100464	-0.043274	0.999975	-0.005691	-0.004082	-0.000195	
18586	    0	11.271804	-11.113284	-3.397415	-0.240135	-0.493050	0.024796	0.112815	-0.111159	-0.033563	0.999996	-0.001201	-0.002465	0.000124	
18587	    0	12.789061	-12.500691	-3.948744	0.230599	-0.411988	0.225830	0.128113	-0.124817	-0.039368	0.999996	0.001153	-0.002060	0.001129	
18588	    0	13.710568	-12.518954	-5.337661	0.671961	-0.425340	0.447656	0.137499	-0.124702	-0.053504	0.999990	0.003360	-0.002127	0.002238	
18589	    0	13.135355	-10.107831	-6.508266	1.124771	-0.239565	0.560764	0.131714	-0.100342	-0.065491	0.999979	0.005624	-0.001198	0.002804	
18590	    0	11.460891	-6.083751	-6.056331	1.521318	0.084306	0.565344	0.114754	-0.060050	-0.061070	0.999967	0.007607	0.000422	0.002827	
18591	    0	10.126876	-3.012954	-4.323160	1.853209	0.383955	0.486000	0.101257	-0.029480	-0.043701	0.999951	0.009266	0.001920	0.002430	
18592	    0	9.116468	-1.271103	-1.715745	2.023545	0.597774	0.359161	0.091135	-0.012371	-0.017556	0.999942	0.010118	0.002989	0.001796	
18593	    0	8.441940	0.408062	-0.127015	1.952397	0.701345	0.131991	0.084412	0.004150	-0.001526	0.999946	0.009762	0.003507	0.000660	
18594	    0	8.182363	1.457244	-0.240683	1.552027	0.554091	-0.103761	0.081824	0.014549	-0.002521	0.999966	0.007760	0.002770	-0.000519	
18595	    0	8.656816	2.234997	-0.517609	1.512924	0.134469	-0.396733	0.086609	0.022217	-0.005066	0.999969	0.007565	0.000672	-0.001984	
18596	    0	10.294875	4.071504	-4.428316	2.230121	-0.254255	-0.494205	0.103106	0.040950	-0.043696	0.999933	0.011150	-0.001271	-0.002471	
18597	    0	10.300619	8.697328	-3.894584	2.665033	-0.009728	-0.745416	0.103333	0.087097	-0.037781	0.999904	0.013325	-0.000049	-0.003727	
18598	    0	11.025425	6.778615	1.702579	1.623941	0.122835	-0.965514	0.110590	0.067112	0.017505	0.999955	0.008120	0.000614	-0.004827	
18599	    0	13.265129	1.016202	0.738272	1.158152	-0.010491	-0.808723	0.132690	0.009583	0.007446	0.999974	0.005791	-0.000052	-0.004044	
18600	    0	14.955667	-0.140218	0.878180	1.211368	0.199892	-0.794036	0.149558	-0.002048	0.008621	0.999972	0.006057	0.000999	-0.003970	
18601	    0	15.365761	2.275623	2.417272	1.258291	0.423436	-0.901804	0.153809	0.021912	0.023987	0.999968	0.006291	0.002117	-0.004509	
18602	    0	15.452450	5.153767	1.246576	1.131831	0.436787	-0.851257	0.154769	0.050809	0.012417	0.999972	0.005659	0.002184	-0.004256	
18603	    0	13.673084	7.898132	-0.872880	1.125345	0.377849	-0.786597	0.137024	0.078491	-0.008545	0.999974	0.005627	0.001889	-0.003933	
18604	    0	10.748253	10.078889	-2.668443	0.576784	0.153161	-0.731471	0.107830	0.100471	-0.026477	0.999989	0.002884	0.000766	-0.003657	
18605	    0	8.493417	10.404522	-3.783709	-0.106621	0.024414	-0.765993	0.085327	0.103699	-0.037903	0.999992	-0.000533	0.000122	-0.003830	
18606	    0	7.909181	8.255217	-3.801912	-0.634578	0.013161	-0.904279	0.079461	0.082072	-0.038285	0.999985	-0.003173	0.000066	-0.004521	
18607	    0	8.612362	6.650970	-3.672992	-0.945863	0.013733	-1.107035	0.086487	0.065857	-0.037048	0.999973	-0.004729	0.000069	-0.005535	
18608	    0	9.871618	6.357228	-3.787340	-1.021206	0.047112	-1.280227	0.099111	0.062744	-0.038218	0.999966	-0.005106	0.000236	-0.006401	
18609	    0	11.351133	5.544437	-3.507252	-1.046576	0.072480	-1.435108	0.113892	0.054443	-0.035400	0.999960	-0.005233	0.000362	-0.007175	
18610	    0	12.412646	4.010140	-3.087501	-0.979247	0.098421	-1.555656	0.124417	0.038982	-0.031129	0.999957	-0.004896	0.000492	-0.007778	
18611	    0	12.562452	3.057789	-2.689177	-0.821507	0.135805	-1.666284	0.125854	0.029419	-0.027100	0.999956	-0.004107	0.000679	-0.008331	
18612	    0	12.270933	3.109992	-2.050038	-0.701343	0.175860	-1.779965	0.122961	0.029934	-0.020715	0.999953	-0.003507	0.000879	-0.008900	
18613	    0	11.654540	3.196530	-1.416360	-0.651561	0.238232	-1.877625	0.116821	0.030823	-0.014404	0.999949	-0.003258	0.001191	-0.009388	
18614	    0	10.865094	2.848676	-1.080727	-0.617420	0.276761	-1.952588	0.108907	0.027390	-0.011044	0.999947	-0.003087	0.001384	-0.009763	
18615	    0	10.242252	2.633789	-1.252575	-0.633061	0.291448	-2.006568	0.102661	0.025269	-0.012756	0.999943	-0.003165	0.001457	-0.010033	
18616	    0	9.756555	2.515915	-1.630868	-0.758186	0.276953	-2.027743	0.097791	0.024106	-0.016537	0.999940	-0.003791	0.001385	-0.010139	
18617	    0	9.467482	1.997928	-1.932971	-0.958082	0.230413	-2.036329	0.094849	0.018921	-0.019531	0.999935	-0.004790	0.001152	-0.010181	
18618	    0	9.342454	1.473229	-2.244663	-1.144435	0.185398	-2.016494	0.093545	0.013660	-0.022614	0.999932	-0.005722	0.000927	-0.010082	
18619	    0	9.545463	0.945756	-2.286574	-1.274711	0.186162	-1.988267	0.095520	0.008362	-0.023010	0.999929	-0.006373	0.000931	-0.009941	
18620	    0	9.770816	-0.413627	-2.144047	-1.367029	0.202947	-1.942871	0.097639	-0.005232	-0.021506	0.999928	-0.006835	0.001015	-0.009714	
18621	    0	9.886716	-2.250786	-2.154375	-1.414521	0.212293	-1.822703	0.098633	-0.023560	-0.021484	0.999932	-0.007072	0.001061	-0.009113	
18622	    0	9.964514	-2.892704	-2.222291	-1.395445	0.249486	-1.698338	0.099366	-0.029926	-0.022141	0.999938	-0.006977	0.001247	-0.008492	
18623	    0	9.915570	-2.969526	-1.988935	-1.267838	0.281530	-1.654083	0.098877	-0.030640	-0.019836	0.999945	-0.006339	0.001408	-0.008270	
18624	    0	9.703851	-3.233493	-1.813152	-0.995079	0.286488	-1.622607	0.096745	-0.033211	-0.018106	0.999953	-0.004975	0.001432	-0.008113	
18625	    0	9.658919	-3.121731	-1.694802	-0.691232	0.268749	-1.592275	0.096313	-0.032043	-0.016968	0.999961	-0.003456	0.001344	-0.007961	
18626	    0	9.892886	-2.557751	-2.085733	-0.321773	0.337032	-1.523034	0.098695	-0.026363	-0.020982	0.999968	-0.001609	0.001685	-0.007615	
18627	    0	9.962928	-2.184735	-1.686856	-0.081445	0.463109	-1.464858	0.099426	-0.022583	-0.017090	0.999969	-0.000407	0.002316	-0.007324	
18628	    0	10.165125	-1.791695	-1.439994	-0.019837	0.442318	-1.433577	0.101487	-0.018646	-0.014623	0.999971	-0.000099	0.002212	-0.007168	
18629	    0	10.429655	-1.145930	-1.392281	-0.071717	0.346568	-1.425184	0.104187	-0.012207	-0.014099	0.999972	-0.000359	0.001733	-0.007126	
18630	    0	10.391708	-0.562648	-1.317860	-0.042153	0.388531	-1.456656	0.103847	-0.006386	-0.013379	0.999971	-0.000211	0.001943	-0.007283	
18631	    0	10.135250	0.081381	-1.402195	0.166513	0.514227	-1.509110	0.101318	0.000061	-0.014282	0.999968	0.000833	0.002571	-0.007545	
18632	    0	9.891485	0.196946	-1.396085	0.367932	0.616844	-1.563091	0.098883	0.001223	-0.014263	0.999963	0.001840	0.003084	-0.007815	
18633	    0	9.820703	0.483683	-1.086344	0.418287	0.641640	-1.569386	0.098206	0.004089	-0.011169	0.999962	0.002091	0.003208	-0.007847	
18634	    0	9.759914	0.940000	-0.767011	0.287632	0.603111	-1.581402	0.097646	0.008639	-0.007952	0.999963	0.001438	0.003016	-0.007907	
18635	    0	9.854392	0.686762	-0.791768	0.044442	0.532538	-1.554125	0.098572	0.006104	-0.008179	0.999966	0.000222	0.002663	-0.007771	
18636	    0	9.931105	0.502455	-0.412412	-0.254443	0.454144	-1.472679	0.099335	0.004288	-0.004355	0.999969	-0.001272	0.002271	-0.007363	
18637	    0	9.921095	0.568991	-0.208183	-0.537687	0.327304	-1.368726	0.099243	0.005005	-0.002258	0.999971	-0.002688	0.001637	-0.006844	
18638	    0	9.791735	0.387520	-0.277172	-0.778396	0.236704	-1.255810	0.097936	0.003249	-0.002901	0.999971	-0.003892	0.001184	-0.006279	
18639	    0	9.614969	-0.275806	-0.211386	-0.931367	0.203707	-1.097880	0.096130	-0.003296	-0.002197	0.999973	-0.004657	0.001019	-0.005489	
18640	    0	9.733148	-0.930793	-0.164603	-1.003273	0.146295	-0.955017	0.097284	-0.009781	-0.001669	0.999975	-0.005016	0.000731	-0.004775	
18641	    0	9.753879	-1.526964	-0.211034	-1.054963	0.096131	-0.831610	0.097473	-0.015686	-0.002075	0.999977	-0.005275	0.000481	-0.004158	
18642	    0	9.773704	-2.144171	-0.321734	-1.076324	0.063897	-0.700765	0.097660	-0.021801	-0.003132	0.999979	-0.005382	0.000319	-0.003504	
18643	    0	9.699722	-2.656766	-0.506155	-0.982671	0.028420	-0.543216	0.096924	-0.026855	-0.004944	0.999984	-0.004913	0.000142	-0.002716	
18644	    0	9.414433	-2.839653	-0.673235	-0.879673	-0.003624	-0.371744	0.094091	-0.028601	-0.006605	0.999989	-0.004398	-0.000018	-0.001859	
18645	    0	9.237441	-3.535889	-0.722405	-0.820735	0.003052	-0.158692	0.092346	-0.035461	-0.007080	0.999990	-0.004104	0.000015	-0.000793	
18646	    0	9.520194	-3.464364	-0.696807	-0.706865	0.061798	0.048256	0.095208	-0.034645	-0.006875	0.999993	-0.003534	0.000309	0.000241	
18647	    0	9.755947	-3.317973	-0.832734	-0.626375	0.158120	0.255585	0.097595	-0.033081	-0.008301	0.999993	-0.003132	0.000791	0.001278	
18648	    0	9.774899	-3.556084	-1.018118	-0.642778	0.268365	0.512125	0.097826	-0.035343	-0.010199	0.999990	-0.003214	0.001342	0.002561	
18649	    0	9.484431	-3.785860	-0.798030	-0.742153	0.326540	0.740818	0.094971	-0.037537	-0.007996	0.999985	-0.003711	0.001633	0.003704	
18650	    0	8.935963	-3.891516	0.167781	-1.010141	0.344852	1.000604	0.089556	-0.038459	0.001719	0.999972	-0.005051	0.001724	0.005003	
18651	    0	8.814012	-4.475962	1.047818	-1.319714	0.341039	1.271076	0.088440	-0.044128	0.010620	0.999956	-0.006598	0.001705	0.006355	
18652	    0	9.325884	-4.582800	2.396692	-1.615559	0.387772	1.544032	0.093655	-0.044911	0.024151	0.999935	-0.008078	0.001939	0.007720	
18653	    0	9.681837	-3.745139	1.082117	-1.613466	0.397501	1.781508	0.097168	-0.036499	0.010925	0.999926	-0.008067	0.001987	0.008907	
18654	    0	10.331916	-2.732661	-0.833862	-1.194792	0.232702	2.055026	0.103583	-0.026313	-0.008300	0.999928	-0.005974	0.001163	0.010275	
18655	    0	11.179029	-0.907796	-2.623679	-0.530827	0.054170	2.278189	0.111877	-0.007874	-0.026245	0.999931	-0.002654	0.000271	0.011391	
18656	    0	11.956495	0.799750	-3.935955	0.121120	-0.077822	2.497929	0.119468	0.009514	-0.039308	0.999921	0.000606	-0.000389	0.012489	
18657	    0	13.239990	1.408507	-3.305315	0.157933	-0.031854	2.658160	0.132202	0.015869	-0.033020	0.999911	0.000790	-0.000159	0.013290	
18658	    0	14.844080	1.294359	-2.565741	-0.146679	-0.108913	2.640420	0.148267	0.014883	-0.025587	0.999912	-0.000733	-0.000545	0.013202	
18659	    0	17.298502	1.726873	-2.389045	-0.434125	-0.359164	2.536082	0.172791	0.019409	-0.023621	0.999915	-0.002171	-0.001796	0.012680	
18660	    0	19.603845	3.851692	-2.713685	-0.575081	-0.565734	2.368417	0.195641	0.040758	-0.026698	0.999921	-0.002875	-0.002829	0.011842	
18661	    0	20.004694	5.589834	-3.490094	-0.378999	-0.647750	2.214864	0.199524	0.058044	-0.034363	0.999931	-0.001895	-0.003239	0.011074	
18662	    0	18.367725	5.221596	-3.502447	-0.332267	-0.624098	2.146957	0.183211	0.054127	-0.034541	0.999936	-0.001661	-0.003120	0.010735	
18663	    0	16.248712	4.715415	-2.462646	-0.429544	-0.615514	2.128646	0.162048	0.048828	-0.024231	0.999936	-0.002148	-0.003078	0.010643	
18664	    0	14.529248	4.410770	-1.206177	-0.422677	-0.667777	2.120254	0.144854	0.045620	-0.011673	0.999935	-0.002113	-0.003339	0.010601	
18665	    0	13.181678	4.008642	-0.443288	-0.095942	-0.737777	2.065319	0.131409	0.041443	-0.003967	0.999939	-0.000480	-0.003689	0.010326	
18666	    0	11.992493	3.722181	-0.514435	0.560963	-0.789468	2.006572	0.119562	0.038436	-0.004565	0.999937	0.002805	-0.003947	0.010033	
18667	    0	10.951105	3.523401	-0.982262	1.255068	-0.807783	1.983694	0.109192	0.036377	-0.009155	0.999923	0.006275	-0.004039	0.009918	
18668	    0	10.223489	3.741442	-1.111059	1.749285	-0.834682	1.972261	0.101903	0.038513	-0.010351	0.999904	0.008746	-0.004173	0.009861	
18669	    0	9.708364	4.124223	-1.348922	2.045514	-0.879510	1.905891	0.096741	0.042297	-0.012634	0.999892	0.010227	-0.004397	0.009529	
18670	    0	9.301987	4.421577	-1.616930	2.283758	-0.879894	1.844097	0.092674	0.045249	-0.015248	0.999882	0.011418	-0.004399	0.009220	
18671	    0	8.970673	4.690866	-1.756689	2.534020	-0.810276	1.764754	0.089355	0.047913	-0.016602	0.999872	0.012670	-0.004051	0.008823	
18672	    0	8.641622	5.111647	-2.032225	2.696538	-0.722536	1.670339	0.086055	0.052101	-0.019313	0.999867	0.013482	-0.003613	0.008351	
18673	    0	8.228034	5.594253	-2.346359	2.572162	-0.670651	1.582400	0.081909	0.056885	-0.022461	0.999880	0.012860	-0.003353	0.007912	
18674	    0	7.327035	6.698566	-3.133546	2.060760	-0.672932	1.540802	0.072853	0.067864	-0.030394	0.999911	0.010303	-0.003365	0.007704	
18675	    0	7.228565	6.557937	-0.820065	1.757090	-0.655189	1.432071	0.071838	0.066162	-0.007385	0.999930	0.008785	-0.003276	0.007160	
18676	    0	6.997466	5.769800	-1.852700	1.083962	-0.696955	1.372930	0.069639	0.058275	-0.017969	0.999955	0.005420	-0.003485	0.006865	
18677	    0	6.725343	6.430089	-1.282888	0.637252	-0.695045	1.245893	0.066895	0.064758	-0.012390	0.999969	0.003186	-0.003475	0.006229	
18678	    0	6.017345	6.813270	0.070037	0.625616	-0.625235	1.180850	0.059767	0.068483	0.001101	0.999972	0.003128	-0.003126	0.005904	
18679	    0	5.960274	5.846917	0.505661	0.637060	-0.635343	1.093301	0.059265	0.058777	0.005432	0.999974	0.003185	-0.003177	0.005466	
18680	    0	5.620075	5.347494	0.401450	0.646024	-0.642781	1.004036	0.055918	0.053742	0.004368	0.999976	0.003230	-0.003214	0.005020	
18681	    0	5.349195	4.736568	-0.145987	0.477031	-0.700383	0.894934	0.053284	0.047607	-0.001160	0.999981	0.002385	-0.003502	0.004475	
18682	    0	5.065968	3.987144	-0.256598	0.242998	-0.798420	0.760845	0.050517	0.040067	-0.002316	0.999984	0.001215	-0.003992	0.003804	
18683	    0	5.195684	3.132981	-0.500284	0.122071	-0.858883	0.621799	0.051880	0.031494	-0.004761	0.999986	0.000610	-0.004294	0.003109	
18684	    0	5.419456	2.820192	-0.603170	0.053024	-0.791743	0.515940	0.054145	0.028343	-0.005810	0.999989	0.000265	-0.003959	0.002580	
18685	    0	5.749416	2.776571	-0.062137	-0.080681	-0.714876	0.444032	0.057434	0.027893	-0.000427	0.999990	-0.000403	-0.003574	0.002220	
18686	    0	6.365639	2.276551	0.866479	-0.263596	-0.650408	0.397302	0.063582	0.022903	0.008842	0.999991	-0.001318	-0.003252	0.001987	
18687	    0	7.072154	1.120299	0.764000	-0.650599	-0.592043	0.351716	0.070679	0.011353	0.007812	0.999989	-0.003253	-0.002960	0.001759	
18688	    0	7.515304	-0.095243	0.233385	-1.227007	-0.535969	0.278666	0.075148	-0.000833	0.002541	0.999976	-0.006135	-0.002680	0.001393	
18689	    0	7.682874	-0.751233	-0.225624	-1.760890	-0.617799	0.218967	0.076843	-0.007446	-0.001953	0.999955	-0.008804	-0.003089	0.001095	
18690	    0	7.885332	-1.042050	-0.992890	-2.026216	-0.762382	0.177196	0.078899	-0.010448	-0.009522	0.999941	-0.010131	-0.003812	0.000886	
18691	    0	8.363804	-2.618640	-3.187842	-2.218682	-0.947403	0.109103	0.083801	-0.026489	-0.031189	0.999927	-0.011093	-0.004737	0.000546	
18692	    0	8.607970	-5.589750	-7.331107	-2.620025	-1.212162	0.088886	0.086544	-0.056808	-0.072047	0.999895	-0.013100	-0.006061	0.000444	
18693	    0	8.548424	-7.897034	-7.469538	-2.217733	-1.190217	0.035859	0.085938	-0.079773	-0.073303	0.999920	-0.011088	-0.005951	0.000179	
18694	    0	10.006816	-10.362175	-4.175573	-0.939185	-0.811391	-0.059128	0.100204	-0.103845	-0.040862	0.999980	-0.004696	-0.004057	-0.000296	
18695	    0	11.785835	-11.862163	-2.737971	-0.176811	-0.504304	-0.011444	0.117920	-0.118652	-0.026978	0.999996	-0.000884	-0.002522	-0.000057	
18696	    0	13.757196	-12.881288	-3.724641	-0.077438	-0.468636	0.267411	0.137831	-0.128643	-0.036874	0.999996	-0.000387	-0.002343	0.001337	
18697	    0	14.351328	-12.254893	-6.721963	0.199891	-0.536920	0.572206	0.144043	-0.122070	-0.066956	0.999991	0.000999	-0.002685	0.002861	
18698	    0	12.989938	-9.192347	-8.300707	0.809292	-0.234414	0.710491	0.130322	-0.091125	-0.083224	0.999985	0.004046	-0.001172	0.003552	
18699	    0	11.010628	-4.749612	-6.897097	1.427666	0.276187	0.672920	0.110168	-0.046631	-0.069458	0.999968	0.007138	0.001381	0.003365	
18700	    0	9.420038	-1.713648	-2.820560	1.910435	0.678838	0.537119	0.094149	-0.016611	-0.028686	0.999945	0.009552	0.003394	0.002686	
18701	    0	8.384442	0.212998	0.619417	2.125022	0.708023	0.312812	0.083862	0.002197	0.005920	0.999935	0.010625	0.003540	0.001564	
18702	    0	8.132601	1.322431	0.789346	1.877052	0.528916	0.003243	0.081347	0.013152	0.007802	0.999952	0.009385	0.002645	0.000016	
18703	    0	8.929620	2.860991	-0.210204	2.108042	0.065805	-0.420388	0.089355	0.028442	-0.001831	0.999942	0.010540	0.000329	-0.002102	
18704	    0	10.742881	5.242358	-3.811392	2.745529	-0.290880	-0.637076	0.107651	0.052596	-0.037236	0.999899	0.013727	-0.001454	-0.003185	
18705	    0	11.266158	9.689513	-0.554198	2.501183	-0.109867	-1.025422	0.113159	0.096375	-0.004272	0.999908	0.012506	-0.000549	-0.005127	
18706	    0	12.985928	5.205140	2.191671	1.339358	-0.218966	-1.127448	0.130125	0.051169	0.022404	0.999961	0.006697	-0.001095	-0.005637	
18707	    0	15.338083	0.097523	0.133785	0.944527	-0.242426	-1.023873	0.153381	0.000183	0.001526	0.999974	0.004723	-0.001212	-0.005119	
18708	    0	16.805104	1.116387	-0.655016	1.478216	0.226787	-1.053634	0.168099	0.010327	-0.006662	0.999958	0.007391	0.001134	-0.005268	
18709	    0	17.053246	3.989287	2.224083	1.446553	0.432020	-0.999464	0.170776	0.038879	0.022156	0.999959	0.007233	0.002160	-0.004997	
18710	    0	16.355424	7.042934	1.550529	1.323525	0.465971	-0.939190	0.163918	0.069557	0.015586	0.999964	0.006618	0.002330	-0.004696	
18711	    0	13.410995	8.984100	-0.391888	1.033029	0.305369	-0.933083	0.134521	0.089233	-0.003662	0.999974	0.005165	0.001527	-0.004665	
18712	    0	10.073616	9.707756	-2.790459	0.472452	0.095749	-0.930790	0.101173	0.096673	-0.027724	0.999986	0.002362	0.000479	-0.004654	
18713	    0	8.137840	8.308890	-4.539063	-0.157738	0.037384	-1.007847	0.081787	0.082642	-0.045471	0.999987	-0.000789	0.000187	-0.005039	
18714	    0	7.493170	6.991774	-4.310199	-0.581745	0.043488	-1.114090	0.075310	0.069373	-0.043321	0.999980	-0.002909	0.000217	-0.005570	
18715	    0	7.848216	6.169831	-4.350860	-0.779731	0.037575	-1.251995	0.078857	0.061035	-0.043762	0.999972	-0.003899	0.000188	-0.006260	
18716	    0	9.221643	4.080640	-4.151920	-0.824365	0.059701	-1.374069	0.092481	0.040000	-0.041713	0.999968	-0.004122	0.000299	-0.006870	
18717	    0	10.379259	2.347312	-3.324368	-0.736817	0.112153	-1.477068	0.103943	0.022583	-0.033386	0.999966	-0.003684	0.000561	-0.007385	
18718	    0	10.993509	1.393250	-2.652307	-0.645645	0.141336	-1.554126	0.110020	0.012992	-0.026644	0.999964	-0.003228	0.000707	-0.007771	
18719	    0	11.213083	0.938636	-2.252830	-0.589759	0.160410	-1.599141	0.112183	0.008423	-0.022644	0.999963	-0.002949	0.000802	-0.007996	
18720	    0	10.578811	0.776952	-1.817335	-0.522811	0.184252	-1.616688	0.105829	0.006866	-0.018290	0.999963	-0.002614	0.000921	-0.008083	
18721	    0	9.796560	0.974232	-1.536936	-0.417142	0.233462	-1.630421	0.098022	0.008911	-0.015503	0.999964	-0.002086	0.001167	-0.008152	
18722	    0	9.117457	1.150041	-1.639987	-0.369649	0.242999	-1.660367	0.091246	0.010713	-0.016531	0.999963	-0.001848	0.001215	-0.008302	
18723	    0	8.810762	1.365427	-1.823966	-0.369840	0.244144	-1.683066	0.088196	0.012878	-0.018372	0.999962	-0.001849	0.001221	-0.008415	
18724	    0	8.772314	1.572865	-2.218710	-0.447088	0.218394	-1.708625	0.087829	0.014929	-0.022317	0.999960	-0.002235	0.001092	-0.008543	
18725	    0	8.905819	1.610503	-2.521198	-0.593575	0.160410	-1.730371	0.089172	0.015259	-0.025330	0.999957	-0.002968	0.000802	-0.008652	
18726	    0	8.832586	1.255298	-2.471214	-0.754368	0.138285	-1.745250	0.088413	0.011688	-0.024818	0.999954	-0.003772	0.000691	-0.008726	
18727	    0	8.619226	0.757800	-2.299737	-0.899330	0.098421	-1.763945	0.086243	0.006714	-0.023071	0.999950	-0.004497	0.000492	-0.008820	
18728	    0	8.547246	0.163436	-2.104395	-1.014345	0.109674	-1.744300	0.085470	0.000782	-0.021096	0.999949	-0.005072	0.000548	-0.008721	
18729	    0	8.810921	-0.224715	-1.857913	-1.055164	0.116922	-1.742584	0.088074	-0.003113	-0.018616	0.999948	-0.005276	0.000585	-0.008713	
18730	    0	9.219435	-0.824823	-1.383593	-1.073093	0.140002	-1.720649	0.092109	-0.009115	-0.013853	0.999948	-0.005365	0.000700	-0.008603	
18731	    0	9.651773	-1.517331	-1.520049	-0.941482	0.148203	-1.674678	0.096375	-0.016052	-0.015198	0.999953	-0.004707	0.000741	-0.008373	
18732	    0	9.810617	-1.504221	-1.578068	-0.704203	0.197413	-1.665329	0.097960	-0.015914	-0.015822	0.999958	-0.003521	0.000987	-0.008327	
18733	    0	9.749416	-1.497327	-1.151273	-0.641450	0.274662	-1.638053	0.097351	-0.015808	-0.011597	0.999960	-0.003207	0.001373	-0.008190	
18734	    0	9.843429	-1.129461	-1.001205	-0.523574	0.300793	-1.625081	0.098323	-0.012120	-0.010129	0.999962	-0.002618	0.001504	-0.008125	
18735	    0	10.287125	-0.036342	-1.469788	-0.302128	0.262645	-1.623554	0.102844	-0.001221	-0.014832	0.999965	-0.001511	0.001313	-0.008118	
18736	    0	10.685289	0.767406	-1.704354	-0.180628	0.317386	-1.619739	0.106883	0.006793	-0.017220	0.999965	-0.000903	0.001587	-0.008099	
18737	    0	10.962060	1.049907	-1.181228	-0.132753	0.374036	-1.657125	0.109680	0.009583	-0.012024	0.999963	-0.000664	0.001870	-0.008286	
18738	    0	10.999316	1.328384	-1.026480	-0.062180	0.418478	-1.713584	0.110080	0.012338	-0.010499	0.999961	-0.000311	0.002092	-0.008568	
18739	    0	10.847637	1.639958	-1.333878	0.074769	0.512130	-1.773859	0.108582	0.015442	-0.013611	0.999957	0.000374	0.002561	-0.008869	
18740	    0	10.579535	1.588208	-1.241725	0.183299	0.585946	-1.817350	0.105897	0.014932	-0.012713	0.999953	0.000916	0.002930	-0.009087	
18741	    0	10.455478	1.027933	-0.940678	0.180819	0.586137	-1.815824	0.104614	0.009338	-0.009705	0.999953	0.000904	0.002931	-0.009079	
18742	    0	10.588449	0.539124	-1.090484	0.022698	0.495345	-1.751542	0.105899	0.004465	-0.011167	0.999958	0.000113	0.002477	-0.008758	
18743	    0	10.657430	0.297615	-1.377015	-0.228885	0.383191	-1.660940	0.106567	0.002075	-0.013977	0.999963	-0.001144	0.001916	-0.008305	
18744	    0	10.651048	-0.063950	-1.458898	-0.554282	0.280956	-1.529139	0.106481	-0.001494	-0.014735	0.999966	-0.002771	0.001405	-0.007646	
18745	    0	10.703777	-0.352910	-1.437208	-0.834474	0.205996	-1.390854	0.106995	-0.004333	-0.014465	0.999966	-0.004172	0.001030	-0.006954	
18746	    0	10.699969	-0.607961	-1.425314	-0.993930	0.165369	-1.245703	0.106947	-0.006817	-0.014309	0.999968	-0.004970	0.000827	-0.006228	
18747	    0	10.590055	-1.007910	-1.184362	-1.152814	0.109292	-1.123822	0.105835	-0.010742	-0.011841	0.999967	-0.005764	0.000546	-0.005619	
18748	    0	10.468313	-1.396126	-0.903525	-1.277747	0.054551	-0.979434	0.104610	-0.014531	-0.008972	0.999967	-0.006389	0.000273	-0.004897	
18749	    0	10.041989	-1.862610	-0.940781	-1.357093	-0.003815	-0.826272	0.100342	-0.019104	-0.009277	0.999968	-0.006785	-0.000019	-0.004131	
18750	    0	9.622905	-2.370105	-1.303650	-1.376929	-0.042916	-0.687034	0.096149	-0.024120	-0.012851	0.999969	-0.006885	-0.000215	-0.003435	
18751	    0	9.559403	-2.682602	-1.026614	-1.331150	-0.032044	-0.559239	0.095520	-0.027161	-0.010071	0.999973	-0.006656	-0.000160	-0.002796	
18752	    0	9.581183	-3.053948	-0.889102	-1.256761	-0.027085	-0.399020	0.095752	-0.030786	-0.008685	0.999978	-0.006284	-0.000135	-0.001995	
18753	    0	9.897322	-3.256068	-0.944332	-1.030736	0.004768	-0.214387	0.098938	-0.032715	-0.009277	0.999986	-0.005154	0.000024	-0.001072	
18754	    0	10.194593	-3.366683	-0.739622	-0.793078	0.077820	-0.017357	0.101940	-0.033705	-0.007302	0.999991	-0.003965	0.000389	-0.000087	
18755	    0	10.403048	-3.482796	-0.485202	-0.619317	0.148773	0.218964	0.104065	-0.034729	-0.004822	0.999994	-0.003097	0.000744	0.001095	
18756	    0	10.398864	-3.398563	-0.626035	-0.575639	0.224877	0.470163	0.104061	-0.033759	-0.006280	0.999992	-0.002878	0.001124	0.002351	
18757	    0	10.108837	-3.233195	-0.758964	-0.671390	0.291635	0.741581	0.101196	-0.031982	-0.007629	0.999986	-0.003357	0.001458	0.003708	
18758	    0	9.546030	-3.195470	-0.631570	-0.851066	0.330737	1.028260	0.095613	-0.031490	-0.006339	0.999976	-0.004255	0.001654	0.005141	
18759	    0	9.055190	-4.016851	0.285909	-1.208322	0.373846	1.322955	0.090820	-0.039551	0.002930	0.999958	-0.006042	0.001869	0.006615	
18760	    0	9.390819	-5.304669	1.174684	-1.484521	0.420770	1.650082	0.094366	-0.052181	0.011938	0.999936	-0.007422	0.002104	0.008250	
18761	    0	10.094571	-5.328446	2.046639	-1.654862	0.414478	1.953943	0.101501	-0.052124	0.020691	0.999915	-0.008274	0.002072	0.009769	
18762	    0	10.537427	-3.985805	0.508018	-1.564074	0.372326	2.187605	0.105811	-0.038662	0.005189	0.999907	-0.007820	0.001862	0.010938	
18763	    0	10.802070	-1.750104	-0.829677	-1.056511	0.170140	2.421641	0.108215	-0.016235	-0.008301	0.999912	-0.005282	0.000851	0.012108	
18764	    0	10.645326	0.549578	-2.348061	-0.524155	-0.037194	2.625735	0.106374	0.006831	-0.023478	0.999910	-0.002621	-0.000186	0.013128	
18765	    0	11.221340	1.482354	-2.467181	-0.340855	-0.072482	2.812289	0.112000	0.016357	-0.024658	0.999899	-0.001704	-0.000362	0.014061	
18766	    0	12.628476	1.236070	-1.625215	-0.566502	-0.123600	2.818014	0.126104	0.014092	-0.016212	0.999896	-0.002832	-0.000618	0.014090	
18767	    0	14.381605	1.959761	-1.265600	-0.627156	-0.291261	2.681818	0.143555	0.021484	-0.012512	0.999904	-0.003136	-0.001456	0.013409	
18768	    0	16.471636	2.652694	-1.733612	-0.908308	-0.550669	2.546010	0.164409	0.028543	-0.017010	0.999905	-0.004541	-0.002753	0.012730	
18769	    0	18.348115	5.001064	-3.296887	-0.797867	-0.701161	2.383490	0.182983	0.052063	-0.032532	0.999914	-0.003989	-0.003506	0.011917	
18770	    0	18.166367	4.654292	-4.260700	-0.437938	-0.714510	2.273424	0.181271	0.048512	-0.042064	0.999927	-0.002190	-0.003572	0.011367	
18771	    0	16.792884	3.486516	-4.122536	-0.143245	-0.644698	2.201129	0.167664	0.036682	-0.040710	0.999933	-0.000716	-0.003223	0.011005	
18772	    0	15.313657	3.135488	-2.730193	0.017166	-0.634970	2.140471	0.152875	0.032994	-0.026814	0.999937	0.000086	-0.003175	0.010702	
18773	    0	13.985308	3.495466	-1.540349	0.167087	-0.688758	2.106519	0.139526	0.036438	-0.014893	0.999938	0.000835	-0.003444	0.010532	
18774	    0	12.889229	3.785000	-1.113440	0.605787	-0.751893	2.070090	0.128531	0.039214	-0.010533	0.999934	0.003029	-0.003759	0.010350	
18775	    0	12.009494	3.867825	-1.451851	1.234468	-0.801680	2.024131	0.119751	0.039978	-0.013794	0.999921	0.006172	-0.004008	0.010120	
18776	    0	11.302083	3.907040	-1.891475	1.811087	-0.842695	1.987332	0.112701	0.040358	-0.018078	0.999900	0.009055	-0.004213	0.009936	
18777	    0	10.701350	4.216754	-2.021583	2.129634	-0.881991	1.909709	0.106689	0.043396	-0.019287	0.999887	0.010648	-0.004410	0.009548	
18778	    0	9.926089	4.854165	-2.005019	2.245799	-0.920141	1.849628	0.098894	0.049675	-0.019041	0.999883	0.011229	-0.004601	0.009248	
18779	    0	9.291845	5.277988	-2.020367	2.312560	-0.906980	1.786111	0.092529	0.053833	-0.019165	0.999883	0.011562	-0.004535	0.008930	
18780	    0	8.768549	5.578977	-1.990061	2.380463	-0.872646	1.678913	0.087296	0.056752	-0.018847	0.999884	0.011902	-0.004363	0.008394	
18781	    0	8.124332	5.691407	-2.086972	2.419372	-0.833734	1.585448	0.080872	0.057800	-0.019836	0.999887	0.012096	-0.004169	0.007927	
18782	    0	7.685359	5.682454	-2.163980	2.262192	-0.847654	1.516394	0.076508	0.057643	-0.020666	0.999898	0.011311	-0.004238	0.007582	
18783	    0	7.256234	6.509249	-2.633498	1.888326	-0.898576	1.442757	0.072205	0.065857	-0.025391	0.999919	0.009441	-0.004493	0.007214	
18784	    0	7.408949	5.904574	-0.891363	1.741449	-0.847454	1.295691	0.073740	0.059597	-0.008083	0.999931	0.008707	-0.004237	0.006478	
18785	    0	6.969705	5.949543	-1.456616	1.181811	-0.853551	1.204699	0.069397	0.059998	-0.013916	0.999955	0.005909	-0.004268	0.006023	
18786	    0	6.550670	6.372981	-0.178018	1.030934	-0.785646	1.089681	0.065164	0.064093	-0.001194	0.999964	0.005155	-0.003928	0.005448	
18787	    0	6.191134	5.959650	0.644425	1.016437	-0.680549	1.016246	0.061584	0.059875	0.006958	0.999968	0.005082	-0.003403	0.005081	
18788	    0	6.188201	5.334592	1.097674	1.001939	-0.587469	0.924310	0.061602	0.053575	0.011426	0.999972	0.005010	-0.002937	0.004622	
18789	    0	5.918899	4.789283	0.975434	0.892074	-0.553135	0.838477	0.058960	0.048096	0.010132	0.999977	0.004460	-0.002766	0.004192	
18790	    0	5.609182	3.926639	0.120190	0.421717	-0.673107	0.719646	0.055945	0.039465	0.001473	0.999985	0.002109	-0.003366	0.003598	
18791	    0	5.703663	3.316520	-0.082728	0.070954	-0.720027	0.560762	0.056946	0.033325	-0.000610	0.999990	0.000355	-0.003600	0.002804	
18792	    0	5.861386	2.858927	-0.262229	-0.090409	-0.609781	0.459672	0.058556	0.028723	-0.002457	0.999992	-0.000452	-0.003049	0.002298	
18793	    0	5.988196	2.796688	0.687922	-0.070763	-0.500489	0.357056	0.059814	0.028076	0.007019	0.999994	-0.000354	-0.002502	0.001785	
18794	    0	6.342740	2.664558	0.825536	-0.272751	-0.471879	0.277329	0.063371	0.026745	0.008368	0.999995	-0.001364	-0.002359	0.001387	
18795	    0	6.601527	2.347439	0.505073	-0.655176	-0.464631	0.207520	0.065979	0.023560	0.005127	0.999990	-0.003276	-0.002323	0.001038	
18796	    0	6.860216	1.583791	0.213817	-1.026541	-0.496104	0.130463	0.068586	0.015894	0.002227	0.999983	-0.005133	-0.002481	0.000652	
18797	    0	7.183385	0.378341	-0.183976	-1.478402	-0.611884	0.037384	0.071838	0.003784	-0.001648	0.999968	-0.007392	-0.003059	0.000187	
18798	    0	7.585207	-0.731031	-1.411791	-2.032701	-0.743308	-0.019265	0.075903	-0.007459	-0.013761	0.999941	-0.010163	-0.003716	-0.000096	
18799	    0	8.200032	-1.918165	-2.321935	-2.316152	-0.855277	-0.058748	0.082092	-0.019470	-0.022644	0.999924	-0.011580	-0.004276	-0.000294	
18800	    0	9.127865	-4.189516	-4.319927	-2.352969	-0.998143	-0.109866	0.091468	-0.042446	-0.042246	0.999918	-0.011765	-0.004991	-0.000549	
18801	    0	9.292931	-6.582386	-7.674724	-2.470475	-1.174773	-0.156407	0.093323	-0.066833	-0.075378	0.999906	-0.012352	-0.005874	-0.000782	
18802	    0	9.740799	-8.380158	-6.717908	-1.768143	-1.005190	-0.231747	0.097644	-0.084501	-0.065944	0.999948	-0.008841	-0.005026	-0.001159	
18803	    0	11.231692	-9.981118	-3.533483	-0.559808	-0.580599	-0.227357	0.112305	-0.100037	-0.034729	0.999990	-0.002799	-0.002903	-0.001137	
18804	    0	12.682498	-10.709988	-3.144786	0.029755	-0.344658	-0.080490	0.126836	-0.107146	-0.031245	0.999998	0.000149	-0.001723	-0.000402	
18805	    0	13.559003	-11.030670	-4.641541	0.236702	-0.414277	0.212860	0.135803	-0.110107	-0.046265	0.999996	0.001184	-0.002071	0.001064	
18806	    0	13.741037	-10.738643	-7.036281	0.698664	-0.416757	0.429346	0.137787	-0.106845	-0.070450	0.999989	0.003493	-0.002084	0.002147	
18807	    0	12.512624	-8.507616	-7.526246	1.265726	-0.084496	0.492100	0.125366	-0.084290	-0.075745	0.999976	0.006329	-0.000422	0.002460	
18808	    0	11.189523	-5.390235	-5.536242	1.641294	0.263217	0.429349	0.111937	-0.053205	-0.055948	0.999963	0.008206	0.001316	0.002147	
18809	    0	10.609473	-3.231497	-3.029535	1.614590	0.391393	0.276187	0.106079	-0.031921	-0.030762	0.999964	0.008073	0.001957	0.001381	
18810	    0	10.269987	-3.014276	-3.120834	1.316653	0.129891	0.164033	0.102704	-0.029852	-0.031472	0.999977	0.006583	0.000649	0.000820	
18811	    0	11.037786	1.498029	-4.198575	2.169080	-0.131037	-0.096132	0.110413	0.015381	-0.041748	0.999940	0.010845	-0.000655	-0.000481	
18812	    0	13.185537	7.248130	-2.537138	3.773154	0.420024	-0.314732	0.131918	0.072739	-0.024278	0.999818	0.018865	0.002100	-0.001574	
18813	    0	13.837886	3.825533	7.262362	2.788644	0.650238	-0.631737	0.138733	0.036804	0.072693	0.999892	0.013943	0.003251	-0.003159	
18814	    0	14.473650	-1.664727	3.121213	1.493088	-0.031662	-0.470929	0.144691	-0.017220	0.031108	0.999969	0.007465	-0.000158	-0.002355	
18815	    0	13.187029	0.527742	-3.238204	1.233682	-0.094414	-0.437930	0.131897	0.005188	-0.032288	0.999978	0.006168	-0.000472	-0.002190	
18816	    0	11.955751	6.791223	-0.345311	1.446358	0.399022	-0.613601	0.119759	0.067569	-0.003202	0.999967	0.007232	0.001995	-0.003068	
18817	    0	10.271769	12.696571	1.072144	0.997932	0.357249	-0.746923	0.103210	0.126526	0.011169	0.999978	0.004990	0.001786	-0.003735	
18818	    0	9.181586	13.079608	-1.587306	0.808531	0.323298	-0.938803	0.092403	0.130426	-0.015494	0.999979	0.004043	0.001616	-0.004694	
18819	    0	8.292366	12.347771	-3.615034	0.474742	0.220491	-1.092536	0.083557	0.123108	-0.035950	0.999981	0.002374	0.001102	-0.005463	
18820	    0	8.528739	10.967375	-4.014748	0.049401	0.143815	-1.238640	0.085936	0.109153	-0.040182	0.999980	0.000247	0.000719	-0.006193	
18821	    0	9.831093	8.182870	-3.562972	-0.290492	0.161745	-1.463332	0.098877	0.081055	-0.035828	0.999971	-0.001452	0.000809	-0.007317	
18822	    0	10.793407	6.823035	-2.734853	-0.549705	0.206378	-1.601811	0.108447	0.067287	-0.027646	0.999963	-0.002748	0.001032	-0.008009	
18823	    0	11.385285	6.081193	-2.116651	-0.600441	0.240520	-1.635000	0.114319	0.059814	-0.021484	0.999961	-0.003002	0.001203	-0.008175	
18824	    0	11.579057	4.610861	-1.717465	-0.636681	0.243953	-1.641295	0.116142	0.045101	-0.017461	0.999960	-0.003183	0.001220	-0.008206	
18825	    0	11.331548	3.603335	-1.694403	-0.615700	0.280193	-1.667808	0.113586	0.035034	-0.017212	0.999959	-0.003078	0.001401	-0.008339	
18826	    0	11.049413	3.318977	-1.904570	-0.658998	0.327115	-1.703859	0.110740	0.032184	-0.019334	0.999956	-0.003295	0.001636	-0.008519	
18827	    0	10.834263	3.166940	-1.885120	-0.820173	0.344282	-1.754026	0.108582	0.030640	-0.019165	0.999951	-0.004101	0.001721	-0.008770	
18828	    0	10.610599	2.981186	-1.921357	-0.958460	0.365836	-1.795610	0.106332	0.028765	-0.019547	0.999946	-0.004792	0.001829	-0.008978	
18829	    0	10.407498	3.007720	-2.194117	-1.011677	0.361068	-1.867712	0.104309	0.028992	-0.022278	0.999942	-0.005058	0.001805	-0.009338	
18830	    0	10.177481	2.729062	-2.627894	-1.133752	0.334556	-1.910441	0.101984	0.026167	-0.026600	0.999936	-0.005669	0.001673	-0.009552	
18831	    0	10.072019	2.277432	-2.900737	-1.264792	0.298316	-1.950118	0.100891	0.021606	-0.029297	0.999931	-0.006324	0.001492	-0.009750	
18832	    0	9.886082	1.544876	-3.195748	-1.402127	0.268943	-1.982166	0.098963	0.014243	-0.032193	0.999925	-0.007010	0.001345	-0.009911	
18833	    0	9.374879	0.475223	-2.938931	-1.457061	0.261695	-1.997427	0.093750	0.003601	-0.029541	0.999922	-0.007285	0.001308	-0.009987	
18834	    0	9.028453	-0.545021	-2.714819	-1.444662	0.257499	-1.961948	0.090189	-0.006532	-0.027220	0.999925	-0.007223	0.001287	-0.009809	
18835	    0	9.091831	-1.225998	-2.443859	-1.425778	0.283820	-1.918839	0.090759	-0.013306	-0.024475	0.999928	-0.007129	0.001419	-0.009594	
18836	    0	9.548063	-1.934046	-2.188637	-1.437412	0.303085	-1.864859	0.095261	-0.020387	-0.021887	0.999929	-0.007187	0.001515	-0.009324	
18837	    0	10.105492	-2.844404	-1.990425	-1.434930	0.280005	-1.771584	0.100769	-0.029480	-0.019836	0.999933	-0.007174	0.001400	-0.008858	
18838	    0	10.466395	-3.226704	-2.011845	-1.254296	0.242619	-1.682694	0.104362	-0.033272	-0.020039	0.999944	-0.006271	0.001213	-0.008413	
18839	    0	10.507792	-3.035325	-2.192327	-0.929846	0.252537	-1.631952	0.104797	-0.031311	-0.021912	0.999954	-0.004649	0.001263	-0.008160	
18840	    0	10.220293	-2.953785	-1.814769	-0.593383	0.324253	-1.581021	0.101935	-0.030398	-0.018224	0.999963	-0.002967	0.001621	-0.007905	
18841	    0	10.032844	-2.601700	-1.565008	-0.292972	0.393109	-1.506058	0.100098	-0.026794	-0.015808	0.999969	-0.001465	0.001966	-0.007530	
18842	    0	10.048521	-1.741585	-1.476529	-0.079919	0.446515	-1.474395	0.100320	-0.018162	-0.014982	0.999969	-0.000400	0.002233	-0.007372	
18843	    0	10.063043	-1.025643	-1.272418	0.013733	0.426678	-1.453414	0.100525	-0.010986	-0.012939	0.999970	0.000069	0.002133	-0.007267	
18844	    0	10.067895	-0.256565	-1.151803	0.083352	0.392536	-1.470199	0.100634	-0.003301	-0.011717	0.999970	0.000417	0.001963	-0.007351	
18845	    0	10.007287	0.703755	-1.119955	0.203898	0.440984	-1.523606	0.100098	0.006287	-0.011414	0.999968	0.001019	0.002205	-0.007618	
18846	    0	10.002542	1.570461	-1.125102	0.325207	0.526625	-1.585407	0.100116	0.014930	-0.011490	0.999964	0.001626	0.002633	-0.007927	
18847	    0	10.095262	1.978485	-1.175827	0.347333	0.592049	-1.630423	0.101074	0.018982	-0.012024	0.999960	0.001737	0.002960	-0.008152	
18848	    0	10.330721	2.086021	-0.927994	0.192835	0.628670	-1.632712	0.103443	0.020025	-0.009585	0.999961	0.000964	0.003143	-0.008163	
18849	    0	10.482441	2.355748	-0.911582	-0.012970	0.654038	-1.623556	0.104980	0.022705	-0.009460	0.999961	-0.000065	0.003270	-0.008118	
18850	    0	10.508863	1.842306	-0.928119	-0.212100	0.616844	-1.584072	0.105201	0.017580	-0.009624	0.999963	-0.001060	0.003084	-0.007920	
18851	    0	10.561973	0.806424	-0.816901	-0.420957	0.566107	-1.483171	0.105652	0.007263	-0.008484	0.999966	-0.002105	0.002831	-0.007416	
18852	    0	10.586063	-0.359150	-0.496405	-0.566679	0.508123	-1.365676	0.105820	-0.004329	-0.005221	0.999969	-0.002833	0.002541	-0.006828	
18853	    0	10.553262	-0.817693	-0.468952	-0.631529	0.418095	-1.247417	0.105469	-0.008850	-0.004883	0.999973	-0.003158	0.002090	-0.006237	
18854	    0	10.468856	-1.173417	-0.432542	-0.685888	0.350192	-1.128205	0.104612	-0.012340	-0.004467	0.999976	-0.003429	0.001751	-0.005641	
18855	    0	10.359844	-1.558899	-0.254040	-0.710301	0.271799	-0.994880	0.103516	-0.016113	-0.002625	0.999980	-0.003551	0.001359	-0.004974	
18856	    0	10.326655	-1.540509	-0.237260	-0.765233	0.170327	-0.870328	0.103196	-0.015863	-0.002400	0.999983	-0.003826	0.000852	-0.004352	
18857	    0	9.979754	-1.694776	-0.203973	-0.863462	0.097657	-0.756840	0.099731	-0.017334	-0.002014	0.999983	-0.004317	0.000488	-0.003784	
18858	    0	9.485348	-2.230437	-0.454234	-1.015478	0.025940	-0.622372	0.094783	-0.022622	-0.004440	0.999982	-0.005077	0.000130	-0.003112	
18859	    0	8.984891	-2.897546	-0.933380	-1.100928	-0.040245	-0.466922	0.089783	-0.029236	-0.009155	0.999982	-0.005505	-0.000201	-0.002335	
18860	    0	8.688132	-3.539800	-1.237677	-1.082426	-0.082016	-0.305559	0.086832	-0.035597	-0.012149	0.999984	-0.005412	-0.000410	-0.001528	
18861	    0	8.662839	-3.656532	-1.349942	-0.936702	-0.051117	-0.125123	0.086609	-0.036682	-0.013306	0.999989	-0.004683	-0.000256	-0.000626	
18862	    0	8.962359	-3.825268	-1.476088	-0.763132	0.028038	0.094795	0.089640	-0.038266	-0.014627	0.999992	-0.003816	0.000140	0.000474	
18863	    0	9.308945	-3.764219	-1.524429	-0.582887	0.135231	0.321961	0.093140	-0.037537	-0.015198	0.999993	-0.002914	0.000676	0.001610	
18864	    0	9.300392	-3.840572	-1.474693	-0.506021	0.203324	0.568582	0.093098	-0.038178	-0.014745	0.999991	-0.002530	0.001017	0.002843	
18865	    0	8.964102	-3.720347	-1.137087	-0.584223	0.199891	0.827793	0.089783	-0.036865	-0.011353	0.999987	-0.002921	0.000999	0.004139	
18866	    0	8.445454	-4.128205	-0.029853	-0.916299	0.186540	1.137172	0.084687	-0.040802	-0.000190	0.999972	-0.004581	0.000933	0.005686	
18867	    0	8.424067	-4.840624	1.069076	-1.295301	0.180057	1.435875	0.084595	-0.047729	0.010925	0.999952	-0.006476	0.000900	0.007179	
18868	    0	8.920719	-4.766539	2.052796	-1.667063	0.254256	1.702349	0.089634	-0.046731	0.020806	0.999928	-0.008335	0.001271	0.008512	
18869	    0	9.834223	-4.205012	1.042189	-1.509705	0.231177	1.936389	0.098755	-0.041016	0.010620	0.999924	-0.007548	0.001156	0.009682	
18870	    0	10.948300	-2.432660	-0.000592	-1.128988	0.153164	2.186640	0.109740	-0.023128	0.000043	0.999924	-0.005645	0.000766	0.010933	
18871	    0	11.169608	0.431346	-1.689105	-0.523199	0.003815	2.410950	0.111633	0.005615	-0.016907	0.999924	-0.002616	0.000019	0.012054	
18872	    0	11.433830	1.654891	-2.369607	-0.305948	-0.042154	2.619438	0.114114	0.018008	-0.023699	0.999912	-0.001530	-0.000211	0.013097	
18873	    0	12.538810	1.435532	-1.547663	-0.588054	-0.030519	2.684868	0.125183	0.015991	-0.015503	0.999905	-0.002940	-0.000153	0.013424	
18874	    0	14.203567	1.309405	-1.157905	-0.759338	-0.214202	2.578623	0.141864	0.014880	-0.011481	0.999908	-0.003797	-0.001071	0.012893	
18875	    0	16.780159	1.824235	-1.498364	-1.025421	-0.519387	2.428509	0.167603	0.020203	-0.014648	0.999909	-0.005127	-0.002597	0.012142	
18876	    0	19.660424	5.138231	-2.801229	-0.759526	-0.681513	2.280867	0.196096	0.053515	-0.027544	0.999922	-0.003798	-0.003407	0.011404	
18877	    0	19.895389	4.992144	-3.984383	-0.342567	-0.752084	2.162219	0.198547	0.052002	-0.039185	0.999932	-0.001713	-0.003760	0.010811	
18878	    0	18.620631	3.903244	-3.628868	-0.205998	-0.706497	2.120825	0.185905	0.040968	-0.035673	0.999936	-0.001030	-0.003532	0.010604	
18879	    0	17.181608	3.939417	-1.950736	-0.197415	-0.659193	2.125594	0.171448	0.041199	-0.018982	0.999937	-0.000987	-0.003296	0.010628	
18880	    0	15.953392	3.995471	-0.884005	0.019074	-0.691428	2.095265	0.159133	0.041624	-0.008286	0.999939	0.000095	-0.003457	0.010476	
18881	    0	14.594430	3.829665	-0.681860	0.639357	-0.725380	2.028699	0.145569	0.039795	-0.006165	0.999936	0.003197	-0.003627	0.010143	
18882	    0	13.313584	3.646622	-1.064986	1.486628	-0.741598	1.956421	0.132808	0.037842	-0.009879	0.999917	0.007433	-0.003708	0.009782	
18883	    0	11.997638	3.568890	-1.838407	2.180755	-0.781280	1.945570	0.119690	0.037048	-0.017517	0.999886	0.010903	-0.003906	0.009727	
18884	    0	10.926728	3.830654	-2.281851	2.513809	-0.809897	1.976294	0.108970	0.039663	-0.021884	0.999864	0.012568	-0.004049	0.009881	
18885	    0	10.029072	4.648670	-2.117505	2.579619	-0.845949	1.956268	0.099915	0.047729	-0.020142	0.999860	0.012897	-0.004230	0.009781	
18886	    0	9.451772	5.319492	-1.985502	2.587438	-0.830689	1.934332	0.094075	0.054354	-0.018765	0.999861	0.012937	-0.004153	0.009671	
18887	    0	9.029957	5.582335	-1.817745	2.602695	-0.782048	1.854026	0.089844	0.056885	-0.017090	0.999865	0.013013	-0.003910	0.009270	
18888	    0	8.441203	5.734738	-2.010676	2.574841	-0.751146	1.784593	0.083967	0.058348	-0.019044	0.999869	0.012874	-0.003756	0.008923	
18889	    0	7.823958	5.904003	-2.528375	2.334873	-0.756864	1.718967	0.077820	0.059998	-0.024292	0.999887	0.011674	-0.003784	0.008595	
18890	    0	7.324769	7.164325	-2.410645	1.872689	-0.815224	1.646089	0.072749	0.072463	-0.023133	0.999913	0.009363	-0.004076	0.008230	
18891	    0	7.414006	6.015753	-1.085675	1.680222	-0.749987	1.480137	0.073730	0.060791	-0.010071	0.999929	0.008401	-0.003750	0.007401	
18892	    0	6.964053	6.199881	-1.933964	1.054589	-0.808347	1.392958	0.069283	0.062582	-0.018730	0.999953	0.005273	-0.004042	0.006965	
18893	    0	6.283573	6.652326	-0.826360	0.814257	-0.767526	1.278702	0.062439	0.066956	-0.007751	0.999964	0.004071	-0.003838	0.006393	
18894	    0	5.838791	6.192324	0.122097	0.699051	-0.803575	1.205267	0.058007	0.062268	0.001672	0.999968	0.003495	-0.004018	0.006026	
18895	    0	5.914874	5.103709	0.725488	0.797280	-0.784882	1.097881	0.058838	0.051331	0.007690	0.999969	0.003986	-0.003924	0.005489	
18896	    0	5.845237	4.251230	0.227911	0.872429	-0.735671	0.969133	0.058236	0.042784	0.002680	0.999971	0.004362	-0.003678	0.004846	
18897	    0	5.538918	4.015591	-0.520959	0.611309	-0.736242	0.846869	0.055237	0.040405	-0.004883	0.999979	0.003057	-0.003681	0.004234	
18898	    0	5.368589	3.849269	-0.644224	0.336839	-0.711444	0.716594	0.053570	0.038695	-0.006186	0.999986	0.001684	-0.003557	0.003583	
18899	    0	5.318658	3.530207	-0.504116	0.200845	-0.691989	0.581362	0.053101	0.035461	-0.004822	0.999989	0.001004	-0.003460	0.002907	
18900	    0	5.588969	2.788586	0.544476	0.269700	-0.639536	0.462724	0.055807	0.028008	0.005661	0.999990	0.001348	-0.003198	0.002314	
18901	    0	6.146886	2.106172	0.797374	0.119210	-0.626375	0.398255	0.061401	0.021179	0.008179	0.999992	0.000596	-0.003132	0.001991	
18902	    0	6.569652	2.067875	0.910449	-0.233079	-0.574113	0.358773	0.065633	0.020807	0.009269	0.999993	-0.001165	-0.002871	0.001794	
18903	    0	6.969877	1.456154	1.261097	-0.517274	-0.526239	0.330354	0.069641	0.014709	0.012756	0.999991	-0.002586	-0.002631	0.001652	
18904	    0	7.437755	0.463288	0.915216	-0.852398	-0.555041	0.263215	0.074346	0.004770	0.009338	0.999986	-0.004262	-0.002775	0.001316	
18905	    0	7.793322	0.276106	-0.382045	-1.382460	-0.612456	0.184633	0.077942	0.002808	-0.003601	0.999970	-0.006912	-0.003062	0.000923	
18906	    0	7.965326	0.506906	-1.424733	-1.766231	-0.653086	0.106050	0.079697	0.004987	-0.014031	0.999955	-0.008831	-0.003265	0.000530	
18907	    0	8.303823	-0.586360	-2.610705	-1.915774	-0.704015	0.019074	0.083130	-0.006104	-0.025757	0.999948	-0.009579	-0.003520	0.000095	
18908	    0	8.849835	-3.482820	-4.612319	-1.993217	-0.754371	-0.020981	0.088667	-0.035293	-0.045439	0.999943	-0.009966	-0.003772	-0.000105	
18909	    0	9.080695	-6.787260	-6.624133	-1.993409	-0.823991	-0.036622	0.091064	-0.068542	-0.065186	0.999941	-0.009967	-0.004120	-0.000183	
18910	    0	9.339115	-8.485880	-6.771667	-1.269161	-0.763328	-0.094796	0.093607	-0.085329	-0.066819	0.999972	-0.006346	-0.003817	-0.000474	
18911	    0	10.567676	-10.207978	-4.022431	-0.331879	-0.607110	-0.166321	0.105713	-0.102234	-0.039734	0.999993	-0.001659	-0.003036	-0.000832	
18912	    0	12.049980	-10.930973	-2.051809	0.287819	-0.485612	-0.120735	0.120483	-0.109353	-0.020383	0.999995	0.001439	-0.002428	-0.000604	
18913	    0	13.255826	-10.695790	-3.460056	0.507356	-0.491143	0.088501	0.132690	-0.106812	-0.034546	0.999993	0.002537	-0.002456	0.000443	
18914	    0	13.224965	-9.158120	-6.333539	0.719836	-0.454332	0.326539	0.132543	-0.091137	-0.063363	0.999990	0.003599	-0.002272	0.001633	
18915	    0	11.788746	-6.365684	-7.432365	1.153762	-0.071717	0.404360	0.118042	-0.062988	-0.074646	0.999981	0.005769	-0.000359	0.002022	
18916	    0	9.846151	-3.260001	-5.827945	1.590175	0.395970	0.351147	0.098402	-0.031961	-0.058730	0.999965	0.007951	0.001980	0.001756	
18917	    0	8.803206	-1.219081	-2.983821	1.739718	0.614175	0.200656	0.087952	-0.011841	-0.030212	0.999956	0.008698	0.003071	0.001003	
18918	    0	8.674025	-0.325315	-0.791722	1.704430	0.599297	-0.016022	0.086716	-0.003191	-0.008204	0.999959	0.008522	0.002996	-0.000080	
18919	    0	9.355135	2.004838	-1.130836	2.417244	0.350961	-0.352487	0.093567	0.020020	-0.011230	0.999924	0.012086	0.001755	-0.001762	
18920	    0	10.501484	6.876914	-3.663284	3.487197	0.225270	-0.548391	0.105164	0.069107	-0.035548	0.999844	0.017435	0.001126	-0.002742	
18921	    0	10.643594	8.911519	1.603923	2.840530	0.275622	-0.933110	0.106873	0.088379	0.017151	0.999887	0.014202	0.001378	-0.004665	
18922	    0	12.265785	2.502210	3.875685	1.326957	-0.211527	-0.865183	0.122723	0.024233	0.039049	0.999968	0.006635	-0.001058	-0.004326	
18923	    0	13.631152	-1.002494	-0.944921	0.795178	-0.402071	-0.748448	0.136292	-0.010498	-0.009216	0.999983	0.003976	-0.002010	-0.003742	
18924	    0	14.437590	2.296856	-1.927674	1.280989	0.078774	-0.935374	0.144474	0.022416	-0.019189	0.999968	0.006405	0.000394	-0.004677	
18925	    0	15.101984	6.354003	1.743573	1.096355	0.348857	-1.006327	0.151367	0.062683	0.017517	0.999970	0.005482	0.001744	-0.005032	
18926	    0	15.424563	7.145076	2.650883	1.123440	0.434117	-1.016055	0.154663	0.070517	0.026571	0.999969	0.005617	0.002171	-0.005080	
18927	    0	13.213616	8.582162	0.238428	1.004228	0.284579	-1.004037	0.132568	0.085144	0.002625	0.999973	0.005021	0.001423	-0.005020	
18928	    0	10.790209	8.632870	-3.460731	0.540355	0.092316	-0.980192	0.108308	0.085892	-0.034425	0.999984	0.002702	0.000462	-0.004901	
18929	    0	9.152682	7.657349	-4.945280	0.053406	0.013161	-1.036839	0.091919	0.076111	-0.049438	0.999986	0.000267	0.000066	-0.005184	
18930	    0	8.097218	7.761432	-3.666986	-0.427249	-0.000381	-1.169022	0.081424	0.077061	-0.036835	0.999980	-0.002136	-0.000002	-0.005845	
18931	    0	8.411175	6.542817	-3.327138	-0.739104	-0.007629	-1.294720	0.084534	0.064758	-0.033508	0.999971	-0.003695	-0.000038	-0.006474	
18932	    0	9.558837	5.281014	-3.134217	-0.755700	0.022316	-1.404586	0.095952	0.052018	-0.031550	0.999968	-0.003778	0.000112	-0.007023	
18933	    0	10.764914	4.439298	-3.074312	-0.750551	0.069428	-1.520557	0.107971	0.043457	-0.030945	0.999964	-0.003753	0.000347	-0.007603	
18934	    0	11.795411	3.302369	-2.665802	-0.807582	0.098802	-1.599333	0.118199	0.031971	-0.026847	0.999959	-0.004038	0.000494	-0.007997	
18935	    0	11.983941	2.849130	-2.153631	-0.793468	0.136759	-1.667809	0.120056	0.027405	-0.021729	0.999957	-0.003967	0.000684	-0.008339	
18936	    0	11.561064	2.944517	-1.790334	-0.729953	0.191119	-1.715876	0.115840	0.028386	-0.018119	0.999955	-0.003650	0.000956	-0.008579	
18937	    0	10.991697	3.088059	-1.527315	-0.681315	0.230602	-1.783780	0.110168	0.029846	-0.015503	0.999953	-0.003407	0.001153	-0.008919	
18938	    0	10.271047	3.120023	-1.550327	-0.688564	0.251011	-1.822882	0.102969	0.030209	-0.015738	0.999951	-0.003443	0.001255	-0.009114	
18939	    0	9.739962	3.070599	-1.899280	-0.788893	0.235180	-1.857790	0.097656	0.029724	-0.019226	0.999948	-0.003944	0.001176	-0.009289	
18940	    0	9.456505	2.774476	-2.412201	-1.005573	0.202374	-1.867711	0.094793	0.026738	-0.024354	0.999943	-0.005028	0.001012	-0.009338	
18941	    0	9.387777	2.204494	-2.768776	-1.211382	0.161747	-1.873055	0.094055	0.020996	-0.027893	0.999937	-0.006057	0.000809	-0.009365	
18942	    0	9.281332	1.568219	-2.930342	-1.411279	0.132182	-1.854748	0.092933	0.014613	-0.029470	0.999931	-0.007056	0.000661	-0.009274	
18943	    0	9.546777	0.867135	-2.959734	-1.606599	0.131992	-1.810500	0.095520	0.007568	-0.029724	0.999926	-0.008033	0.000660	-0.009052	
18944	    0	10.019139	-0.203852	-2.564150	-1.750991	0.153164	-1.762817	0.100147	-0.003146	-0.025694	0.999922	-0.008755	0.000766	-0.008814	
18945	    0	10.110285	-1.511157	-2.417484	-1.808022	0.152592	-1.672406	0.100952	-0.016174	-0.024109	0.999924	-0.009040	0.000763	-0.008362	
18946	    0	10.092809	-2.245176	-2.422149	-1.697007	0.137523	-1.594961	0.100727	-0.023460	-0.024095	0.999931	-0.008485	0.000688	-0.007975	
18947	    0	9.683252	-2.415090	-2.560955	-1.419857	0.163463	-1.557951	0.096619	-0.025085	-0.025513	0.999944	-0.007099	0.000817	-0.007790	
18948	    0	9.299915	-2.688396	-2.253486	-1.101320	0.190928	-1.537155	0.092767	-0.027721	-0.022472	0.999954	-0.005507	0.000955	-0.007686	
18949	    0	9.324456	-2.552469	-2.144820	-0.759134	0.290111	-1.503772	0.093018	-0.026306	-0.021484	0.999963	-0.003796	0.001451	-0.007519	
18950	    0	9.664489	-2.347714	-1.854719	-0.525671	0.341800	-1.456848	0.096438	-0.024229	-0.018649	0.999969	-0.002628	0.001709	-0.007284	
18951	    0	10.051970	-2.047982	-1.728536	-0.434117	0.309184	-1.439681	0.100342	-0.021240	-0.017395	0.999970	-0.002171	0.001546	-0.007198	
18952	    0	10.434888	-1.425655	-1.604612	-0.371555	0.282100	-1.431479	0.104220	-0.015033	-0.016166	0.999971	-0.001858	0.001410	-0.007157	
18953	    0	10.470424	-0.794993	-1.612234	-0.207331	0.349430	-1.454939	0.104614	-0.008728	-0.016296	0.999971	-0.001037	0.001747	-0.007275	
18954	    0	10.415804	-0.451477	-1.553333	0.027657	0.440411	-1.493469	0.104086	-0.005290	-0.015763	0.999969	0.000138	0.002202	-0.007467	
18955	    0	10.364323	-0.349104	-1.407943	0.203707	0.501448	-1.536577	0.103577	-0.004272	-0.014343	0.999967	0.001019	0.002507	-0.007683	
18956	    0	10.332600	0.008574	-1.141790	0.238421	0.520521	-1.540583	0.103292	-0.000696	-0.011687	0.999966	0.001192	0.002603	-0.007703	
18957	    0	10.211625	0.284042	-0.878343	0.126840	0.492101	-1.509873	0.102112	0.002075	-0.009033	0.999968	0.000634	0.002460	-0.007549	
18958	    0	10.060154	0.597684	-0.856840	-0.023461	0.435452	-1.480689	0.100623	0.005231	-0.008788	0.999969	-0.000117	0.002177	-0.007403	
18959	    0	9.930895	0.981798	-0.591064	-0.234797	0.366214	-1.442732	0.099365	0.009094	-0.006104	0.999971	-0.001174	0.001831	-0.007214	
18960	    0	10.031131	1.234537	-0.448601	-0.524716	0.310519	-1.355756	0.100385	0.011653	-0.004673	0.999972	-0.002624	0.001553	-0.006779	
18961	    0	10.193470	0.993784	-0.411602	-0.810249	0.231364	-1.261914	0.101990	0.009277	-0.004272	0.999970	-0.004051	0.001157	-0.006310	
18962	    0	10.384263	0.373223	-0.329196	-0.998507	0.181391	-1.167881	0.103859	0.003109	-0.003403	0.999969	-0.004992	0.000907	-0.005839	
18963	    0	10.169351	-0.078528	-0.427227	-1.100169	0.132943	-1.049815	0.101685	-0.001343	-0.004333	0.999970	-0.005501	0.000665	-0.005249	
18964	    0	9.751394	-0.957850	-0.347111	-1.132403	0.105668	-0.922784	0.097466	-0.010048	-0.003467	0.999972	-0.005662	0.000528	-0.004614	
18965	    0	9.407037	-1.809389	-0.257087	-1.124391	0.074006	-0.820167	0.093994	-0.018494	-0.002502	0.999975	-0.005622	0.000370	-0.004101	
18966	    0	9.077336	-2.123998	-0.211009	-1.064880	0.034142	-0.714498	0.090696	-0.021575	-0.002011	0.999979	-0.005324	0.000171	-0.003572	
18967	    0	9.015085	-2.089059	-0.448750	-0.941472	0.013924	-0.594333	0.090088	-0.021179	-0.004395	0.999984	-0.004707	0.000070	-0.002972	
18968	    0	9.026684	-2.081496	-0.753119	-0.790790	0.010490	-0.483896	0.090216	-0.021063	-0.007453	0.999989	-0.003954	0.000052	-0.002419	
18969	    0	9.195875	-2.220823	-0.995041	-0.640871	0.019264	-0.347901	0.091919	-0.022400	-0.009888	0.999993	-0.003204	0.000096	-0.001740	
18970	    0	9.440804	-2.311570	-0.979987	-0.516892	0.076676	-0.189781	0.094382	-0.023231	-0.009776	0.999995	-0.002584	0.000383	-0.000949	
18971	    0	9.564956	-2.347641	-0.803249	-0.459099	0.163269	-0.007629	0.095642	-0.023499	-0.008057	0.999996	-0.002295	0.000816	-0.000038	
18972	    0	9.539856	-2.165100	-0.848483	-0.467873	0.241852	0.231171	0.095413	-0.021561	-0.008550	0.999995	-0.002339	0.001209	0.001156	
18973	    0	9.249031	-2.350830	-1.256275	-0.601770	0.306703	0.498964	0.092529	-0.023315	-0.012634	0.999990	-0.003009	0.001534	0.002495	
18974	    0	8.922553	-2.897391	-1.225362	-0.829511	0.344660	0.745015	0.089312	-0.028692	-0.012288	0.999983	-0.004148	0.001723	0.003725	
18975	    0	8.851990	-3.436029	-0.368326	-1.100932	0.375561	1.004038	0.088684	-0.033936	-0.003662	0.999970	-0.005505	0.001878	0.005020	
18976	    0	9.016967	-4.427224	0.938223	-1.426529	0.411231	1.295874	0.090473	-0.043619	0.009509	0.999951	-0.007133	0.002056	0.006479	
18977	    0	9.692703	-4.889252	1.721374	-1.608121	0.425730	1.603734	0.097351	-0.047974	0.017395	0.999933	-0.008040	0.002129	0.008018	
18978	    0	10.195752	-4.356422	0.978199	-1.699685	0.364123	1.877073	0.102378	-0.042521	0.009960	0.999918	-0.008498	0.001821	0.009385	
18979	    0	10.829535	-3.393214	-1.014109	-1.240571	0.137523	2.133233	0.108643	-0.032837	-0.010010	0.999923	-0.006203	0.000688	0.010666	
18980	    0	11.366857	-1.458799	-2.384701	-0.539793	-0.124934	2.364980	0.113846	-0.013307	-0.023739	0.999926	-0.002699	-0.000625	0.011825	
18981	    0	12.291259	0.539078	-3.206358	0.109866	-0.225646	2.621536	0.122864	0.007019	-0.031921	0.999913	0.000549	-0.001128	0.013107	
18982	    0	13.606856	0.985584	-2.145174	0.052072	-0.102046	2.758495	0.135926	0.011737	-0.021379	0.999905	0.000260	-0.000510	0.013792	
18983	    0	14.912312	1.836771	-1.134554	-0.106624	-0.168615	2.717674	0.148865	0.020386	-0.011230	0.999907	-0.000533	-0.000843	0.013588	
18984	    0	16.665906	2.581391	-1.250813	-0.337992	-0.412572	2.619631	0.166327	0.027973	-0.012211	0.999910	-0.001690	-0.002063	0.013098	
18985	    0	18.517584	4.409880	-2.550643	-0.437749	-0.629443	2.468941	0.184692	0.046326	-0.025024	0.999916	-0.002189	-0.003147	0.012344	
18986	    0	19.192836	5.123238	-3.694988	-0.292022	-0.697153	2.282388	0.191455	0.053366	-0.036359	0.999928	-0.001460	-0.003486	0.011412	
18987	    0	17.978676	4.608468	-3.238560	-0.251012	-0.651373	2.149246	0.179382	0.047974	-0.031860	0.999936	-0.001255	-0.003257	0.010746	
18988	    0	16.160643	4.137890	-2.118549	-0.287062	-0.663771	2.097554	0.161230	0.043041	-0.020711	0.999938	-0.001435	-0.003319	0.010488	
18989	    0	14.705621	3.905911	-0.879994	-0.214200	-0.738541	2.095838	0.146667	0.040588	-0.008301	0.999937	-0.001071	-0.003693	0.010479	
18990	    0	13.514470	4.022299	-0.372848	0.220494	-0.777833	2.072186	0.134731	0.041624	-0.003159	0.999938	0.001102	-0.003889	0.010361	
18991	    0	12.583287	3.683135	-0.943407	0.926993	-0.845929	2.028704	0.125488	0.038147	-0.008728	0.999928	0.004635	-0.004230	0.010143	
18992	    0	11.772161	3.521690	-1.861866	1.572275	-0.873973	1.986754	0.117442	0.036527	-0.017821	0.999909	0.007861	-0.004370	0.009933	
18993	    0	10.895823	4.033255	-2.217914	1.962350	-0.871117	1.989054	0.108643	0.041626	-0.021301	0.999892	0.009811	-0.004355	0.009945	
18994	    0	10.231887	4.738861	-2.333799	2.145469	-0.880466	1.984864	0.101940	0.048645	-0.022371	0.999883	0.010727	-0.004402	0.009924	
18995	    0	9.697197	5.220168	-2.402766	2.303599	-0.841556	1.934130	0.096558	0.053406	-0.023010	0.999878	0.011518	-0.004208	0.009670	
18996	    0	8.971236	5.476403	-2.421563	2.488051	-0.773844	1.833803	0.089294	0.055877	-0.023179	0.999872	0.012440	-0.003869	0.009169	
18997	    0	8.132109	5.699948	-2.850135	2.557479	-0.734550	1.700663	0.080933	0.058044	-0.027466	0.999875	0.012787	-0.003673	0.008503	
18998	    0	7.492169	5.766546	-3.239986	2.411740	-0.716045	1.554737	0.074582	0.058629	-0.031429	0.999890	0.012058	-0.003580	0.007773	
18999	    0	6.814162	6.270831	-3.908694	1.981409	-0.741407	1.498455	0.067810	0.063599	-0.038208	0.999915	0.009907	-0.003707	0.007492	
19000	    0	6.857961	6.323669	-1.974766	1.721994	-0.779170	1.376374	0.068216	0.063872	-0.018933	0.999931	0.008610	-0.003896	0.006882	
19001	    0	6.808585	5.642387	-2.279918	1.330589	-0.781835	1.278708	0.067810	0.057007	-0.022156	0.999949	0.006653	-0.003909	0.006393	
19002	    0	6.721052	6.336642	-1.272442	1.118102	-0.743876	1.136604	0.066895	0.063816	-0.012119	0.999961	0.005590	-0.003719	0.005683	
19003	    0	6.219044	6.793192	0.218993	1.249138	-0.620278	1.038374	0.061829	0.068237	0.002808	0.999962	0.006246	-0.003101	0.005192	
19004	    0	6.263125	5.939121	0.738712	1.299684	-0.599487	0.967801	0.062320	0.059643	0.007961	0.999962	0.006498	-0.002997	0.004839	
19005	    0	6.049582	5.299224	0.571624	1.236929	-0.598914	0.888071	0.060242	0.053223	0.006226	0.999966	0.006185	-0.002995	0.004440	
19006	    0	5.810515	4.437220	0.331600	1.055155	-0.646978	0.790412	0.057918	0.044582	0.003738	0.999972	0.005276	-0.003235	0.003952	
19007	    0	5.803452	3.471966	-0.082979	0.763707	-0.719266	0.656132	0.057922	0.034912	-0.000488	0.999980	0.003819	-0.003596	0.003281	
19008	    0	5.886358	3.238471	-0.346462	0.546649	-0.680354	0.537684	0.058787	0.032552	-0.003176	0.999987	0.002733	-0.003402	0.002688	
19009	    0	6.148571	3.221691	0.379401	0.402070	-0.551416	0.454713	0.061401	0.032349	0.004028	0.999991	0.002010	-0.002757	0.002274	
19010	    0	6.696170	2.771760	1.580941	0.251198	-0.459100	0.419045	0.066867	0.027838	0.015998	0.999994	0.001256	-0.002295	0.002095	
19011	    0	7.258864	2.104118	1.963322	-0.055504	-0.408173	0.365448	0.072510	0.021179	0.019775	0.999996	-0.000278	-0.002041	0.001827	
19012	    0	7.511106	1.616533	1.287126	-0.595094	-0.330926	0.307656	0.075065	0.016319	0.012947	0.999992	-0.002975	-0.001655	0.001538	
19013	    0	7.297576	0.849159	1.517232	-1.126678	-0.370028	0.245668	0.072937	0.008667	0.015259	0.999981	-0.005633	-0.001850	0.001228	
19014	    0	7.290390	-0.459952	0.645991	-1.748301	-0.549324	0.202182	0.072890	-0.004468	0.006700	0.999957	-0.008741	-0.002747	0.001011	
19015	    0	7.306263	-1.511840	-1.270360	-2.289446	-0.716417	0.171666	0.073120	-0.015198	-0.012268	0.999928	-0.011447	-0.003582	0.000858	
19016	    0	7.717771	-4.066297	-4.114045	-2.698038	-0.991474	0.124173	0.077404	-0.041162	-0.040204	0.999896	-0.013490	-0.004957	0.000621	
19017	    0	8.336256	-6.201845	-7.073239	-2.818982	-1.226855	0.033571	0.083801	-0.062988	-0.069336	0.999882	-0.014094	-0.006134	0.000168	
19018	    0	8.003822	-6.197550	-7.671617	-1.953357	-1.091980	-0.086595	0.080426	-0.062753	-0.075667	0.999937	-0.009767	-0.005460	-0.000433	
19019	    0	9.264319	-9.137326	-4.472281	-1.086244	-0.867469	-0.133515	0.092773	-0.091675	-0.043823	0.999975	-0.005431	-0.004337	-0.000668	
19020	    0	11.676783	-13.599363	-3.055236	-0.571062	-0.659754	0.015640	0.116878	-0.136070	-0.029778	0.999990	-0.002855	-0.003299	0.000078	
19021	    0	13.697728	-15.238095	-5.274341	-0.231743	-0.645448	0.320435	0.137390	-0.152222	-0.052124	0.999992	-0.001159	-0.003227	0.001602	
19022	    0	14.370855	-12.948406	-7.586582	0.295259	-0.583651	0.581934	0.144305	-0.128953	-0.075636	0.999990	0.001476	-0.002918	0.002910	
19023	    0	13.231482	-8.839531	-8.059783	1.139268	-0.157167	0.711065	0.132690	-0.087463	-0.080994	0.999977	0.005696	-0.000786	0.003555	
19024	    0	11.374253	-4.771247	-6.560715	1.954497	0.422676	0.692571	0.113766	-0.046673	-0.066307	0.999944	0.009772	0.002113	0.003463	
19025	    0	9.598586	-2.251560	-2.765125	2.293455	0.738735	0.588241	0.095947	-0.021912	-0.028259	0.999923	0.011467	0.003694	0.002941	
19026	    0	8.146035	-0.153514	-0.408583	2.263886	0.684182	0.409518	0.081449	-0.001320	-0.004380	0.999928	0.011319	0.003421	0.002048	
19027	    0	7.478653	2.141755	-0.162033	2.151533	0.528156	0.132754	0.074768	0.021484	-0.001587	0.999938	0.010757	0.002641	0.000664	
19028	    0	8.446405	4.260252	-1.962277	2.776999	0.157552	-0.272188	0.084507	0.042755	-0.019096	0.999902	0.013885	0.000788	-0.001361	
19029	    0	8.991666	9.338646	-3.123515	3.552437	0.065044	-0.517301	0.090149	0.093689	-0.029602	0.999839	0.017761	0.000325	-0.002586	
19030	    0	9.082615	13.200548	1.358284	2.177481	0.029374	-0.982117	0.091475	0.131399	0.015002	0.999928	0.010887	0.000147	-0.004910	
19031	    0	10.912794	7.197203	-0.924084	0.637249	-0.520328	-0.965888	0.109497	0.071472	-0.008728	0.999979	0.003186	-0.002602	-0.004829	
19032	    0	13.126650	0.760316	-3.100955	0.419428	-0.457385	-0.928311	0.131371	0.007058	-0.030694	0.999984	0.002097	-0.002287	-0.004642	
19033	    0	15.056465	1.362852	-0.609445	1.171888	0.113870	-1.124585	0.150635	0.012817	-0.006104	0.999967	0.005859	0.000569	-0.005623	
19034	    0	17.152977	3.743253	1.823083	1.118672	0.330929	-1.097882	0.171762	0.036388	0.018152	0.999968	0.005593	0.001655	-0.005489	
19035	    0	17.998424	4.229590	1.704797	1.221480	0.438886	-1.035321	0.180237	0.041260	0.016907	0.999965	0.006107	0.002194	-0.005177	
19036	    0	15.637455	6.869086	1.056600	1.075373	0.330547	-0.990877	0.156730	0.067858	0.010674	0.999971	0.005377	0.001653	-0.004954	
19037	    0	12.103128	7.981119	-1.706884	0.539592	0.086213	-0.943761	0.121399	0.079285	-0.016907	0.999985	0.002698	0.000431	-0.004719	
19038	    0	9.651922	6.564110	-3.747988	0.003052	0.038529	-0.980572	0.096832	0.065167	-0.037498	0.999988	0.000015	0.000193	-0.004903	
19039	    0	7.742122	6.362742	-3.454120	-0.551418	0.034332	-1.085670	0.077759	0.063110	-0.034729	0.999981	-0.002757	0.000172	-0.005428	
19040	    0	7.672586	5.228020	-3.353047	-0.823982	0.013924	-1.185809	0.077031	0.051685	-0.033750	0.999973	-0.004120	0.000070	-0.005929	
19041	    0	8.945365	3.464274	-3.554792	-0.746162	0.067330	-1.281750	0.089661	0.033936	-0.035706	0.999972	-0.003731	0.000337	-0.006409	
19042	    0	10.226381	2.344890	-3.418309	-0.667197	0.106813	-1.380934	0.102404	0.022628	-0.034314	0.999970	-0.003336	0.000534	-0.006905	
19043	    0	11.209856	1.427975	-3.035614	-0.686462	0.095368	-1.441971	0.112183	0.013367	-0.030457	0.999968	-0.003432	0.000477	-0.007210	
19044	    0	11.404003	0.745336	-2.608867	-0.723084	0.080491	-1.461999	0.114079	0.006525	-0.026159	0.999967	-0.003615	0.000402	-0.007310	
19045	    0	10.812245	0.630475	-2.196328	-0.698097	0.093270	-1.471727	0.108154	0.005432	-0.022034	0.999967	-0.003490	0.000466	-0.007359	
19046	    0	10.170158	0.994322	-1.776792	-0.674064	0.104524	-1.479547	0.101762	0.009130	-0.017853	0.999967	-0.003370	0.000523	-0.007398	
19047	    0	9.591823	1.353093	-1.448874	-0.682076	0.113107	-1.510637	0.096008	0.012756	-0.014587	0.999965	-0.003410	0.000566	-0.007553	
19048	    0	9.088951	1.766328	-1.305608	-0.692567	0.084687	-1.559086	0.091018	0.016909	-0.013154	0.999963	-0.003463	0.000423	-0.007795	
19049	    0	8.943356	2.171092	-1.546259	-0.753603	0.048066	-1.602194	0.089600	0.020935	-0.015564	0.999960	-0.003768	0.000240	-0.008011	
19050	    0	8.871129	2.332266	-2.013735	-0.848401	0.015259	-1.624702	0.088895	0.022515	-0.020241	0.999957	-0.004242	0.000076	-0.008123	
19051	    0	8.697526	2.286422	-2.400105	-0.945868	0.005341	-1.645685	0.087158	0.022034	-0.024109	0.999954	-0.004729	0.000027	-0.008228	
19052	    0	8.733703	2.123515	-2.569790	-1.109523	-0.000763	-1.665715	0.087509	0.020364	-0.025812	0.999949	-0.005548	-0.000004	-0.008328	
19053	    0	9.087283	1.642725	-2.448576	-1.290727	0.020600	-1.683839	0.091003	0.015503	-0.024597	0.999943	-0.006454	0.000103	-0.008419	
19054	    0	9.492796	0.839251	-2.191391	-1.420431	0.047875	-1.680217	0.094988	0.007439	-0.021992	0.999939	-0.007102	0.000239	-0.008401	
19055	    0	9.603778	-0.210000	-2.147375	-1.426725	0.062753	-1.663241	0.096008	-0.003052	-0.021484	0.999940	-0.007133	0.000314	-0.008316	
19056	    0	9.400773	-1.037351	-2.303152	-1.301599	0.094797	-1.645691	0.093906	-0.011296	-0.023005	0.999945	-0.006508	0.000474	-0.008228	
19057	    0	9.158013	-1.572175	-2.401494	-1.093882	0.133517	-1.636532	0.091431	-0.016602	-0.023987	0.999950	-0.005469	0.000668	-0.008183	
19058	    0	9.059340	-1.714298	-2.211652	-0.874151	0.179866	-1.671435	0.090425	-0.017996	-0.022120	0.999954	-0.004371	0.000899	-0.008357	
19059	    0	9.256123	-1.471055	-1.934732	-0.613412	0.235179	-1.717401	0.092407	-0.015564	-0.019409	0.999957	-0.003067	0.001176	-0.008587	
19060	    0	9.618356	-0.981310	-1.871840	-0.359540	0.267795	-1.750016	0.096067	-0.010688	-0.018828	0.999959	-0.001798	0.001339	-0.008750	
19061	    0	9.891869	-0.106165	-1.699584	-0.194552	0.316815	-1.769281	0.098877	-0.001953	-0.017151	0.999959	-0.000973	0.001584	-0.008846	
19062	    0	10.001272	0.947795	-1.382631	-0.139048	0.357633	-1.788546	0.100067	0.008574	-0.014011	0.999958	-0.000695	0.001788	-0.008943	
19063	    0	10.312359	2.107439	-1.797810	-0.073243	0.393110	-1.794459	0.103271	0.020142	-0.018188	0.999957	-0.000366	0.001966	-0.008972	
19064	    0	10.584770	2.063935	-1.629329	-0.066377	0.448806	-1.806095	0.105991	0.019677	-0.016538	0.999956	-0.000332	0.002244	-0.009030	
19065	    0	10.913437	1.681245	-1.187521	-0.087549	0.482948	-1.829556	0.109253	0.015808	-0.012146	0.999954	-0.000438	0.002415	-0.009148	
19066	    0	10.945762	1.823035	-0.685218	-0.162127	0.511940	-1.850538	0.109602	0.017211	-0.007147	0.999953	-0.000811	0.002560	-0.009253	
19067	    0	10.995464	1.956354	-0.733149	-0.322538	0.486000	-1.811246	0.110107	0.018555	-0.007629	0.999954	-0.001613	0.002430	-0.009056	
19068	    0	10.845284	1.503154	-0.693643	-0.547226	0.378423	-1.722933	0.108563	0.014077	-0.007181	0.999957	-0.002736	0.001892	-0.008615	
19069	    0	10.727242	0.546454	-0.775880	-0.830662	0.289921	-1.592277	0.107300	0.004578	-0.007935	0.999958	-0.004153	0.001450	-0.007961	
19070	    0	10.521411	-0.198240	-0.883695	-1.032270	0.225452	-1.405353	0.105186	-0.002768	-0.008943	0.999961	-0.005161	0.001127	-0.007027	
19071	    0	10.582441	-0.597924	-1.191360	-1.211563	0.167277	-1.252000	0.105774	-0.006714	-0.011963	0.999961	-0.006058	0.000836	-0.006260	
19072	    0	10.823082	-0.840178	-1.040603	-1.316469	0.164988	-1.124968	0.108172	-0.009079	-0.010437	0.999962	-0.006582	0.000825	-0.005625	
19073	    0	10.841351	-1.323971	-0.856263	-1.357286	0.138284	-1.028455	0.108337	-0.013855	-0.008545	0.999963	-0.006786	0.000691	-0.005142	
19074	    0	10.691273	-1.728423	-0.891002	-1.370064	0.078393	-0.902377	0.106830	-0.017827	-0.008831	0.999966	-0.006850	0.000392	-0.004512	
19075	    0	10.366886	-2.222614	-1.043524	-1.326574	0.056458	-0.791939	0.103577	-0.022705	-0.010315	0.999969	-0.006633	0.000282	-0.003960	
19076	    0	9.784364	-2.644105	-1.267213	-1.218233	0.011444	-0.648122	0.097756	-0.026834	-0.012515	0.999976	-0.006091	0.000057	-0.003241	
19077	    0	9.547604	-2.940962	-1.157609	-1.129921	0.010109	-0.523380	0.095398	-0.029724	-0.011414	0.999980	-0.005650	0.000051	-0.002617	
19078	    0	9.764674	-3.238190	-0.860011	-0.994496	0.085450	-0.358965	0.097585	-0.032599	-0.008480	0.999986	-0.004972	0.000427	-0.001795	
19079	    0	9.964914	-3.496723	-0.769804	-0.812342	0.148011	-0.194550	0.099609	-0.035095	-0.007629	0.999990	-0.004062	0.000740	-0.000973	
19080	    0	10.037565	-3.761619	-0.731956	-0.653268	0.206757	-0.018120	0.100365	-0.037649	-0.007300	0.999993	-0.003266	0.001034	-0.000091	
19081	    0	10.275020	-3.891284	-0.777681	-0.552941	0.278473	0.225830	0.102783	-0.038818	-0.007812	0.999994	-0.002765	0.001392	0.001129	
19082	    0	10.385907	-3.923972	-0.919296	-0.569345	0.352670	0.507356	0.103942	-0.039002	-0.009265	0.999990	-0.002847	0.001763	0.002537	
19083	    0	9.922884	-3.651422	-0.383334	-0.728420	0.412753	0.796513	0.099365	-0.036133	-0.003906	0.999983	-0.003642	0.002064	0.003983	
19084	    0	8.990245	-3.603114	0.273215	-0.968561	0.366787	1.085673	0.090101	-0.035529	0.002740	0.999971	-0.004843	0.001834	0.005428	
19085	    0	8.396409	-4.567525	0.859312	-1.212138	0.331121	1.374837	0.084290	-0.045044	0.008728	0.999956	-0.006061	0.001656	0.006874	
19086	    0	8.785651	-5.093878	1.715018	-1.420051	0.394257	1.677929	0.088313	-0.050076	0.017334	0.999937	-0.007100	0.001971	0.008389	
19087	    0	9.279940	-3.909566	1.362709	-1.565403	0.418865	1.939444	0.093201	-0.038086	0.013733	0.999920	-0.007827	0.002094	0.009697	
19088	    0	9.919249	-2.274743	-0.762991	-1.125746	0.312241	2.176340	0.099421	-0.021709	-0.007661	0.999924	-0.005629	0.001561	0.010881	
19089	    0	10.146031	-0.583323	-2.612375	-0.509656	0.144390	2.365170	0.101501	-0.004700	-0.026184	0.999927	-0.002548	0.000722	0.011826	
19090	    0	10.850500	0.465705	-4.073555	0.132564	-0.057031	2.552293	0.108445	0.006068	-0.040701	0.999918	0.000663	-0.000285	0.012761	
19091	    0	12.582988	0.675266	-3.714796	0.187117	-0.049593	2.697836	0.125732	0.008484	-0.037109	0.999908	0.000936	-0.000248	0.013489	
19092	    0	14.531775	0.807415	-3.054830	-0.051881	-0.083735	2.670940	0.145205	0.010006	-0.030490	0.999910	-0.000259	-0.000419	0.013354	
19093	    0	16.656265	1.620770	-2.971464	-0.284394	-0.312051	2.577283	0.166382	0.018311	-0.029480	0.999914	-0.001422	-0.001560	0.012886	
19094	    0	18.396218	3.919412	-3.579103	-0.446141	-0.568596	2.423351	0.183571	0.041341	-0.035359	0.999920	-0.002231	-0.002843	0.012116	
19095	    0	18.709839	5.289482	-4.569139	-0.211149	-0.754566	2.297267	0.186646	0.054993	-0.045044	0.999926	-0.001056	-0.003773	0.011486	
19096	    0	17.677383	4.484076	-4.607543	-0.083162	-0.768870	2.207043	0.176440	0.046770	-0.045416	0.999931	-0.000416	-0.003844	0.011035	
19097	    0	16.406412	4.261529	-3.088129	-0.102808	-0.695053	2.164506	0.163696	0.044373	-0.030334	0.999935	-0.000514	-0.003475	0.010822	
19098	    0	15.126335	4.649355	-1.636174	-0.127986	-0.668921	2.131125	0.150810	0.048092	-0.015887	0.999937	-0.000640	-0.003345	0.010655	
19099	    0	13.781479	4.812243	-0.811790	0.052072	-0.692000	2.088970	0.137329	0.049561	-0.007629	0.999939	0.000260	-0.003460	0.010445	
19100	    0	12.497304	4.440201	-0.671757	0.556194	-0.737205	2.027935	0.124537	0.045684	-0.006132	0.999937	0.002781	-0.003686	0.010139	
19101	    0	11.382640	3.897337	-0.957994	1.187163	-0.762005	1.995899	0.113464	0.040161	-0.008911	0.999925	0.005936	-0.003810	0.009979	
19102	    0	10.613674	3.675570	-1.083643	1.695494	-0.757050	1.960623	0.105808	0.037882	-0.010118	0.999908	0.008477	-0.003785	0.009803	
19103	    0	10.137473	4.055535	-0.990778	2.067640	-0.765065	1.925728	0.101013	0.041626	-0.009094	0.999892	0.010338	-0.003825	0.009628	
19104	    0	10.031146	4.520659	-0.855788	2.363489	-0.712995	1.841236	0.099917	0.046222	-0.007659	0.999881	0.011817	-0.003565	0.009206	
19105	    0	9.793457	4.866443	-0.923938	2.594103	-0.612475	1.731182	0.097534	0.049622	-0.008301	0.999873	0.012970	-0.003062	0.008656	
19106	    0	8.881657	5.319051	-1.213708	2.687949	-0.525306	1.612540	0.088413	0.054059	-0.011182	0.999873	0.013439	-0.002626	0.008062	
19107	    0	7.881272	5.732805	-1.633124	2.558423	-0.535604	1.467950	0.078430	0.058105	-0.015381	0.999887	0.012792	-0.002678	0.007339	
19108	    0	7.105220	6.072264	-2.182856	2.185695	-0.591295	1.385157	0.070691	0.061445	-0.020950	0.999911	0.010928	-0.002956	0.006926	
19109	    0	6.809417	6.339915	-2.761156	1.657139	-0.668921	1.364927	0.067749	0.064087	-0.026855	0.999936	0.008286	-0.003345	0.006824	
19110	    0	7.034034	6.585874	-1.499870	1.248951	-0.720226	1.259251	0.069976	0.066391	-0.014333	0.999953	0.006245	-0.003601	0.006296	
19111	    0	7.010495	5.557133	-1.210798	0.927936	-0.720986	1.156629	0.069824	0.056030	-0.011597	0.999966	0.004640	-0.003605	0.005783	
19112	    0	6.934382	5.581371	-0.848238	0.670630	-0.731475	1.043138	0.069081	0.056202	-0.008041	0.999973	0.003353	-0.003657	0.005216	
19113	    0	6.565709	5.778549	0.049828	0.688940	-0.664335	0.985726	0.065369	0.058105	0.000916	0.999976	0.003445	-0.003322	0.004929	
19114	    0	6.404175	5.178883	0.395529	0.692945	-0.650220	0.955017	0.063780	0.052079	0.004343	0.999977	0.003465	-0.003251	0.004775	
19115	    0	6.197002	4.630462	0.032864	0.567631	-0.681881	0.862890	0.061768	0.046570	0.000671	0.999980	0.002838	-0.003409	0.004314	
19116	    0	6.069883	3.958117	-0.353660	0.252725	-0.732425	0.725940	0.060567	0.039805	-0.003264	0.999986	0.001264	-0.003662	0.003630	
19117	    0	5.992503	3.466401	0.040664	-0.027275	-0.696566	0.624850	0.059814	0.034851	0.000610	0.999989	-0.000136	-0.003483	0.003124	
19118	    0	6.132923	3.167403	0.660338	-0.094033	-0.639917	0.538828	0.061222	0.031842	0.006784	0.999990	-0.000470	-0.003200	0.002694	
19119	    0	6.497587	2.693927	1.112578	-0.147820	-0.572206	0.468446	0.064880	0.027100	0.011292	0.999992	-0.000739	-0.002861	0.002342	
19120	    0	6.862673	2.421179	1.196591	-0.357057	-0.504495	0.427056	0.068544	0.024380	0.012095	0.999992	-0.001785	-0.002522	0.002135	
19121	    0	7.072898	1.760345	0.944150	-0.630953	-0.384332	0.361634	0.070679	0.017761	0.009521	0.999991	-0.003155	-0.001922	0.001808	
19122	    0	6.970164	0.772042	0.367218	-0.970845	-0.328828	0.294496	0.069684	0.007841	0.003749	0.999986	-0.004854	-0.001644	0.001472	
19123	    0	7.036410	-0.365616	-0.325981	-1.389134	-0.346378	0.218966	0.070374	-0.003601	-0.003113	0.999973	-0.006946	-0.001732	0.001095	
19124	    0	7.300429	-1.558416	-1.189693	-1.829175	-0.478179	0.172999	0.073046	-0.015628	-0.011580	0.999954	-0.009146	-0.002391	0.000865	
19125	    0	7.774019	-2.980335	-3.145295	-2.236037	-0.757617	0.154117	0.077881	-0.030090	-0.030823	0.999929	-0.011180	-0.003788	0.000771	
19126	    0	8.455052	-5.589935	-6.282520	-2.679918	-1.059760	0.076869	0.084901	-0.056698	-0.061620	0.999896	-0.013399	-0.005299	0.000384	
19127	    0	8.518906	-7.094384	-6.266691	-2.261412	-1.072530	-0.028992	0.085510	-0.071655	-0.061401	0.999921	-0.011307	-0.005363	-0.000145	
19128	    0	9.663099	-9.759687	-3.744906	-1.339546	-0.929652	-0.079728	0.096763	-0.097881	-0.036345	0.999967	-0.006698	-0.004648	-0.000399	
19129	    0	11.579375	-12.272946	-2.424558	-0.698856	-0.864987	0.016022	0.115906	-0.122803	-0.023315	0.999984	-0.003494	-0.004325	0.000080	
19130	    0	13.120421	-12.886933	-4.762900	-0.268746	-0.841716	0.308610	0.131601	-0.128730	-0.046903	0.999989	-0.001344	-0.004209	0.001543	
19131	    0	13.414904	-10.998397	-7.797207	0.300599	-0.652888	0.550081	0.134705	-0.109497	-0.077698	0.999990	0.001503	-0.003264	0.002750	
19132	    0	11.999092	-8.067593	-8.117933	1.134690	-0.148011	0.643353	0.120309	-0.079827	-0.081545	0.999978	0.005673	-0.000740	0.003217	
19133	    0	10.374675	-4.547252	-5.980909	1.828795	0.395400	0.588236	0.103760	-0.044617	-0.060425	0.999951	0.009144	0.001977	0.002941	
19134	    0	9.144485	-1.929946	-2.079832	2.136468	0.733010	0.425539	0.091408	-0.018879	-0.021337	0.999933	0.010682	0.003665	0.002128	
19135	    0	8.460308	-0.187814	-0.281350	2.078289	0.663198	0.181583	0.084595	-0.001770	-0.003113	0.999940	0.010391	0.003316	0.000908	
19136	    0	8.787484	2.027180	-0.225894	1.929697	0.497445	-0.127032	0.087882	0.020238	-0.002282	0.999949	0.009648	0.002487	-0.000635	
19137	    0	9.859725	4.584036	-2.878679	2.484388	0.086977	-0.474561	0.098694	0.045959	-0.028259	0.999920	0.012422	0.000435	-0.002373	
19138	    0	10.669754	7.961865	-3.514609	3.253705	0.052264	-0.650245	0.106948	0.079829	-0.033876	0.999862	0.016268	0.000261	-0.003251	
19139	    0	11.728345	6.670540	2.426837	2.344576	0.136761	-0.950648	0.117615	0.065857	0.024963	0.999919	0.011723	0.000684	-0.004753	
19140	    0	13.703350	0.912448	1.615564	1.445978	-0.214007	-0.796327	0.137051	0.008461	0.016365	0.999965	0.007230	-0.001070	-0.003982	
19141	    0	14.982217	0.337682	-0.839935	1.184855	-0.189020	-0.743872	0.149841	0.002869	-0.008240	0.999974	0.005924	-0.000945	-0.003719	
19142	    0	15.512925	4.447167	-0.659960	1.434915	0.258449	-0.835429	0.155305	0.043870	-0.006484	0.999964	0.007174	0.001292	-0.004177	
19143	    0	15.305190	7.636337	0.983702	1.140032	0.418857	-0.813301	0.153381	0.075684	0.009949	0.999973	0.005700	0.002094	-0.004066	
19144	    0	14.109582	8.933135	0.249597	1.058397	0.374606	-0.858314	0.141482	0.088711	0.002702	0.999974	0.005292	0.001873	-0.004292	
19145	    0	11.374663	10.290490	-2.556550	0.774579	0.176240	-0.920874	0.114197	0.102478	-0.025269	0.999981	0.003873	0.000881	-0.004604	
19146	    0	8.960883	10.040387	-4.941750	0.210763	0.016213	-1.008610	0.090110	0.100002	-0.049319	0.999987	0.001054	0.000081	-0.005043	
19147	    0	8.225173	8.869432	-4.280242	-0.353815	0.024414	-1.171119	0.082764	0.088135	-0.042969	0.999981	-0.001769	0.000122	-0.005856	
19148	    0	8.833028	7.108293	-3.221951	-0.723464	0.074387	-1.336111	0.088790	0.070374	-0.032508	0.999970	-0.003617	0.000372	-0.006680	
19149	    0	9.776318	6.256355	-3.112194	-0.843058	0.101663	-1.478595	0.098206	0.061707	-0.031433	0.999963	-0.004215	0.000508	-0.007393	
19150	    0	10.880526	5.324488	-2.745303	-0.881207	0.168612	-1.562521	0.109193	0.052271	-0.027777	0.999959	-0.004406	0.000843	-0.007812	
19151	    0	11.849360	3.860730	-2.430147	-0.893987	0.212863	-1.619744	0.118774	0.037537	-0.024597	0.999956	-0.004470	0.001064	-0.008099	
19152	    0	12.065473	2.767896	-2.231860	-0.902189	0.241283	-1.655031	0.120851	0.026578	-0.022586	0.999954	-0.004511	0.001206	-0.008275	
19153	    0	11.596218	2.659366	-2.181404	-0.889411	0.285344	-1.693752	0.116150	0.025513	-0.022095	0.999952	-0.004447	0.001427	-0.008469	
19154	    0	10.925935	3.085739	-1.944687	-0.900665	0.317388	-1.758033	0.109493	0.029807	-0.019756	0.999949	-0.004503	0.001587	-0.008790	
19155	    0	10.319952	3.216263	-1.896391	-0.933092	0.341231	-1.828799	0.103455	0.031128	-0.019287	0.999946	-0.004665	0.001706	-0.009144	
19156	    0	9.804948	3.127560	-2.286187	-1.023504	0.360305	-1.910820	0.098300	0.030219	-0.023195	0.999939	-0.005117	0.001801	-0.009554	
19157	    0	9.443495	2.848432	-2.494414	-1.166561	0.343521	-1.972243	0.094666	0.027405	-0.025269	0.999932	-0.005833	0.001718	-0.009861	
19158	    0	9.283949	2.038098	-2.561517	-1.294358	0.330742	-1.984262	0.092992	0.019292	-0.025896	0.999928	-0.006472	0.001654	-0.009921	
19159	    0	8.987453	0.809412	-2.746001	-1.412045	0.304420	-1.958514	0.089905	0.007019	-0.027649	0.999926	-0.007060	0.001522	-0.009792	
19160	    0	9.093018	-0.428229	-2.676094	-1.510849	0.286872	-1.904154	0.090844	-0.005350	-0.026854	0.999925	-0.007554	0.001434	-0.009521	
19161	    0	9.387393	-1.598828	-2.307206	-1.569977	0.277717	-1.833389	0.093689	-0.017029	-0.023071	0.999926	-0.007850	0.001389	-0.009167	
19162	    0	9.643377	-2.897824	-2.353275	-1.543461	0.231939	-1.708832	0.096153	-0.029982	-0.023416	0.999932	-0.007717	0.001160	-0.008544	
19163	    0	9.920321	-3.735617	-2.690953	-1.409748	0.185398	-1.586181	0.098877	-0.038330	-0.026733	0.999943	-0.007049	0.000927	-0.007931	
19164	    0	9.855604	-3.943247	-2.714788	-1.111046	0.175479	-1.470968	0.098238	-0.040306	-0.027012	0.999957	-0.005555	0.000877	-0.007355	
19165	    0	9.675386	-4.097482	-2.434758	-0.753029	0.208475	-1.412216	0.096436	-0.041748	-0.024292	0.999967	-0.003765	0.001042	-0.007061	
19166	    0	9.382064	-3.990554	-1.980285	-0.462918	0.261118	-1.360715	0.093520	-0.040588	-0.019832	0.999973	-0.002315	0.001306	-0.006804	
19167	    0	9.236409	-3.526345	-1.870028	-0.175477	0.281718	-1.320658	0.092102	-0.035889	-0.018799	0.999976	-0.000877	0.001409	-0.006603	
19168	    0	9.289307	-2.622364	-1.586367	0.079919	0.321963	-1.314364	0.092692	-0.026827	-0.016024	0.999976	0.000400	0.001610	-0.006572	
19169	    0	9.407636	-1.763080	-1.189365	0.287631	0.351909	-1.353466	0.093933	-0.018250	-0.012085	0.999974	0.001438	0.001760	-0.006767	
19170	    0	9.737711	-0.683491	-0.846010	0.482564	0.391010	-1.406683	0.097309	-0.007499	-0.008668	0.999970	0.002413	0.001955	-0.007033	
19171	    0	9.990785	0.376091	-0.753494	0.629432	0.454145	-1.467912	0.099915	0.003052	-0.007751	0.999965	0.003147	0.002271	-0.007339	
19172	    0	10.134340	1.314189	-0.683534	0.651177	0.522430	-1.569006	0.101424	0.012369	-0.007059	0.999960	0.003256	0.002612	-0.007845	
19173	    0	10.183363	2.145371	-0.594992	0.529487	0.529678	-1.647972	0.101990	0.020630	-0.006165	0.999959	0.002647	0.002648	-0.008240	
19174	    0	10.153041	2.368001	-0.441912	0.287823	0.506789	-1.681541	0.101713	0.022832	-0.004643	0.999960	0.001439	0.002534	-0.008408	
19175	    0	10.104763	2.666708	-0.391784	0.076295	0.479323	-1.681540	0.101257	0.025818	-0.004150	0.999961	0.000381	0.002397	-0.008408	
19176	    0	10.125066	2.236442	-0.406313	-0.204661	0.404744	-1.616878	0.101418	0.021541	-0.004291	0.999965	-0.001023	0.002024	-0.008084	
19177	    0	10.246450	1.897078	-0.235226	-0.427823	0.334934	-1.515214	0.102600	0.018188	-0.002563	0.999968	-0.002139	0.001675	-0.007576	
19178	    0	10.357819	1.905875	-0.604392	-0.546079	0.261881	-1.385321	0.103699	0.018324	-0.006230	0.999971	-0.002730	0.001309	-0.006927	
19179	    0	10.532905	1.382163	-0.624390	-0.745971	0.218203	-1.281750	0.105408	0.013123	-0.006409	0.999971	-0.003730	0.001091	-0.006409	
19180	    0	10.845117	0.549521	-0.405642	-0.916680	0.200846	-1.171505	0.108477	0.004841	-0.004189	0.999971	-0.004583	0.001004	-0.005857	
19181	    0	10.910144	-0.488790	-0.384306	-0.997171	0.164224	-1.074228	0.109070	-0.005493	-0.003906	0.999972	-0.004986	0.000821	-0.005371	
19182	    0	10.684676	-1.248689	-0.405601	-1.052675	0.117684	-0.986108	0.106781	-0.013035	-0.004051	0.999973	-0.005263	0.000588	-0.004930	
19183	    0	10.367682	-2.217716	-0.137496	-1.159488	0.071717	-0.886544	0.103577	-0.022644	-0.001282	0.999973	-0.005797	0.000359	-0.004433	
19184	    0	10.023887	-3.023624	-0.070846	-1.182566	0.009728	-0.726133	0.100128	-0.030603	-0.000533	0.999975	-0.005913	0.000049	-0.003631	
19185	    0	9.805443	-3.388344	-0.496432	-1.091582	-0.035858	-0.550846	0.097961	-0.034180	-0.004761	0.999981	-0.005458	-0.000179	-0.002754	
19186	    0	9.526439	-3.958831	-0.733273	-0.960164	-0.035858	-0.385477	0.095189	-0.039806	-0.007125	0.999986	-0.004801	-0.000179	-0.001927	
19187	    0	9.452151	-4.652397	-0.660744	-0.829890	-0.011444	-0.169373	0.094482	-0.046631	-0.006409	0.999990	-0.004149	-0.000057	-0.000847	
19188	    0	9.601334	-4.886963	-0.666538	-0.651170	0.031090	0.069428	0.096029	-0.048858	-0.006521	0.999994	-0.003256	0.000155	0.000347	
19189	    0	9.912259	-4.310066	-0.638386	-0.455475	0.124550	0.295258	0.099182	-0.042969	-0.006348	0.999995	-0.002277	0.000623	0.001476	
19190	    0	9.902727	-4.098411	-0.778888	-0.422860	0.223732	0.558664	0.099133	-0.040724	-0.007813	0.999992	-0.002114	0.001119	0.002793	
19191	    0	9.430071	-4.584498	-0.996028	-0.588229	0.259591	0.853733	0.094482	-0.045471	-0.009949	0.999986	-0.002941	0.001298	0.004269	
19192	    0	8.709283	-4.823460	-0.113285	-0.860603	0.234415	1.146136	0.087366	-0.047739	-0.001029	0.999973	-0.004303	0.001172	0.005731	
19193	    0	8.446753	-5.125404	1.031864	-1.099411	0.235942	1.412983	0.084839	-0.050598	0.010498	0.999959	-0.005497	0.001180	0.007065	
19194	    0	8.673522	-4.289396	2.514533	-1.528773	0.328262	1.651037	0.087126	-0.041983	0.025326	0.999935	-0.007644	0.001641	0.008255	
19195	    0	9.006218	-3.465304	0.484449	-1.472509	0.200086	1.914262	0.090393	-0.033752	0.005005	0.999927	-0.007362	0.001000	0.009571	
19196	    0	9.755388	-2.587266	-1.040237	-1.191170	0.077440	2.199230	0.097827	-0.024859	-0.010290	0.999921	-0.005956	0.000387	0.010996	
19197	    0	10.250524	-0.789706	-2.550345	-0.587288	-0.060274	2.452915	0.102600	-0.006714	-0.025452	0.999920	-0.002936	-0.000301	0.012264	
19198	    0	10.837346	0.626205	-3.045043	-0.251777	-0.093463	2.644617	0.108293	0.007656	-0.030409	0.999911	-0.001259	-0.000467	0.013223	
19199	    0	12.100317	1.110184	-2.268014	-0.489060	-0.108913	2.727596	0.120850	0.012695	-0.022644	0.999904	-0.002445	-0.000545	0.013638	
19200	    0	14.201437	1.629372	-2.133882	-0.690291	-0.315485	2.638327	0.141817	0.018092	-0.021175	0.999906	-0.003451	-0.001577	0.013191	
19201	    0	17.217918	1.849651	-2.367591	-0.941497	-0.598736	2.536855	0.171997	0.020569	-0.023254	0.999904	-0.004707	-0.002994	0.012684	
