// Start Time: Unknown
// Update Rate: 100.0Hz
// Filter Profile: human (34.3)
// Firmware Version: 2.1.4
PacketCounter	SampleTimeFine	Acc_X	Acc_Y	Acc_Z	Gyr_X	Gyr_Y	Gyr_Z	VelInc_X	VelInc_Y	VelInc_Z	OriInc_q0	OriInc_q1	OriInc_q2	OriInc_q3	
30003	    0	16.272901	8.198278	-3.506107	0.265704	0.097660	-3.057981	0.163940	0.079529	-0.035034	0.999882	0.001328	0.000488	-0.015289	
30004	    0	14.429315	4.697522	1.518900	-0.584434	0.270281	-2.930370	0.144981	0.044898	0.014860	0.999887	-0.002922	0.001351	-0.014651	
30005	    0	8.975726	-1.458527	-1.116227	-0.158696	0.179487	-2.709282	0.089539	-0.015808	-0.011230	0.999907	-0.000793	0.000897	-0.013546	
30006	    0	7.904977	2.460347	-4.511034	0.107196	0.185018	-2.467791	0.079304	0.023650	-0.045171	0.999923	0.000536	0.000925	-0.012339	
30007	    0	8.171968	3.791372	-3.663392	-0.178341	0.185398	-2.180525	0.082092	0.036987	-0.036743	0.999939	-0.000892	0.000927	-0.010902	
30008	    0	9.011300	3.342531	-1.843990	-0.372702	0.163081	-1.908714	0.090411	0.032529	-0.018575	0.999952	-0.001863	0.000815	-0.009543	
30009	    0	10.019217	1.226122	-1.212224	-0.473791	0.113870	-1.633473	0.100281	0.011414	-0.012207	0.999963	-0.002369	0.000569	-0.008167	
30010	    0	10.703387	0.531039	-0.782297	-0.351337	0.048447	-1.426900	0.107066	0.004533	-0.007857	0.999972	-0.001757	0.000242	-0.007134	
30011	    0	10.664904	0.667373	-0.457982	-0.109864	-0.010490	-1.293191	0.106689	0.005981	-0.004578	0.999978	-0.000549	-0.000052	-0.006466	
30012	    0	10.359883	0.946481	-0.807201	-0.007439	-0.024796	-1.172835	0.103653	0.008857	-0.008060	0.999982	-0.000037	-0.000124	-0.005864	
30013	    0	10.029199	0.930917	-1.759720	0.043488	-0.034142	-1.044469	0.100342	0.008789	-0.017578	0.999986	0.000217	-0.000171	-0.005222	
30014	    0	9.831438	1.699081	-2.629016	-0.036049	-0.014305	-0.948528	0.098395	0.016520	-0.026286	0.999989	-0.000180	-0.000072	-0.004743	
30015	    0	9.313817	1.641172	-3.115823	-0.257684	0.021362	-0.816348	0.093201	0.015991	-0.031189	0.999990	-0.001288	0.000107	-0.004082	
30016	    0	9.149048	1.754820	-2.709941	-0.436593	0.049210	-0.686647	0.091543	0.017175	-0.027160	0.999991	-0.002183	0.000246	-0.003433	
30017	    0	9.326227	2.261345	-2.010989	-0.525667	0.072670	-0.605776	0.093323	0.022278	-0.020203	0.999991	-0.002628	0.000363	-0.003029	
30018	    0	9.279530	1.425119	-1.736267	-0.560190	0.081444	-0.522615	0.092825	0.013960	-0.017440	0.999992	-0.002801	0.000407	-0.002613	
30019	    0	9.659316	1.497730	-2.006701	-0.548555	0.070381	-0.440217	0.096619	0.014709	-0.020142	0.999993	-0.002743	0.000352	-0.002201	
30020	    0	10.033292	1.478975	-2.040161	-0.641252	0.066948	-0.384713	0.100354	0.014531	-0.020482	0.999992	-0.003206	0.000335	-0.001924	
30021	    0	10.338265	0.971193	-2.044569	-0.737764	0.052071	-0.340272	0.103394	0.009460	-0.020508	0.999991	-0.003689	0.000260	-0.001701	
30022	    0	10.547285	0.289303	-2.020826	-0.793650	0.064659	-0.318910	0.105471	0.002645	-0.020253	0.999990	-0.003968	0.000323	-0.001595	
30023	    0	10.455590	0.196017	-1.533335	-0.761988	0.077820	-0.368501	0.104553	0.001709	-0.015381	0.999990	-0.003810	0.000389	-0.001842	
30024	    0	10.188779	0.002710	-1.520192	-0.635530	0.084496	-0.431825	0.101881	-0.000241	-0.015244	0.999992	-0.003178	0.000422	-0.002159	
30025	    0	10.133074	-0.170634	-1.466415	-0.444032	0.097847	-0.543214	0.101318	-0.002014	-0.014709	0.999993	-0.002220	0.000489	-0.002716	
30026	    0	9.994509	-0.684123	-1.850404	-0.313950	0.117874	-0.635530	0.099912	-0.007188	-0.018552	0.999993	-0.001570	0.000589	-0.003178	
30027	    0	9.827261	0.222628	-2.184919	-0.278474	0.121498	-0.742342	0.098267	0.001831	-0.021912	0.999991	-0.001392	0.000607	-0.003712	
30028	    0	9.717574	-0.139235	-2.325830	-0.287057	0.144196	-0.849917	0.097152	-0.001839	-0.023326	0.999990	-0.001435	0.000721	-0.004250	
30029	    0	9.648013	-0.507490	-2.599618	-0.236512	0.149727	-0.930027	0.096436	-0.005554	-0.026062	0.999988	-0.001183	0.000749	-0.004650	
30030	    0	9.828926	0.754926	-2.550453	-0.260545	0.164414	-1.014905	0.098305	0.007017	-0.025595	0.999986	-0.001303	0.000822	-0.005075	
30031	    0	10.223858	1.396060	-1.990473	-0.352289	0.177766	-1.092535	0.102295	0.013367	-0.020020	0.999983	-0.001761	0.000889	-0.005463	
30032	    0	10.770282	1.249940	-1.611379	-0.509075	0.193406	-1.119430	0.107755	0.011855	-0.016249	0.999980	-0.002545	0.000967	-0.005597	
30033	    0	11.232317	1.068638	-1.456318	-0.670629	0.199319	-1.116951	0.112366	0.010010	-0.014709	0.999978	-0.003353	0.000997	-0.005585	
30034	    0	11.434139	1.320393	-1.416163	-0.828750	0.223734	-1.156054	0.114399	0.012484	-0.014342	0.999973	-0.004144	0.001119	-0.005780	
30035	    0	11.526019	0.875339	-1.202673	-0.927553	0.246432	-1.216901	0.115295	0.007996	-0.012207	0.999969	-0.004638	0.001232	-0.006084	
30036	    0	11.400696	-0.006307	-0.812476	-0.908099	0.275043	-1.322952	0.113992	-0.000854	-0.008279	0.999967	-0.004540	0.001375	-0.006615	
30037	    0	11.042780	-0.009753	-0.635269	-0.819979	0.327305	-1.433580	0.110413	-0.000916	-0.006531	0.999964	-0.004100	0.001637	-0.007168	
30038	    0	10.677771	-0.368597	-0.714034	-0.758563	0.376707	-1.613639	0.106730	-0.004575	-0.007325	0.999958	-0.003793	0.001884	-0.008068	
30039	    0	11.311303	-0.633151	-0.527697	-0.622378	0.421149	-1.834136	0.113037	-0.007385	-0.005493	0.999950	-0.003112	0.002106	-0.009171	
30040	    0	11.963449	-1.336353	0.040045	-0.504313	0.461778	-2.063029	0.119489	-0.014596	0.000160	0.999941	-0.002522	0.002309	-0.010315	
30041	    0	12.353142	-1.035560	0.518213	-0.320252	0.514234	-2.320154	0.123413	-0.011780	0.004883	0.999928	-0.001601	0.002571	-0.011600	
30042	    0	12.757778	-0.672569	0.917239	-0.128368	0.589579	-2.576331	0.127503	-0.008363	0.008801	0.999912	-0.000642	0.002948	-0.012881	
30043	    0	13.416867	-1.015429	0.728707	0.017739	0.671410	-2.787876	0.134033	-0.012024	0.006836	0.999897	0.000089	0.003357	-0.013939	
30044	    0	14.087475	-0.808682	-0.067260	-0.014115	0.737601	-2.975580	0.140730	-0.010181	-0.001191	0.999882	-0.000071	0.003688	-0.014877	
30045	    0	14.528116	-0.938440	-0.724364	-0.253307	0.802838	-3.119032	0.145081	-0.011658	-0.007812	0.999869	-0.001266	0.004014	-0.015594	
30046	    0	15.226249	0.047599	-1.418199	-0.697933	0.875326	-3.257531	0.152179	-0.002054	-0.014844	0.999851	-0.003489	0.004376	-0.016287	
30047	    0	16.262797	-0.209362	-1.737888	-1.357921	0.954493	-3.357893	0.162476	-0.004944	-0.018127	0.999825	-0.006789	0.004772	-0.016788	
30048	    0	16.961034	-3.135442	-2.530973	-2.100517	0.947064	-3.356021	0.168928	-0.034462	-0.025760	0.999792	-0.010502	0.004735	-0.016779	
30049	    0	20.282962	-4.139918	-3.132097	-2.670323	0.994194	-3.489217	0.201904	-0.045349	-0.031738	0.999746	-0.013350	0.004971	-0.017445	
30050	    0	23.968677	-8.531474	-4.542308	-2.624754	1.027393	-3.772894	0.237780	-0.090409	-0.045484	0.999722	-0.013123	0.005136	-0.018863	
30051	    0	24.091646	-10.747369	-6.414360	-1.831978	0.905879	-4.108789	0.238342	-0.112976	-0.064209	0.999736	-0.009159	0.004529	-0.020542	
30052	    0	24.150445	-8.832262	-6.447441	-1.300926	0.872307	-4.322623	0.239232	-0.093931	-0.064922	0.999735	-0.006504	0.004361	-0.021611	
30053	    0	23.236145	-5.577627	-7.412739	-1.040547	0.820993	-4.317078	0.230774	-0.061157	-0.074768	0.999744	-0.005202	0.004105	-0.021584	
30054	    0	21.097594	-7.475052	-7.692827	-0.955268	0.885073	-3.931517	0.209105	-0.079243	-0.077485	0.999785	-0.004776	0.004425	-0.019656	
30055	    0	17.675180	-9.090610	-7.680997	-0.123412	0.798838	-3.395253	0.174866	-0.093933	-0.077454	0.999847	-0.000617	0.003994	-0.016975	
30056	    0	12.941385	-4.073045	-6.355720	0.571084	0.657109	-3.070771	0.128560	-0.042526	-0.064100	0.999872	0.002855	0.003285	-0.015353	
30057	    0	12.490964	6.065161	-4.231376	0.448627	0.673131	-3.044254	0.125671	0.058838	-0.042603	0.999875	0.002243	0.003366	-0.015221	
30058	    0	7.969670	13.525301	-6.410418	-0.460639	0.491540	-2.694407	0.081349	0.134016	-0.064612	0.999903	-0.002303	0.002458	-0.013472	
30059	    0	9.691352	4.255729	-7.931610	-1.444081	0.447091	-1.489286	0.097046	0.041260	-0.079834	0.999943	-0.007220	0.002235	-0.007446	
30060	    0	5.057204	-6.281236	-5.508124	-1.682305	0.441939	-0.572213	0.050270	-0.063417	-0.054661	0.999958	-0.008411	0.002210	-0.002861	
30061	    0	3.287655	-7.719781	-2.946371	-1.364719	0.338748	0.025177	0.032837	-0.077393	-0.028992	0.999975	-0.006824	0.001694	0.000126	
30062	    0	1.943827	-5.685680	-1.380197	-1.268969	0.283625	0.498585	0.019561	-0.056894	-0.013469	0.999975	-0.006345	0.001418	0.002493	
30063	    0	0.894454	-4.330831	-1.341506	-1.096164	0.131990	1.013193	0.009155	-0.043335	-0.013184	0.999971	-0.005481	0.000660	0.005066	
30064	    0	0.619506	-4.121188	-1.964506	-0.760469	-0.028229	1.480883	0.006503	-0.041239	-0.019487	0.999965	-0.003802	-0.000141	0.007404	
30065	    0	0.720470	-4.235376	-2.005915	-0.156214	-0.175479	1.924163	0.007629	-0.042297	-0.020020	0.999952	-0.000781	-0.000877	0.009621	
30066	    0	1.566573	-3.842801	-1.582307	0.517095	-0.315674	2.382148	0.016147	-0.038197	-0.015897	0.999924	0.002585	-0.001578	0.011910	
30067	    0	2.220805	-3.394443	-1.128731	1.036302	-0.428788	2.805435	0.022705	-0.033569	-0.011414	0.999886	0.005181	-0.002144	0.014027	
30068	    0	2.689651	-3.243893	-1.140750	1.481518	-0.523786	3.247437	0.027448	-0.031911	-0.011574	0.999837	0.007407	-0.002619	0.016236	
30069	    0	3.171614	-2.864811	-1.888983	1.770335	-0.598187	3.657026	0.032288	-0.027893	-0.019043	0.999788	0.008851	-0.002991	0.018284	
30070	    0	3.776036	-2.538493	-2.644416	1.956345	-0.700057	4.039158	0.038352	-0.024355	-0.026552	0.999742	0.009781	-0.003500	0.020194	
30071	    0	4.464268	-2.468155	-3.039130	2.070254	-0.804219	4.392686	0.045288	-0.023376	-0.030457	0.999697	0.010350	-0.004021	0.021961	
30072	    0	5.368709	-1.924139	-3.305746	2.103475	-0.897702	4.732868	0.054265	-0.017614	-0.033006	0.999654	0.010516	-0.004488	0.023662	
30073	    0	6.429631	-0.800962	-3.534414	1.895571	-0.968292	5.063503	0.064636	-0.006042	-0.035095	0.999622	0.009477	-0.004841	0.025314	
30074	    0	7.530728	0.419009	-3.674746	1.503003	-1.084474	5.384982	0.075351	0.006493	-0.036296	0.999594	0.007514	-0.005422	0.026921	
30075	    0	8.890108	1.348726	-3.649258	0.954002	-1.196461	5.666402	0.088684	0.016174	-0.035889	0.999569	0.004769	-0.005981	0.028328	
30076	    0	10.290663	1.855350	-3.352481	0.350814	-1.286510	5.864646	0.102515	0.021622	-0.032828	0.999547	0.001754	-0.006432	0.029319	
30077	    0	11.412983	1.612289	-2.812850	-0.132010	-1.399263	6.016735	0.113770	0.019531	-0.027344	0.999522	-0.000660	-0.006995	0.030079	
30078	    0	12.452858	1.545278	-2.183984	-0.401945	-1.527848	6.096131	0.124144	0.019198	-0.020926	0.999504	-0.002009	-0.007638	0.030476	
30079	    0	13.662814	1.929336	-1.952703	-0.530143	-1.691726	6.154158	0.136108	0.023438	-0.018433	0.999487	-0.002650	-0.008457	0.030766	
30080	    0	15.061254	2.621794	-2.247691	-0.679326	-1.840533	6.186617	0.149906	0.030789	-0.021194	0.999473	-0.003396	-0.009201	0.030928	
30081	    0	16.639901	3.036408	-2.440080	-0.813439	-1.989148	6.187019	0.165588	0.035400	-0.022888	0.999463	-0.004066	-0.009944	0.030930	
30082	    0	18.114070	3.689622	-2.650540	-0.826221	-2.166565	6.143338	0.180170	0.042336	-0.024717	0.999460	-0.004130	-0.010831	0.030711	
30083	    0	19.455168	4.456804	-2.497318	-0.740946	-2.337109	6.061871	0.193359	0.050354	-0.022888	0.999465	-0.003704	-0.011683	0.030304	
30084	    0	20.488080	5.054840	-1.922577	-0.428465	-2.467205	5.971617	0.203468	0.056601	-0.016827	0.999475	-0.002142	-0.012334	0.029853	
30085	    0	21.349262	6.195892	-0.911533	0.030713	-2.540250	5.798545	0.211670	0.068115	-0.006409	0.999498	0.000154	-0.012699	0.028988	
30086	    0	21.952054	7.312361	1.097258	0.518307	-2.530872	5.525301	0.217226	0.079113	0.013931	0.999535	0.002591	-0.012652	0.027622	
30087	    0	22.269618	8.867227	5.900103	0.940257	-2.169326	5.137556	0.219666	0.094055	0.061829	0.999599	0.004701	-0.010845	0.025684	
30088	    0	21.498795	8.431462	9.444896	1.537497	-1.601400	4.714546	0.212164	0.088600	0.096826	0.999660	0.007687	-0.008006	0.023570	
30089	    0	20.096877	9.921666	3.536549	3.001945	-1.382608	4.138667	0.198608	0.102783	0.038269	0.999649	0.015008	-0.006912	0.020691	
30090	    0	17.995165	17.319951	-0.569889	3.500529	-1.264891	3.222409	0.177148	0.176120	-0.001507	0.999697	0.017501	-0.006324	0.016110	
30091	    0	12.365790	26.751505	-1.073232	2.938256	-1.124450	2.124151	0.120850	0.268921	-0.006104	0.999820	0.014690	-0.005622	0.010620	
30092	    0	11.579102	32.935422	1.771540	1.355953	-0.811016	0.962653	0.114125	0.329774	0.020415	0.999957	0.006780	-0.004055	0.004813	
30093	    0	13.887476	28.227155	6.130601	0.113678	-0.345421	-0.277710	0.139160	0.282043	0.061707	0.999997	0.000568	-0.001727	-0.001389	
30094	    0	17.649638	18.443735	8.167815	0.520901	0.036431	-1.355946	0.177755	0.183022	0.082124	0.999973	0.002604	0.000182	-0.006780	
30095	    0	14.236501	18.984256	0.183571	1.591544	0.142865	-2.293471	0.144531	0.188171	0.003235	0.999902	0.007957	0.000714	-0.011467	
30096	    0	12.273867	19.356964	-9.497418	1.270731	0.097088	-2.973877	0.125559	0.192315	-0.093810	0.999868	0.006353	0.000485	-0.014869	
30097	    0	15.977210	-6.545204	-4.571196	-0.573556	0.168615	-2.568129	0.158875	-0.067627	-0.045654	0.999912	-0.002868	0.000843	-0.012840	
30098	    0	16.102247	-20.767952	1.543464	-0.036622	0.083162	-2.322631	0.158603	-0.209528	0.015407	0.999932	-0.000183	0.000416	-0.011613	
30099	    0	16.347143	-9.087887	2.428278	1.052893	0.065806	-2.700137	0.162231	-0.093201	0.023743	0.999894	0.005264	0.000329	-0.013500	
30100	    0	18.883760	5.345225	3.521777	1.184901	0.138289	-3.158338	0.189672	0.050252	0.035391	0.999857	0.005924	0.000691	-0.015791	
30101	    0	19.800969	8.544844	2.756144	0.423451	0.273335	-3.254084	0.199402	0.082153	0.027466	0.999864	0.002117	0.001367	-0.016270	
30102	    0	18.729511	2.276514	1.519387	-0.201806	0.282681	-3.190368	0.187648	0.019789	0.014908	0.999871	-0.001009	0.001413	-0.015951	
30103	    0	14.444094	2.715719	-4.616119	0.545526	0.071147	-3.206013	0.144836	0.024963	-0.046143	0.999867	0.002728	0.000356	-0.016029	
30104	    0	16.169440	8.516151	-2.117321	0.020600	0.260746	-3.297002	0.163041	0.082483	-0.021377	0.999863	0.000103	0.001304	-0.016484	
30105	    0	10.865343	0.399935	0.444032	-0.563644	0.293743	-3.001522	0.108704	0.002380	0.004272	0.999882	-0.002818	0.001469	-0.015007	
30106	    0	6.957928	0.758659	-3.472875	-0.032044	0.200278	-2.756779	0.069640	0.006621	-0.034800	0.999904	-0.000160	0.001001	-0.013783	
30107	    0	7.557339	4.881869	-4.399729	-0.169186	0.238043	-2.449098	0.076111	0.047852	-0.044128	0.999924	-0.000846	0.001190	-0.012245	
30108	    0	7.196452	3.591392	-3.493049	-0.238995	0.207142	-2.128451	0.072305	0.035104	-0.035048	0.999942	-0.001195	0.001036	-0.010642	
30109	    0	8.834287	2.695440	-2.253098	-0.283055	0.171092	-1.806666	0.088562	0.026123	-0.022644	0.999957	-0.001415	0.000855	-0.009033	
30110	    0	10.206298	1.636283	-1.336553	-0.310520	0.129701	-1.534668	0.102176	0.015558	-0.013456	0.999969	-0.001553	0.000648	-0.007673	
30111	    0	11.049892	1.531526	-0.177977	-0.219537	0.063324	-1.313029	0.110596	0.014587	-0.001831	0.999977	-0.001098	0.000317	-0.006565	
30112	    0	11.268773	0.976540	0.121301	-0.179864	0.028992	-1.169021	0.112742	0.009108	0.001188	0.999982	-0.000899	0.000145	-0.005845	
30113	    0	10.971372	0.576111	-0.645946	-0.222016	0.007820	-1.031499	0.109741	0.005188	-0.006470	0.999986	-0.001110	0.000039	-0.005157	
30114	    0	10.681840	1.257223	-1.369291	-0.271608	-0.018692	-0.927166	0.106876	0.012058	-0.013700	0.999988	-0.001358	-0.000093	-0.004636	
30115	    0	10.190961	1.859584	-2.116062	-0.342561	-0.024986	-0.847629	0.101990	0.018127	-0.021179	0.999990	-0.001713	-0.000125	-0.004238	
30116	    0	9.404164	1.129207	-2.645647	-0.450517	-0.007439	-0.711825	0.094082	0.010898	-0.026478	0.999990	-0.002253	-0.000037	-0.003559	
30117	    0	9.217413	1.725548	-2.796774	-0.465966	0.016785	-0.614931	0.092224	0.016907	-0.028015	0.999992	-0.002330	0.000084	-0.003075	
30118	    0	9.138513	2.071457	-2.679480	-0.544168	0.039864	-0.524141	0.091434	0.020402	-0.026869	0.999992	-0.002721	0.000199	-0.002621	
30119	    0	9.201589	1.662997	-2.750913	-0.563813	0.070381	-0.423432	0.092041	0.016357	-0.027588	0.999993	-0.002819	0.000352	-0.002117	
30120	    0	9.614772	1.330371	-3.152236	-0.647356	0.071144	-0.342751	0.096159	0.013037	-0.031599	0.999992	-0.003237	0.000356	-0.001714	
30121	    0	10.033737	1.509343	-3.211898	-0.816157	0.093079	-0.260163	0.100342	0.014832	-0.032227	0.999990	-0.004081	0.000465	-0.001301	
30122	    0	10.375629	1.098870	-2.712835	-0.986676	0.078774	-0.209237	0.103757	0.010746	-0.027223	0.999987	-0.004933	0.000394	-0.001046	
30123	    0	10.517178	0.021484	-2.040381	-0.944523	0.081063	-0.225068	0.105164	0.000000	-0.020447	0.999988	-0.004723	0.000405	-0.001125	
30124	    0	10.354540	-0.226377	-1.669100	-0.857738	0.088501	-0.274659	0.103535	-0.002478	-0.016726	0.999990	-0.004289	0.000443	-0.001373	
30125	    0	10.242779	-0.251330	-1.375885	-0.714876	0.087166	-0.359345	0.102417	-0.002747	-0.013794	0.999991	-0.003574	0.000436	-0.001797	
30126	    0	10.121979	-0.016875	-1.450831	-0.588418	0.115013	-0.467683	0.101211	-0.000448	-0.014565	0.999992	-0.002942	0.000575	-0.002338	
30127	    0	10.046824	0.240883	-1.524337	-0.498964	0.141335	-0.588228	0.100464	0.002075	-0.015320	0.999991	-0.002495	0.000707	-0.002941	
30128	    0	9.682943	-0.426362	-2.032993	-0.424768	0.156785	-0.687410	0.096798	-0.004640	-0.020396	0.999991	-0.002124	0.000784	-0.003437	
30129	    0	9.517889	-0.190639	-2.306804	-0.362970	0.143433	-0.779727	0.095154	-0.002319	-0.023132	0.999990	-0.001815	0.000717	-0.003899	
30130	    0	9.606010	0.062179	-2.347167	-0.258447	0.152398	-0.891880	0.096044	0.000163	-0.023545	0.999989	-0.001292	0.000762	-0.004459	
30131	    0	9.967670	0.355337	-2.315785	-0.210381	0.186921	-0.957493	0.099670	0.003052	-0.023254	0.999987	-0.001052	0.000935	-0.004787	
30132	    0	10.376188	0.911124	-2.195046	-0.233842	0.205041	-1.036268	0.103785	0.008548	-0.022067	0.999985	-0.001169	0.001025	-0.005181	
30133	    0	10.902739	1.257847	-1.858458	-0.337030	0.243379	-1.071173	0.109070	0.011963	-0.018738	0.999983	-0.001685	0.001217	-0.005356	
30134	    0	11.207867	1.146146	-1.789376	-0.468066	0.258638	-1.133163	0.112118	0.010784	-0.018064	0.999980	-0.002340	0.001293	-0.005666	
30135	    0	11.150594	0.474136	-1.571412	-0.582127	0.255777	-1.196298	0.111511	0.004028	-0.015869	0.999976	-0.002911	0.001279	-0.005981	
30136	    0	10.943874	0.073093	-1.421702	-0.630575	0.285151	-1.274311	0.109420	-0.000011	-0.014374	0.999973	-0.003153	0.001426	-0.006371	
30137	    0	10.832409	0.501042	-1.147356	-0.615698	0.314525	-1.409164	0.108337	0.004211	-0.011658	0.999969	-0.003078	0.001573	-0.007046	
30138	    0	10.792139	-0.025582	-0.753052	-0.599296	0.373463	-1.554889	0.107901	-0.001118	-0.007730	0.999963	-0.002996	0.001867	-0.007774	
30139	    0	10.773161	-0.515563	-0.710664	-0.491340	0.430495	-1.727319	0.107666	-0.006104	-0.007324	0.999957	-0.002457	0.002152	-0.008636	
30140	    0	11.331324	-0.478287	-0.612331	-0.389487	0.477418	-1.927981	0.113245	-0.005887	-0.006383	0.999949	-0.001947	0.002387	-0.009640	
30141	    0	12.186580	-0.717651	-0.523500	-0.268560	0.541889	-2.134748	0.121765	-0.008484	-0.005554	0.999938	-0.001343	0.002709	-0.010674	
30142	    0	12.595769	-0.705959	-0.473130	-0.190739	0.571074	-2.332553	0.125850	-0.008533	-0.005083	0.999927	-0.000954	0.002855	-0.011662	
30143	    0	12.684658	-1.018287	0.165206	-0.106815	0.593774	-2.520823	0.126709	-0.011780	0.001282	0.999915	-0.000534	0.002969	-0.012604	
30144	    0	13.290291	-0.144847	0.811549	0.003624	0.655386	-2.712529	0.132893	-0.003251	0.007680	0.999902	0.000018	0.003277	-0.013562	
30145	    0	13.699189	-0.671024	0.674967	0.012970	0.764684	-2.857312	0.136902	-0.008667	0.006226	0.999890	0.000065	0.003823	-0.014286	
30146	    0	14.219516	-0.607278	0.039037	-0.092701	0.829349	-3.011826	0.142082	-0.008213	-0.000196	0.999877	-0.000463	0.004147	-0.015059	
30147	    0	14.390620	0.049757	-0.624320	-0.448629	0.911945	-3.131245	0.143860	-0.001770	-0.006897	0.999864	-0.002243	0.004560	-0.015656	
30148	    0	15.347502	0.232652	-0.492661	-1.065500	0.994734	-3.220344	0.153459	-0.000174	-0.005693	0.999844	-0.005327	0.004973	-0.016101	
30149	    0	15.696466	-1.761464	-1.931225	-1.774705	0.966894	-3.235822	0.156555	-0.020325	-0.019897	0.999818	-0.008873	0.004834	-0.016178	
30150	    0	18.320986	-3.055016	-2.890534	-2.270861	0.970719	-3.335048	0.182521	-0.033930	-0.029420	0.999784	-0.011353	0.004853	-0.016674	
30151	    0	21.605839	-5.951365	-3.548156	-2.578949	1.068395	-3.481582	0.214783	-0.063721	-0.035828	0.999751	-0.012894	0.005342	-0.017406	
30152	    0	23.456917	-9.947422	-5.534195	-2.132400	0.999914	-3.765034	0.232357	-0.104453	-0.055411	0.999753	-0.010661	0.004999	-0.018824	
30153	    0	24.675522	-10.118755	-6.196408	-1.405258	0.938492	-4.082058	0.244324	-0.106628	-0.062378	0.999756	-0.007026	0.004692	-0.020409	
30154	    0	22.997492	-6.213085	-7.023850	-0.710926	0.793330	-4.265747	0.228296	-0.067264	-0.070913	0.999758	-0.003554	0.003966	-0.021327	
30155	    0	21.215010	-5.293842	-7.283355	-0.717214	0.750214	-4.008007	0.210754	-0.057434	-0.073425	0.999785	-0.003586	0.003751	-0.020039	
30156	    0	18.380029	-6.593689	-6.558793	-0.428987	0.815246	-3.534323	0.182326	-0.069309	-0.066187	0.999833	-0.002145	0.004076	-0.017671	
30157	    0	15.563601	-4.541467	-5.105210	0.196085	0.772322	-3.288426	0.154663	-0.047913	-0.051697	0.999856	0.000980	0.003861	-0.016441	
30158	    0	13.170222	3.784129	-4.633957	0.538852	0.713191	-3.252947	0.132130	0.035820	-0.046712	0.999857	0.002694	0.003566	-0.016264	
30159	    0	9.703542	10.691712	-7.881688	-0.070765	0.629450	-3.025175	0.098389	0.105408	-0.079163	0.999880	-0.000354	0.003147	-0.015125	
30160	    0	12.957362	7.500671	-9.749205	-1.303515	0.517477	-2.016309	0.130063	0.073058	-0.098309	0.999924	-0.006517	0.002587	-0.010081	
30161	    0	7.231543	-4.925126	-6.664522	-1.658658	0.484665	-1.022356	0.071899	-0.050171	-0.066406	0.999949	-0.008293	0.002423	-0.005112	
30162	    0	5.422004	-7.822388	-3.325980	-1.469436	0.402073	-0.382618	0.054004	-0.078569	-0.032792	0.999969	-0.007347	0.002010	-0.001913	
30163	    0	3.370045	-5.596125	-1.154463	-1.335727	0.355533	0.039673	0.033691	-0.056030	-0.011230	0.999975	-0.006679	0.001778	0.000198	
30164	    0	2.324368	-4.011404	-0.922145	-1.290332	0.310900	0.499348	0.023330	-0.040114	-0.008999	0.999974	-0.006452	0.001554	0.002497	
30165	    0	1.571226	-3.538439	-1.666374	-1.135265	0.210764	0.984964	0.015869	-0.035400	-0.016479	0.999970	-0.005676	0.001054	0.004925	
30166	    0	1.238594	-3.584157	-2.246537	-0.654227	0.094987	1.434913	0.012632	-0.035825	-0.022354	0.999969	-0.003271	0.000475	0.007174	
30167	    0	1.406276	-3.657294	-1.965115	0.009155	0.007057	1.876096	0.014404	-0.036438	-0.019653	0.999955	0.000046	0.000035	0.009380	
30168	    0	1.746107	-3.410395	-1.337478	0.703829	-0.104335	2.323399	0.017862	-0.033851	-0.013485	0.999926	0.003519	-0.000522	0.011617	
30169	    0	2.141519	-3.071868	-1.251698	1.313071	-0.199707	2.775683	0.021851	-0.030334	-0.012695	0.999881	0.006565	-0.000998	0.013878	
30170	    0	2.435550	-2.588495	-1.711540	1.747228	-0.291078	3.184113	0.024787	-0.025342	-0.017303	0.999833	0.008736	-0.001455	0.015920	
30171	    0	2.768590	-2.308842	-2.460631	2.021170	-0.388173	3.570809	0.028137	-0.022339	-0.024780	0.999787	0.010105	-0.001941	0.017853	
30172	    0	3.201464	-2.367831	-3.137485	2.182958	-0.479740	3.959997	0.032546	-0.022694	-0.031549	0.999741	0.010914	-0.002398	0.019798	
30173	    0	3.935138	-2.232482	-3.538833	2.301259	-0.569020	4.326305	0.039917	-0.021057	-0.035522	0.999696	0.011505	-0.002845	0.021629	
30174	    0	4.891880	-1.603673	-3.842731	2.271720	-0.644566	4.659801	0.049392	-0.014453	-0.038439	0.999659	0.011357	-0.003222	0.023296	
30175	    0	5.875873	-0.624960	-3.812582	2.031957	-0.722402	4.984133	0.059021	-0.004395	-0.037964	0.999631	0.010159	-0.003612	0.024918	
30176	    0	6.867065	0.026002	-4.018787	1.683838	-0.804625	5.293778	0.068787	0.002417	-0.039897	0.999606	0.008418	-0.004023	0.026465	
30177	    0	8.052514	0.521339	-3.836842	1.245290	-0.898677	5.563364	0.080505	0.007690	-0.037964	0.999583	0.006226	-0.004493	0.027813	
30178	    0	9.343699	0.936207	-3.632576	0.791665	-1.000360	5.786025	0.093291	0.012205	-0.035814	0.999560	0.003958	-0.005001	0.028926	
30179	    0	10.643274	0.923088	-3.117998	0.382291	-1.090216	5.946496	0.106262	0.012451	-0.030579	0.999541	0.001911	-0.005450	0.029728	
30180	    0	12.052102	0.774562	-2.682242	0.111979	-1.212125	6.106409	0.120369	0.011437	-0.026087	0.999515	0.000560	-0.006060	0.030527	
30181	    0	13.596774	1.157863	-2.465695	-0.057993	-1.352731	6.239616	0.135681	0.015808	-0.023743	0.999490	-0.000290	-0.006763	0.031193	
30182	    0	15.163200	1.661279	-2.672993	-0.228731	-1.465675	6.336567	0.151196	0.021379	-0.025643	0.999470	-0.001143	-0.007327	0.031677	
30183	    0	16.896317	1.948665	-3.011187	-0.388216	-1.598650	6.417494	0.168457	0.024841	-0.028809	0.999451	-0.001941	-0.007992	0.032082	
30184	    0	18.611729	2.448717	-3.378322	-0.533967	-1.753944	6.444420	0.185489	0.030384	-0.032230	0.999438	-0.002669	-0.008768	0.032216	
30185	    0	19.984359	2.934540	-3.551107	-0.661403	-1.936708	6.432801	0.199097	0.035645	-0.033691	0.999430	-0.003306	-0.009682	0.032158	
30186	    0	21.203624	3.932667	-3.218911	-0.654727	-2.132440	6.378243	0.210969	0.045966	-0.030079	0.999429	-0.003273	-0.010660	0.031885	
30187	    0	21.861125	4.842168	-2.512258	-0.536447	-2.295159	6.262612	0.217224	0.055176	-0.022766	0.999440	-0.002682	-0.011474	0.031307	
30188	    0	22.577033	5.511605	-1.148081	-0.149181	-2.410364	6.073698	0.224075	0.061932	-0.008818	0.999466	-0.000746	-0.012050	0.030363	
30189	    0	23.086965	6.592732	1.649812	0.371611	-2.424059	5.715338	0.228638	0.072449	0.019409	0.999516	0.001858	-0.012118	0.028572	
30190	    0	23.555003	8.631459	8.252512	0.620351	-1.909889	5.250478	0.232377	0.092182	0.085034	0.999604	0.003101	-0.009548	0.026249	
30191	    0	20.958614	8.003002	6.535457	1.895368	-1.547235	4.765890	0.207092	0.084351	0.067749	0.999640	0.009476	-0.007735	0.023827	
30192	    0	19.317835	16.578149	0.200714	3.001166	-1.450128	3.950559	0.189821	0.169484	0.005917	0.999665	0.015004	-0.007250	0.019751	
30193	    0	13.940673	29.434921	1.747622	2.241835	-1.197883	2.687989	0.135315	0.295959	0.021606	0.999828	0.011209	-0.005989	0.013439	
30194	    0	11.429265	35.300017	4.507140	0.753029	-0.714119	1.199163	0.112009	0.353502	0.046804	0.999969	0.003765	-0.003571	0.005996	
30195	    0	13.656471	29.074159	6.570347	-0.186920	-0.175285	-0.313568	0.136963	0.290588	0.065552	0.999997	-0.000935	-0.000876	-0.001568	
30196	    0	17.362694	19.104134	8.316404	0.531776	0.286297	-1.672004	0.175334	0.189359	0.083419	0.999960	0.002659	0.001431	-0.008360	
30197	    0	14.602895	19.632885	4.529169	1.782491	0.454731	-2.552901	0.148621	0.194031	0.046692	0.999876	0.008912	0.002274	-0.012764	
30198	    0	11.907076	18.440952	-8.198637	1.845647	0.259795	-3.018919	0.121738	0.183332	-0.080448	0.999843	0.009228	0.001299	-0.015094	
30199	    0	15.719322	-0.715102	-9.152574	-0.016594	0.190741	-2.853491	0.156982	-0.009399	-0.091675	0.999897	-0.000083	0.000954	-0.014267	
30200	    0	15.340609	-18.695528	-0.878231	-0.075342	0.093462	-2.451195	0.151095	-0.188820	-0.008782	0.999925	-0.000377	0.000467	-0.012256	
30201	    0	15.589068	-10.916945	-0.014574	1.084172	-0.015832	-2.553640	0.154480	-0.111145	-0.000732	0.999904	0.005421	-0.000079	-0.012768	
30202	    0	16.405375	0.977417	0.508421	1.264434	0.038721	-2.899482	0.164173	0.007362	0.005104	0.999874	0.006322	0.000194	-0.014497	
30203	    0	18.776944	6.546904	1.189921	0.921673	0.177964	-3.157186	0.188782	0.062439	0.012024	0.999864	0.004608	0.000890	-0.015785	
30204	    0	19.667873	6.066056	2.678181	0.052645	0.276386	-3.157748	0.197640	0.057538	0.026525	0.999874	0.000263	0.001382	-0.015788	
30205	    0	16.874151	1.970852	-2.019891	0.089458	0.086215	-3.038905	0.169006	0.017151	-0.020264	0.999884	0.000447	0.000431	-0.015194	
30206	    0	16.261697	7.809406	-3.318891	0.361649	0.093083	-3.200669	0.163824	0.075539	-0.033127	0.999869	0.001808	0.000465	-0.016003	
30207	    0	15.676608	6.448555	2.044053	-0.462933	0.272381	-3.124368	0.157776	0.062073	0.020081	0.999874	-0.002315	0.001362	-0.015621	
30208	    0	8.658234	-1.138464	0.662784	-0.224693	0.145917	-2.819155	0.086415	-0.012596	0.006578	0.999899	-0.001123	0.000730	-0.014095	
30209	    0	5.998381	2.147105	-3.882914	0.238234	0.047304	-2.544472	0.060242	0.020752	-0.038818	0.999918	0.001191	0.000237	-0.012722	
30210	    0	6.684368	4.205027	-4.153444	-0.032044	0.082399	-2.218483	0.067287	0.041299	-0.041569	0.999938	-0.000160	0.000412	-0.011092	
30211	    0	7.737125	3.621622	-2.887452	-0.202945	0.051308	-1.869992	0.077698	0.035461	-0.028931	0.999955	-0.001015	0.000257	-0.009350	
30212	    0	10.234167	2.077480	-1.401386	-0.310138	0.047493	-1.560418	0.102496	0.019954	-0.014070	0.999968	-0.001551	0.000237	-0.007802	
30213	    0	11.459839	1.390591	-1.197841	-0.305941	0.043679	-1.334392	0.114685	0.013123	-0.012024	0.999976	-0.001530	0.000218	-0.006672	
30214	    0	11.969407	1.081918	-0.890713	-0.292589	0.051499	-1.162917	0.119752	0.010110	-0.008953	0.999982	-0.001463	0.000257	-0.005815	
30215	    0	11.612325	0.597704	-0.562648	-0.308038	0.070954	-1.028447	0.116150	0.005371	-0.005676	0.999985	-0.001540	0.000355	-0.005142	
30216	    0	10.808970	0.573062	-0.822547	-0.270463	0.071144	-0.912670	0.108111	0.005226	-0.008271	0.999989	-0.001352	0.000356	-0.004563	
30217	    0	10.509862	1.687963	-1.410268	-0.305177	0.061226	-0.836184	0.105164	0.016418	-0.014160	0.999990	-0.001526	0.000306	-0.004181	
30218	    0	10.056626	1.382163	-1.956028	-0.420953	0.050545	-0.729563	0.100611	0.013413	-0.019614	0.999990	-0.002105	0.000253	-0.003648	
30219	    0	9.555547	1.102480	-2.185386	-0.534822	0.060463	-0.596620	0.095581	0.010681	-0.021912	0.999991	-0.002674	0.000302	-0.002983	
30220	    0	9.369786	1.621737	-2.034930	-0.586320	0.071144	-0.491334	0.093730	0.015927	-0.020430	0.999992	-0.002932	0.000356	-0.002457	
30221	    0	9.311521	1.605559	-2.042691	-0.605775	0.070381	-0.398255	0.093140	0.015808	-0.020508	0.999993	-0.003029	0.000352	-0.001991	
30222	    0	9.416358	1.712313	-1.965161	-0.567056	0.065422	-0.326729	0.094185	0.016913	-0.019731	0.999994	-0.002835	0.000327	-0.001634	
30223	    0	9.745821	1.538112	-1.897237	-0.559808	0.057221	-0.267029	0.097473	0.015198	-0.019043	0.999994	-0.002799	0.000286	-0.001335	
30224	    0	9.849118	0.964114	-2.163852	-0.667383	0.023270	-0.183297	0.098497	0.009479	-0.021682	0.999993	-0.003337	0.000116	-0.000916	
30225	    0	10.216757	0.335878	-2.770785	-0.775149	-0.020409	-0.151825	0.102173	0.003174	-0.027710	0.999991	-0.003876	-0.000102	-0.000759	
30226	    0	10.509901	-0.263422	-2.906403	-0.886920	-0.027084	-0.166512	0.105101	-0.002851	-0.029037	0.999990	-0.004435	-0.000135	-0.000833	
30227	    0	10.492934	-0.999454	-2.006792	-0.829127	-0.012207	-0.219727	0.104919	-0.010193	-0.020020	0.999990	-0.004146	-0.000061	-0.001099	
30228	    0	10.133168	-0.379539	-1.800468	-0.675584	0.001335	-0.330354	0.101325	-0.004024	-0.017992	0.999992	-0.003378	0.000007	-0.001652	
30229	    0	9.785790	-0.730804	-1.392555	-0.474358	0.016785	-0.464631	0.097839	-0.007568	-0.013916	0.999994	-0.002372	0.000084	-0.002323	
30230	    0	9.297827	-0.988192	-1.480519	-0.255013	0.026894	-0.599671	0.092946	-0.010180	-0.014805	0.999994	-0.001275	0.000134	-0.002998	
30231	    0	8.951299	-0.839558	-1.701072	-0.055504	0.045776	-0.732424	0.089478	-0.008728	-0.017029	0.999992	-0.000278	0.000229	-0.003662	
30232	    0	9.156678	0.046082	-1.879736	0.077057	0.047112	-0.868228	0.091563	0.000071	-0.018819	0.999990	0.000385	0.000236	-0.004341	
30233	    0	9.205292	0.017393	-2.809982	0.155640	0.081063	-0.955967	0.092041	-0.000244	-0.028137	0.999988	0.000778	0.000405	-0.004780	
30234	    0	9.837463	0.491763	-3.472374	0.050163	0.113869	-1.017193	0.098378	0.004426	-0.034779	0.999987	0.000251	0.000569	-0.005086	
30235	    0	10.450511	1.298043	-3.233555	-0.227166	0.114441	-1.058965	0.104553	0.012390	-0.032410	0.999985	-0.001136	0.000572	-0.005295	
30236	    0	10.518688	0.595399	-2.524838	-0.427821	0.115586	-1.099593	0.105203	0.005322	-0.025321	0.999982	-0.002139	0.000578	-0.005498	
30237	    0	10.759647	0.354465	-1.561094	-0.502590	0.125123	-1.183327	0.107605	0.002869	-0.015686	0.999979	-0.002513	0.000626	-0.005917	
30238	    0	11.006106	-0.253149	-0.548616	-0.490192	0.145723	-1.277934	0.110038	-0.003248	-0.005559	0.999976	-0.002451	0.000729	-0.006390	
30239	    0	11.055066	-0.179326	0.015690	-0.435642	0.182535	-1.393903	0.110535	-0.002563	0.000061	0.999972	-0.002178	0.000913	-0.006969	
30240	    0	11.140474	0.287449	0.351317	-0.423054	0.227168	-1.535051	0.111426	0.002027	0.003382	0.999968	-0.002115	0.001136	-0.007675	
30241	    0	11.225454	-0.076930	0.065349	-0.393682	0.299267	-1.676199	0.112244	-0.001709	0.000488	0.999961	-0.001968	0.001496	-0.008381	
30242	    0	11.513259	-0.528928	-0.535988	-0.309377	0.337224	-1.831082	0.115068	-0.006351	-0.005545	0.999955	-0.001547	0.001686	-0.009155	
30243	    0	11.962288	-0.288062	-0.942178	-0.243954	0.378425	-2.001988	0.119568	-0.004089	-0.009644	0.999947	-0.001220	0.001892	-0.010010	
30244	    0	12.175406	0.219666	-0.967590	-0.237279	0.392350	-2.152677	0.121749	0.000875	-0.009916	0.999939	-0.001186	0.001962	-0.010763	
30245	    0	12.527206	-0.032386	-0.570396	-0.187687	0.444995	-2.300315	0.125244	-0.001770	-0.005981	0.999930	-0.000938	0.002225	-0.011501	
30246	    0	12.834581	-0.511513	-0.413699	-0.048257	0.491537	-2.449099	0.128260	-0.006687	-0.004451	0.999922	-0.000241	0.002458	-0.012245	
30247	    0	13.188171	0.390763	-0.726705	0.076296	0.551049	-2.597885	0.131897	0.002197	-0.007629	0.999911	0.000381	0.002755	-0.012989	
30248	    0	13.327107	0.010608	-1.253339	0.048067	0.604839	-2.683343	0.133218	-0.001678	-0.012937	0.999905	0.000240	0.003024	-0.013416	
30249	    0	13.385921	0.539118	-1.994524	-0.157171	0.653289	-2.742095	0.133850	0.003540	-0.020386	0.999900	-0.000786	0.003266	-0.013710	
30250	    0	13.295969	1.455902	-2.565108	-0.536175	0.700595	-2.836332	0.133057	0.012603	-0.026153	0.999889	-0.002681	0.003503	-0.014181	
30251	    0	14.207456	0.379752	-1.893218	-1.215224	0.823247	-2.861146	0.142029	0.001648	-0.019531	0.999870	-0.006076	0.004116	-0.014305	
30252	    0	14.891398	0.184681	-2.083640	-1.777552	0.909854	-2.956166	0.148821	-0.000543	-0.021516	0.999841	-0.008887	0.004549	-0.014780	
30253	    0	16.227383	-2.545524	-2.532399	-2.379763	0.935615	-3.011518	0.161743	-0.028198	-0.025757	0.999804	-0.011898	0.004678	-0.015057	
30254	    0	18.512429	-5.053871	-2.625603	-2.866785	1.014600	-3.176945	0.184153	-0.053847	-0.026436	0.999758	-0.014333	0.005073	-0.015883	
30255	    0	20.611494	-7.529325	-3.585814	-2.923845	1.022621	-3.441164	0.204590	-0.079346	-0.035767	0.999732	-0.014618	0.005113	-0.017204	
30256	    0	22.740017	-9.592635	-5.095821	-2.314005	0.919040	-3.816935	0.225273	-0.100828	-0.050849	0.999740	-0.011569	0.004595	-0.019083	
30257	    0	23.948858	-9.584505	-5.737459	-1.593726	0.818704	-4.163717	0.237183	-0.101257	-0.057556	0.999743	-0.007968	0.004093	-0.020817	
30258	    0	22.879588	-6.123293	-5.624802	-1.049702	0.720847	-4.295708	0.227202	-0.066422	-0.056729	0.999748	-0.005248	0.003604	-0.021477	
30259	    0	21.256105	-6.462912	-5.742360	-0.832999	0.737815	-3.991985	0.210999	-0.069092	-0.057922	0.999784	-0.004165	0.003689	-0.019958	
30260	    0	18.478107	-5.909726	-6.671541	-0.388549	0.662651	-3.612914	0.183450	-0.062550	-0.067205	0.999829	-0.001943	0.003313	-0.018064	
30261	    0	15.450471	-4.362939	-5.515074	-0.040247	0.599700	-3.410510	0.153564	-0.046265	-0.055603	0.999849	-0.000201	0.002998	-0.017052	
30262	    0	13.615865	2.499222	-4.424151	0.103765	0.608855	-3.331725	0.136415	0.022744	-0.044644	0.999856	0.000519	0.003044	-0.016658	
30263	    0	11.297926	7.422323	-6.901811	-0.529501	0.541900	-3.016021	0.113892	0.072327	-0.069519	0.999879	-0.002647	0.002709	-0.015079	
30264	    0	12.887178	4.712132	-7.581270	-1.396407	0.416194	-2.042633	0.129182	0.045271	-0.076402	0.999921	-0.006982	0.002081	-0.010213	
30265	    0	7.007939	-5.163229	-5.369039	-1.560045	0.350195	-1.087206	0.069702	-0.052429	-0.053406	0.999952	-0.007800	0.001751	-0.005436	
30266	    0	5.549690	-7.506790	-2.932522	-1.342785	0.238421	-0.414089	0.055306	-0.075377	-0.028886	0.999974	-0.006714	0.001192	-0.002070	
30267	    0	3.618753	-5.802890	-1.472652	-1.199920	0.144959	0.057984	0.036194	-0.058105	-0.014404	0.999981	-0.006000	0.000725	0.000290	
30268	    0	2.185080	-4.368192	-1.570866	-1.226053	0.062752	0.562481	0.021969	-0.043715	-0.015448	0.999977	-0.006130	0.000314	0.002812	
30269	    0	1.416262	-4.377363	-2.180590	-1.182569	-0.020409	1.093304	0.014404	-0.043823	-0.021545	0.999967	-0.005913	-0.000102	0.005466	
30270	    0	1.125827	-4.615549	-2.479786	-0.838291	-0.108530	1.573393	0.011635	-0.046168	-0.024598	0.999960	-0.004191	-0.000543	0.007867	
30271	    0	1.309175	-4.277485	-2.112284	-0.230221	-0.247197	2.023351	0.013550	-0.042664	-0.021057	0.999947	-0.001151	-0.001236	0.010117	
30272	    0	1.602358	-3.086381	-1.711742	0.360498	-0.385867	2.430788	0.016430	-0.030635	-0.017141	0.999922	0.001802	-0.001929	0.012154	
30273	    0	2.049881	-2.421766	-1.423467	0.824959	-0.495166	2.834426	0.020874	-0.023865	-0.014282	0.999887	0.004125	-0.002476	0.014172	
30274	    0	2.710311	-2.381064	-1.612048	1.243847	-0.588066	3.257921	0.027533	-0.023264	-0.016186	0.999844	0.006219	-0.002940	0.016289	
30275	    0	3.293163	-2.487976	-2.061228	1.558219	-0.668380	3.665410	0.033447	-0.024109	-0.020691	0.999796	0.007791	-0.003342	0.018326	
30276	    0	3.811153	-2.503981	-2.686508	1.798973	-0.742021	4.067575	0.038707	-0.024014	-0.026941	0.999745	0.008994	-0.003710	0.020336	
30277	    0	4.730180	-2.295816	-2.970143	1.946455	-0.804792	4.453728	0.047913	-0.021606	-0.029724	0.999696	0.009731	-0.004024	0.022266	
30278	    0	5.811122	-1.819702	-3.128057	1.965368	-0.873476	4.808219	0.058658	-0.016484	-0.031193	0.999653	0.009826	-0.004367	0.024038	
30279	    0	6.728118	-1.141633	-3.099411	1.823849	-0.959900	5.138290	0.067688	-0.009399	-0.030762	0.999617	0.009118	-0.004799	0.025688	
30280	    0	7.666801	-0.381432	-3.153329	1.604303	-1.045182	5.453297	0.076893	-0.001469	-0.031150	0.999582	0.008020	-0.005225	0.027263	
30281	    0	9.025149	0.356939	-3.088572	1.267431	-1.145152	5.726713	0.090271	0.006348	-0.030334	0.999553	0.006336	-0.005725	0.028629	
30282	    0	10.276450	0.919795	-3.006824	0.891826	-1.233295	5.959115	0.102610	0.012389	-0.029385	0.999527	0.004458	-0.006166	0.029791	
30283	    0	11.622598	1.179392	-2.730449	0.578595	-1.333840	6.152605	0.115967	0.015442	-0.026489	0.999500	0.002892	-0.006668	0.030758	
30284	    0	13.300684	1.495169	-2.350891	0.239795	-1.447548	6.287332	0.132614	0.019153	-0.022527	0.999478	0.001199	-0.007236	0.031431	
30285	    0	14.946161	1.868412	-2.142500	-0.035674	-1.562781	6.380084	0.148926	0.023438	-0.020264	0.999460	-0.000178	-0.007812	0.031895	
30286	    0	16.641360	2.373710	-2.161527	-0.333275	-1.682402	6.433531	0.165710	0.029041	-0.020265	0.999445	-0.001666	-0.008410	0.032162	
30287	    0	18.290493	2.738396	-2.003472	-0.636411	-1.799159	6.448053	0.182068	0.033203	-0.018494	0.999434	-0.003181	-0.008994	0.032234	
30288	    0	19.649790	3.173502	-1.791862	-0.864383	-1.958836	6.387392	0.195517	0.037918	-0.016155	0.999433	-0.004321	-0.009792	0.031931	
30289	    0	20.569547	3.561218	-1.529131	-0.878307	-2.108204	6.284740	0.204590	0.041992	-0.013306	0.999440	-0.004391	-0.010539	0.031418	
30290	    0	21.263427	4.353584	-0.825824	-0.504394	-2.250313	6.154787	0.211237	0.050035	-0.005997	0.999459	-0.002522	-0.011250	0.030768	
30291	    0	21.873099	6.068052	-0.302789	0.148990	-2.347207	5.994688	0.216797	0.067200	-0.000427	0.999481	0.000745	-0.011734	0.029968	
30292	    0	22.467387	8.345956	0.274403	0.733304	-2.360346	5.736521	0.222102	0.089838	0.005697	0.999512	0.003666	-0.011800	0.028678	
30293	    0	22.794509	10.415376	3.348507	1.023439	-2.071677	5.380255	0.224670	0.110046	0.036377	0.999571	0.005116	-0.010357	0.026897	
30294	    0	22.237684	10.491192	7.651728	1.338166	-1.557920	4.973058	0.219077	0.109864	0.078957	0.999638	0.006690	-0.007789	0.024862	
30295	    0	18.945751	11.844973	3.444322	2.527332	-1.344451	4.350009	0.186584	0.122070	0.037231	0.999660	0.012635	-0.006721	0.021748	
30296	    0	17.343506	18.356140	-1.188003	2.911448	-1.206316	3.410837	0.170326	0.186621	-0.008144	0.999730	0.014556	-0.006031	0.017053	
30297	    0	12.724225	28.086750	-0.127186	2.234178	-1.001022	2.193550	0.124146	0.282227	0.002502	0.999865	0.011170	-0.005005	0.010967	
30298	    0	10.974580	32.942297	2.275554	0.726324	-0.604634	0.902755	0.108186	0.329827	0.024282	0.999978	0.003632	-0.003023	0.004514	
30299	    0	14.776921	26.199944	4.207543	-0.075531	-0.185967	-0.400544	0.148254	0.261719	0.042114	0.999997	-0.000378	-0.000930	-0.002003	
30300	    0	17.169983	19.329577	6.430809	0.636682	0.111963	-1.695847	0.173366	0.191625	0.064823	0.999958	0.003183	0.000560	-0.008479	
30301	    0	14.625260	19.693425	-1.171089	1.554356	0.169379	-2.553654	0.148743	0.195129	-0.010315	0.999887	0.007771	0.000847	-0.012768	
30302	    0	12.361464	16.681455	-10.196708	1.111842	0.083736	-3.037204	0.126092	0.165476	-0.101097	0.999868	0.005559	0.000419	-0.015185	
30303	    0	16.612960	-10.135303	-4.254995	-0.601786	0.142674	-2.536846	0.164795	-0.103577	-0.042358	0.999914	-0.003009	0.000713	-0.012684	
30304	    0	15.381791	-20.309874	2.436529	0.148205	0.051500	-2.384433	0.151388	-0.204931	0.024175	0.999928	0.000741	0.000257	-0.011922	
30305	    0	17.840763	-6.761668	3.902756	1.213122	0.036050	-2.837484	0.177429	-0.070374	0.038574	0.999881	0.006065	0.000180	-0.014187	
30306	    0	20.477047	8.587394	4.048607	1.357723	0.124747	-3.312860	0.206178	0.082190	0.040924	0.999839	0.006788	0.000624	-0.016563	
30307	    0	20.572375	9.284634	3.827326	0.366228	0.282491	-3.309022	0.207275	0.089355	0.038147	0.999860	0.001831	0.001412	-0.016544	
30308	    0	19.190827	1.515870	2.268921	-0.124364	0.269901	-3.176442	0.192147	0.012122	0.022422	0.999872	-0.000622	0.001349	-0.015882	
30309	    0	14.414834	3.426408	-4.033468	0.714143	0.090985	-3.188466	0.144653	0.032104	-0.040283	0.999866	0.003571	0.000455	-0.015942	
30310	    0	16.274699	7.130485	-0.676794	0.068095	0.282491	-3.207155	0.163853	0.068686	-0.006975	0.999870	0.000340	0.001412	-0.016035	
30311	    0	10.260166	-0.033083	1.229660	-0.424783	0.299084	-2.974814	0.102600	-0.001831	0.012146	0.999886	-0.002124	0.001495	-0.014874	
30312	    0	6.274693	0.577821	-3.324832	0.049211	0.182157	-2.699553	0.062787	0.004939	-0.033304	0.999908	0.000246	0.000911	-0.013497	
30313	    0	6.841238	5.231611	-5.555008	-0.128940	0.234419	-2.406370	0.068970	0.051453	-0.055664	0.999927	-0.000645	0.001172	-0.012032	
30314	    0	6.883050	3.245607	-5.341828	-0.390060	0.261502	-2.046050	0.069087	0.031646	-0.053571	0.999945	-0.001950	0.001307	-0.010230	
30315	    0	8.692561	1.761126	-3.153541	-0.444037	0.238994	-1.738763	0.087036	0.016785	-0.031677	0.999959	-0.002220	0.001195	-0.008694	
30316	    0	10.652367	0.992008	-1.319482	-0.396160	0.201799	-1.461234	0.106579	0.009115	-0.013321	0.999970	-0.001981	0.001009	-0.007306	
30317	    0	11.445525	0.841954	-0.460605	-0.214197	0.148774	-1.264962	0.114502	0.007690	-0.004700	0.999979	-0.001071	0.000744	-0.006325	
30318	    0	11.290686	0.778727	0.394684	-0.071717	0.070572	-1.116377	0.112949	0.007158	0.003904	0.999984	-0.000359	0.000353	-0.005582	
30319	    0	10.696747	0.577712	0.245817	0.032807	0.032997	-0.986485	0.106995	0.005249	0.002441	0.999988	0.000164	0.000165	-0.004932	
30320	    0	10.577835	1.340851	-0.828215	0.045967	-0.016785	-0.882915	0.105837	0.012943	-0.008270	0.999990	0.000230	-0.000084	-0.004415	
30321	    0	10.030658	0.886208	-2.125329	-0.025749	-0.028229	-0.748445	0.100342	0.008484	-0.021240	0.999992	-0.000129	-0.000141	-0.003742	
30322	    0	9.762041	1.456327	-2.790382	-0.189400	0.000954	-0.634767	0.097666	0.014227	-0.027918	0.999994	-0.000947	0.000005	-0.003174	
30323	    0	9.364399	1.865967	-2.773111	-0.358391	0.014496	-0.508881	0.093689	0.018372	-0.027771	0.999994	-0.001792	0.000072	-0.002544	
30324	    0	9.256425	1.361585	-2.498341	-0.426674	0.028610	-0.398255	0.092587	0.013378	-0.025025	0.999995	-0.002133	0.000143	-0.001991	
30325	    0	9.629718	1.314261	-2.198498	-0.427056	0.043488	-0.324250	0.096313	0.012939	-0.022034	0.999996	-0.002135	0.000217	-0.001621	
30326	    0	9.622932	0.778178	-2.089357	-0.407219	0.028038	-0.281716	0.096237	0.007604	-0.020923	0.999996	-0.002036	0.000140	-0.001409	
30327	    0	9.716474	0.408691	-2.354247	-0.432396	0.017548	-0.267029	0.097168	0.003906	-0.023560	0.999996	-0.002162	0.000088	-0.001335	
30328	    0	9.833401	-0.009276	-2.806113	-0.514031	0.002670	-0.250435	0.098333	-0.000288	-0.028062	0.999995	-0.002570	0.000013	-0.001252	
30329	    0	10.101485	-0.136864	-2.698357	-0.592614	-0.003052	-0.273896	0.101013	-0.001587	-0.026978	0.999994	-0.002963	-0.000015	-0.001369	
30330	    0	10.317412	-0.484544	-2.206911	-0.544167	0.026131	-0.338746	0.103163	-0.005080	-0.022069	0.999994	-0.002721	0.000131	-0.001694	
30331	    0	10.194071	-0.323498	-1.541638	-0.380707	0.062752	-0.421143	0.101929	-0.003479	-0.015442	0.999995	-0.001904	0.000314	-0.002106	
30332	    0	9.867829	-0.407789	-1.530366	-0.229073	0.077438	-0.513459	0.098661	-0.004349	-0.015337	0.999995	-0.001145	0.000387	-0.002567	
30333	    0	9.456647	-0.531550	-1.412323	-0.086785	0.083161	-0.621034	0.094543	-0.005615	-0.014160	0.999994	-0.000434	0.000416	-0.003105	
30334	    0	9.177995	-0.812033	-1.501851	0.046349	0.105858	-0.729372	0.091742	-0.008451	-0.015069	0.999992	0.000232	0.000529	-0.003647	
30335	    0	9.100709	0.233618	-1.892226	0.144959	0.134469	-0.872043	0.091003	0.001953	-0.018982	0.999990	0.000725	0.000672	-0.004360	
30336	    0	9.511634	-0.217697	-2.194754	0.159836	0.156975	-0.972180	0.095087	-0.002622	-0.022024	0.999987	0.000799	0.000785	-0.004861	
30337	    0	10.320269	0.625791	-2.523959	0.048828	0.177193	-1.020818	0.103210	0.005737	-0.025330	0.999986	0.000244	0.000886	-0.005104	
30338	    0	10.603745	1.208016	-2.620080	-0.240327	0.173951	-1.021199	0.106074	0.011507	-0.026307	0.999986	-0.001202	0.000870	-0.005106	
30339	    0	10.715381	0.884308	-2.308415	-0.475886	0.166322	-1.023107	0.107178	0.008240	-0.023193	0.999983	-0.002379	0.000832	-0.005116	
30340	    0	10.861035	0.573439	-1.658831	-0.621990	0.185396	-1.077468	0.108624	0.005097	-0.016706	0.999980	-0.003110	0.000927	-0.005387	
30341	    0	10.750465	-0.173793	-0.911333	-0.676542	0.205232	-1.137551	0.107483	-0.002380	-0.009216	0.999977	-0.003383	0.001026	-0.005688	
30342	    0	10.808205	0.258454	-0.506701	-0.618940	0.238230	-1.281749	0.108089	0.001876	-0.005202	0.999973	-0.003095	0.001191	-0.006409	
30343	    0	11.165703	-0.208417	-0.393980	-0.590521	0.281718	-1.383986	0.111633	-0.002869	-0.004089	0.999970	-0.002953	0.001409	-0.006920	
30344	    0	11.349240	-0.154271	-0.630387	-0.545126	0.312618	-1.514452	0.113466	-0.002419	-0.006475	0.999966	-0.002726	0.001563	-0.007572	
30345	    0	11.560756	0.225922	-1.114185	-0.590332	0.356297	-1.633475	0.115601	0.001282	-0.011353	0.999960	-0.002952	0.001781	-0.008167	
30346	    0	11.557660	-0.359266	-1.582274	-0.617609	0.400549	-1.783208	0.115506	-0.004672	-0.016041	0.999953	-0.003088	0.002003	-0.008916	
30347	    0	11.964543	-0.371976	-1.544746	-0.584995	0.421150	-1.970709	0.119568	-0.004944	-0.015686	0.999945	-0.002925	0.002106	-0.009853	
30348	    0	12.478976	-0.842440	-1.215609	-0.505458	0.460635	-2.159165	0.124660	-0.009802	-0.012420	0.999935	-0.002527	0.002303	-0.010796	
30349	    0	12.611177	-0.950166	-0.490083	-0.400362	0.489056	-2.339993	0.125977	-0.010986	-0.005188	0.999926	-0.002002	0.002445	-0.011700	
30350	    0	13.016602	-0.556380	0.119161	-0.237472	0.546471	-2.539134	0.130084	-0.007215	0.000844	0.999914	-0.001187	0.002732	-0.012695	
30351	    0	13.237194	-0.811009	0.558914	-0.056269	0.610371	-2.689447	0.132263	-0.009888	0.005188	0.999905	-0.000281	0.003052	-0.013447	
30352	    0	13.460351	-0.827573	0.164740	0.091556	0.690294	-2.833848	0.134473	-0.010182	0.001179	0.999893	0.000458	0.003451	-0.014169	
30353	    0	13.773014	-0.187928	-1.229144	0.103764	0.761634	-2.954216	0.137634	-0.003906	-0.012817	0.999883	0.000519	0.003808	-0.014771	
30354	    0	14.187277	0.714788	-2.672783	-0.244532	0.803409	-3.047116	0.141850	0.004953	-0.027305	0.999875	-0.001223	0.004017	-0.015235	
30355	    0	14.382313	-0.370420	-2.931840	-0.829162	0.849953	-3.083179	0.143616	-0.006042	-0.029907	0.999863	-0.004146	0.004250	-0.015415	
30356	    0	15.052753	-0.266499	-3.770859	-1.428299	0.882577	-3.150726	0.150290	-0.005306	-0.038341	0.999840	-0.007141	0.004413	-0.015753	
30357	    0	16.742554	-0.313607	-3.491566	-2.204853	0.940005	-3.227451	0.167175	-0.006226	-0.035645	0.999798	-0.011024	0.004700	-0.016136	
30358	    0	18.800690	-4.841249	-3.409444	-2.836275	1.016130	-3.325741	0.186988	-0.052013	-0.034326	0.999748	-0.014180	0.005080	-0.016627	
30359	    0	20.818519	-7.044301	-4.003323	-2.959532	0.994204	-3.603704	0.206665	-0.074768	-0.039978	0.999716	-0.014796	0.004971	-0.018017	
30360	    0	22.581537	-8.784554	-4.614548	-2.544453	0.930493	-3.913867	0.223817	-0.092825	-0.046030	0.999717	-0.012721	0.004652	-0.019567	
30361	    0	22.597657	-7.211011	-5.636518	-2.042385	0.823287	-4.132458	0.224182	-0.077332	-0.056519	0.999725	-0.010211	0.004116	-0.020660	
30362	    0	23.051729	-7.167697	-4.183982	-1.818429	0.874593	-4.020267	0.228826	-0.076671	-0.042161	0.999746	-0.009091	0.004373	-0.020100	
30363	    0	20.591661	-7.306116	-6.863382	-1.171762	0.821740	-3.716524	0.204224	-0.077271	-0.069031	0.999802	-0.005858	0.004108	-0.018581	
30364	    0	17.883080	-5.406639	-7.559971	-0.417159	0.568801	-3.471365	0.177639	-0.057315	-0.075989	0.999843	-0.002086	0.002844	-0.017356	
30365	    0	14.628015	-0.707183	-5.192051	-0.083927	0.534274	-3.323521	0.145996	-0.009521	-0.052307	0.999858	-0.000420	0.002671	-0.016617	
30366	    0	13.152466	6.951951	-4.301632	-0.297180	0.646623	-3.384568	0.132535	0.067218	-0.043545	0.999850	-0.001486	0.003233	-0.016922	
30367	    0	13.185804	7.913690	-5.940166	-1.190804	0.569938	-2.739821	0.132751	0.076965	-0.060242	0.999884	-0.005954	0.002850	-0.013699	
30368	    0	10.125017	-2.921875	-6.335846	-1.547467	0.447856	-1.676979	0.100856	-0.030556	-0.063352	0.999932	-0.007737	0.002239	-0.008385	
30369	    0	6.736583	-8.001403	-3.647735	-1.449603	0.345807	-0.865184	0.066956	-0.080566	-0.036011	0.999963	-0.007248	0.001729	-0.004326	
30370	    0	4.972511	-6.710143	-1.267197	-1.109702	0.186540	-0.409701	0.049576	-0.067272	-0.012345	0.999982	-0.005548	0.000933	-0.002048	
30371	    0	3.105906	-4.678773	-0.770160	-0.871280	0.061989	0.043488	0.031067	-0.046814	-0.007507	0.999990	-0.004356	0.000310	0.000217	
30372	    0	2.143096	-3.666909	-1.680668	-0.745776	-0.050545	0.564768	0.021539	-0.036671	-0.016665	0.999989	-0.003729	-0.000253	0.002824	
30373	    0	1.503772	-3.798648	-2.263272	-0.530818	-0.131226	1.086432	0.015259	-0.037964	-0.022522	0.999981	-0.002654	-0.000656	0.005432	
30374	    0	1.252961	-4.200112	-2.046798	-0.047493	-0.235942	1.575677	0.012884	-0.041905	-0.020443	0.999968	-0.000237	-0.001180	0.007878	
30375	    0	1.264342	-3.856532	-1.511237	0.565349	-0.360687	2.032509	0.013062	-0.038391	-0.015198	0.999942	0.002827	-0.001803	0.010162	
30376	    0	1.610577	-2.826977	-1.254660	1.064524	-0.441374	2.455596	0.016479	-0.028002	-0.012660	0.999907	0.005322	-0.002207	0.012278	
30377	    0	2.258588	-2.265568	-1.565032	1.397003	-0.520920	2.883275	0.022949	-0.022217	-0.015747	0.999867	0.006985	-0.002604	0.014416	
30378	    0	2.750348	-2.290532	-2.293345	1.643467	-0.570330	3.298951	0.027940	-0.022258	-0.023039	0.999825	0.008217	-0.002851	0.016494	
30379	    0	3.366864	-2.352446	-2.766955	1.803147	-0.619552	3.706628	0.034180	-0.022644	-0.027771	0.999783	0.009015	-0.003098	0.018532	
30380	    0	4.009038	-2.238449	-2.923950	1.898548	-0.671063	4.089328	0.040631	-0.021279	-0.029309	0.999740	0.009492	-0.003355	0.020445	
30381	    0	4.935922	-1.896828	-2.942205	1.932910	-0.714183	4.449909	0.049866	-0.017578	-0.029419	0.999699	0.009664	-0.003571	0.022247	
30382	    0	5.885008	-1.257102	-3.076983	1.829735	-0.784772	4.801719	0.059245	-0.010871	-0.030643	0.999661	0.009148	-0.003923	0.024006	
30383	    0	6.762170	-0.595809	-3.119257	1.640522	-0.842961	5.122245	0.067871	-0.003967	-0.030945	0.999629	0.008202	-0.004214	0.025608	
30384	    0	7.763448	-0.044957	-3.308075	1.436427	-0.940640	5.418744	0.077759	0.001892	-0.032707	0.999596	0.007181	-0.004703	0.027090	
30385	    0	9.185049	0.771346	-3.146305	1.140950	-1.010277	5.680903	0.091736	0.010498	-0.030945	0.999567	0.005704	-0.005051	0.028400	
30386	    0	10.423229	1.316670	-3.126424	0.765727	-1.111773	5.902047	0.103952	0.016356	-0.030627	0.999541	0.003828	-0.005558	0.029506	
30387	    0	11.491153	1.330523	-3.154644	0.442766	-1.201058	6.051838	0.114624	0.016846	-0.030823	0.999521	0.002213	-0.006004	0.030254	
30388	    0	12.811554	1.248375	-2.995692	0.231400	-1.332313	6.152407	0.127846	0.016454	-0.029087	0.999503	0.001157	-0.006660	0.030757	
30389	    0	14.329705	1.529106	-2.947772	0.169592	-1.510879	6.234285	0.142944	0.019775	-0.028381	0.999485	0.000848	-0.007553	0.031166	
30390	    0	16.002466	2.158689	-3.125748	0.078787	-1.664454	6.278951	0.159494	0.026612	-0.029919	0.999472	0.000394	-0.008321	0.031389	
30391	    0	17.749213	2.897186	-3.399529	-0.054178	-1.801432	6.307588	0.176758	0.034546	-0.032410	0.999461	-0.000271	-0.009006	0.031532	
30392	    0	19.341681	3.792108	-3.603377	-0.216523	-1.969501	6.266768	0.192446	0.043924	-0.034181	0.999459	-0.001082	-0.009846	0.031328	
30393	    0	20.241718	4.575058	-3.480915	-0.313624	-2.154737	6.191602	0.201233	0.051941	-0.032715	0.999461	-0.001568	-0.010772	0.030952	
30394	    0	20.659834	5.439446	-2.745581	-0.264787	-2.299141	6.069106	0.205120	0.060600	-0.025169	0.999473	-0.001324	-0.011494	0.030340	
30395	    0	21.056341	6.005458	-1.258373	-0.152423	-2.388404	5.899281	0.208801	0.066223	-0.010132	0.999493	-0.000762	-0.011940	0.029491	
30396	    0	21.321520	6.113682	0.345138	0.112360	-2.409360	5.645876	0.211314	0.067118	0.006042	0.999528	0.000562	-0.012045	0.028225	
30397	    0	21.210677	6.173922	2.252153	0.587738	-2.366212	5.306998	0.210083	0.067261	0.025208	0.999573	0.002938	-0.011829	0.026531	
30398	    0	21.420635	7.532603	5.704132	1.114217	-2.015357	4.864708	0.211703	0.080169	0.059621	0.999638	0.005570	-0.010076	0.024321	
30399	    0	20.592444	8.733362	8.197315	1.748839	-1.499141	4.429324	0.203308	0.091125	0.084290	0.999688	0.008743	-0.007495	0.022144	
30400	    0	17.867647	12.202339	1.438494	3.056667	-1.361804	3.854026	0.176172	0.125183	0.017488	0.999674	0.015282	-0.006808	0.019268	
30401	    0	15.199141	23.053994	-0.241820	3.080995	-1.228240	2.850569	0.148682	0.232666	0.002075	0.999761	0.015404	-0.006141	0.014252	
30402	    0	11.611027	31.831519	2.914102	1.677364	-0.891135	1.532783	0.113528	0.318930	0.032324	0.999925	0.008387	-0.004456	0.007664	
30403	    0	11.753788	30.752426	5.227644	0.451852	-0.428773	0.154114	0.117188	0.307495	0.053223	0.999994	0.002259	-0.002144	0.000771	
30404	    0	15.819472	22.310458	6.778424	0.196649	0.060273	-1.165588	0.159512	0.222111	0.067955	0.999982	0.000983	0.000301	-0.005828	
30405	    0	17.151284	18.079751	4.824165	1.111629	0.263411	-2.101185	0.173462	0.178711	0.049011	0.999928	0.005558	0.001317	-0.010506	
30406	    0	12.485392	19.095389	-7.394303	1.674151	0.139815	-2.712937	0.127383	0.189848	-0.072439	0.999872	0.008370	0.000699	-0.013564	
30407	    0	14.294396	8.046798	-12.158245	0.033761	0.103000	-2.781004	0.143982	0.078491	-0.121643	0.999903	0.000169	0.000515	-0.013905	
30408	    0	15.816482	-15.009790	-2.826586	-0.930619	0.077440	-2.297460	0.156415	-0.152031	-0.027622	0.999923	-0.004653	0.000387	-0.011487	
30409	    0	15.268757	-13.824305	1.397435	-0.019837	0.014687	-2.420103	0.151001	-0.140076	0.013977	0.999927	-0.000099	0.000073	-0.012100	
30410	    0	20.230609	-2.265746	3.945184	0.581190	0.110440	-2.905189	0.201969	-0.025707	0.039268	0.999889	0.002906	0.000552	-0.014525	
30411	    0	20.790433	8.128731	2.806425	0.622779	0.165566	-3.296053	0.209229	0.077759	0.028137	0.999859	0.003114	0.000828	-0.016479	
30412	    0	20.884737	6.526210	3.802825	-0.296034	0.335517	-3.228903	0.209929	0.061934	0.037583	0.999866	-0.001480	0.001678	-0.016144	
30413	    0	17.469471	0.983457	2.942229	-0.667409	0.321974	-3.053409	0.174866	0.007263	0.029114	0.999876	-0.003337	0.001610	-0.015266	
30414	    0	13.920522	3.320500	-3.141168	0.275050	0.133138	-2.993124	0.139661	0.031160	-0.031461	0.999887	0.001375	0.000666	-0.014965	
30415	    0	16.388540	7.690930	-1.075634	-0.148779	0.285542	-3.109868	0.165039	0.074341	-0.011047	0.999877	-0.000744	0.001428	-0.015549	
30416	    0	10.250967	-0.673664	0.345496	-0.583478	0.291072	-2.832703	0.102406	-0.008178	0.003328	0.999894	-0.002917	0.001455	-0.014163	
30417	    0	7.070303	-0.315393	-3.618598	-0.090602	0.199896	-2.601697	0.070618	-0.004089	-0.036255	0.999914	-0.000453	0.000999	-0.013008	
30418	    0	6.923816	4.451537	-5.569993	-0.290877	0.253493	-2.330643	0.069679	0.043624	-0.055852	0.999929	-0.001454	0.001267	-0.011653	
30419	    0	7.013816	3.751620	-5.003300	-0.524721	0.289922	-1.997412	0.070435	0.036682	-0.050232	0.999945	-0.002624	0.001450	-0.009987	
30420	    0	8.947653	1.957729	-3.418515	-0.646982	0.289349	-1.718546	0.089590	0.018697	-0.034376	0.999956	-0.003235	0.001447	-0.008593	
30421	    0	10.572982	1.029496	-1.972296	-0.648506	0.270274	-1.456467	0.105774	0.009460	-0.019897	0.999967	-0.003242	0.001351	-0.007282	
30422	    0	11.541813	1.058023	-0.351146	-0.512509	0.209619	-1.292621	0.115479	0.009825	-0.003658	0.999975	-0.002563	0.001048	-0.006463	
30423	    0	11.280248	-0.203950	0.600828	-0.340845	0.163270	-1.163490	0.112793	-0.002686	0.005920	0.999981	-0.001704	0.000816	-0.005817	
30424	    0	10.557233	-0.194359	0.283320	-0.148011	0.093270	-1.068120	0.105561	-0.002505	0.002786	0.999985	-0.000740	0.000466	-0.005341	
30425	    0	10.358760	1.089202	-0.949495	-0.028992	0.048256	-0.993351	0.103638	0.010376	-0.009521	0.999988	-0.000145	0.000241	-0.004967	
30426	    0	9.805324	1.221931	-2.435786	-0.045014	0.008011	-0.875285	0.098104	0.011785	-0.024364	0.999990	-0.000225	0.000040	-0.004376	
30427	    0	9.229618	1.366474	-3.301386	-0.154686	-0.009155	-0.722505	0.092346	0.013306	-0.033020	0.999992	-0.000773	-0.000046	-0.003613	
30428	    0	8.847481	1.491870	-3.242837	-0.278092	0.019264	-0.605775	0.088516	0.014606	-0.032457	0.999994	-0.001390	0.000096	-0.003029	
30429	    0	8.840948	1.436396	-2.767155	-0.312043	0.036812	-0.501252	0.088440	0.014099	-0.027710	0.999995	-0.001560	0.000184	-0.002506	
30430	    0	9.225234	1.523242	-2.344218	-0.274849	0.037956	-0.431061	0.092280	0.015001	-0.023480	0.999996	-0.001374	0.000190	-0.002155	
30431	    0	9.525683	1.150084	-2.127479	-0.266266	0.023842	-0.379944	0.095276	0.011292	-0.021301	0.999997	-0.001331	0.000119	-0.001900	
30432	    0	9.993648	0.851723	-2.270475	-0.335503	0.004959	-0.332070	0.099950	0.008313	-0.022721	0.999997	-0.001678	0.000025	-0.001660	
30433	    0	10.381434	0.403051	-1.867390	-0.389672	-0.009155	-0.286866	0.103821	0.003845	-0.018677	0.999996	-0.001948	-0.000046	-0.001434	
30434	    0	10.527418	0.250157	-1.616787	-0.365067	0.007629	-0.293732	0.105277	0.002317	-0.016176	0.999997	-0.001825	0.000038	-0.001469	
30435	    0	10.272244	0.055731	-1.293098	-0.252533	0.015450	-0.340271	0.102722	0.000366	-0.012939	0.999997	-0.001263	0.000077	-0.001701	
30436	    0	9.814244	0.118104	-1.334292	-0.087547	0.014496	-0.402832	0.098144	0.000978	-0.013350	0.999997	-0.000438	0.000072	-0.002014	
30437	    0	9.563474	0.382475	-1.378531	0.031281	0.019264	-0.472260	0.095642	0.003601	-0.013794	0.999997	0.000156	0.000096	-0.002361	
30438	    0	9.662705	0.845944	-1.919165	0.064659	0.045204	-0.546456	0.096645	0.008202	-0.019211	0.999996	0.000323	0.000226	-0.002732	
30439	    0	9.662689	-0.018784	-2.456956	-0.063324	0.057411	-0.605775	0.096619	-0.000488	-0.024597	0.999995	-0.000317	0.000287	-0.003029	
30440	    0	9.566918	-0.632010	-2.622732	-0.115395	0.069046	-0.695993	0.095637	-0.006668	-0.026257	0.999993	-0.000577	0.000345	-0.003480	
30441	    0	9.439377	-0.509966	-2.522722	-0.099945	0.093270	-0.807192	0.094360	-0.005493	-0.025269	0.999991	-0.000500	0.000466	-0.004036	
30442	    0	9.381094	-0.157601	-2.183400	-0.020218	0.117112	-0.962070	0.093789	-0.002029	-0.021889	0.999988	-0.000101	0.000586	-0.004810	
30443	    0	9.804042	-0.027324	-2.080506	0.049782	0.140382	-1.071935	0.098022	-0.000793	-0.020874	0.999985	0.000249	0.000702	-0.005360	
30444	    0	10.367873	0.505368	-2.174296	0.028610	0.168420	-1.156051	0.103687	0.004457	-0.021830	0.999983	0.000143	0.000842	-0.005780	
30445	    0	10.620315	1.299153	-2.053091	-0.115968	0.172616	-1.224526	0.106262	0.012329	-0.020630	0.999980	-0.000580	0.000863	-0.006123	
30446	    0	10.605234	0.189742	-1.844634	-0.300982	0.200273	-1.266870	0.106043	0.001198	-0.018555	0.999978	-0.001505	0.001001	-0.006334	
30447	    0	10.925312	0.376978	-1.810928	-0.422481	0.244143	-1.355755	0.109253	0.002991	-0.018250	0.999973	-0.002112	0.001221	-0.006779	
30448	    0	10.985730	-0.126270	-1.649915	-0.435261	0.284007	-1.465812	0.109820	-0.002104	-0.016651	0.999969	-0.002176	0.001420	-0.007329	
30449	    0	11.025332	0.110193	-1.838837	-0.386052	0.300029	-1.602192	0.110229	0.000183	-0.018555	0.999965	-0.001930	0.001500	-0.008011	
30450	    0	11.262478	0.177369	-1.785006	-0.395399	0.324444	-1.709961	0.112605	0.000775	-0.018035	0.999960	-0.001977	0.001622	-0.008550	
30451	    0	11.572022	-0.170854	-1.975256	-0.446136	0.365454	-1.823453	0.115662	-0.002808	-0.019958	0.999954	-0.002231	0.001827	-0.009117	
30452	    0	12.000383	0.175773	-2.226834	-0.488481	0.406273	-1.975476	0.119967	0.000518	-0.022514	0.999946	-0.002442	0.002031	-0.009877	
30453	    0	12.156749	-0.512325	-2.001805	-0.478182	0.428018	-2.137038	0.121460	-0.006470	-0.020264	0.999937	-0.002391	0.002140	-0.010685	
30454	    0	12.229325	-0.394488	-1.222766	-0.392351	0.478184	-2.318629	0.122207	-0.005386	-0.012510	0.999928	-0.001962	0.002391	-0.011593	
30455	    0	12.482751	-0.442052	-0.108256	-0.302895	0.528159	-2.498696	0.124756	-0.005981	-0.001404	0.999917	-0.001514	0.002641	-0.012493	
30456	    0	12.724808	-0.147204	0.566802	-0.150495	0.588245	-2.699366	0.127229	-0.003185	0.005296	0.999904	-0.000752	0.002941	-0.013496	
30457	    0	13.337738	-0.121421	0.624111	-0.041200	0.664735	-2.848918	0.133362	-0.003113	0.005798	0.999892	-0.000206	0.003324	-0.014244	
30458	    0	13.870770	0.185920	-0.340016	-0.090793	0.722532	-2.964326	0.138701	-0.000198	-0.003901	0.999883	-0.000454	0.003613	-0.014821	
30459	    0	14.144457	1.703558	-2.047783	-0.468464	0.766977	-3.045019	0.141602	0.014832	-0.021057	0.999873	-0.002342	0.003835	-0.015224	
30460	    0	15.006393	0.934500	-1.869245	-1.164493	0.878567	-3.080326	0.150099	0.006922	-0.019397	0.999854	-0.005822	0.004393	-0.015401	
30461	    0	15.758423	0.286094	-2.657730	-1.731780	0.961358	-3.102287	0.157471	0.000183	-0.027344	0.999830	-0.008658	0.004807	-0.015511	
30462	    0	17.614299	-1.467735	-2.786384	-2.514639	1.056938	-3.143919	0.175730	-0.017798	-0.028583	0.999783	-0.012572	0.005284	-0.015718	
30463	    0	19.882626	-4.702259	-2.369172	-3.313002	1.185913	-3.269510	0.197876	-0.050659	-0.024048	0.999711	-0.016563	0.005929	-0.016346	
30464	    0	22.257652	-8.418653	-2.705993	-3.475185	1.220263	-3.533747	0.220873	-0.088568	-0.026897	0.999674	-0.017374	0.006101	-0.017667	
30465	    0	24.326862	-10.821451	-4.266331	-2.814007	1.150058	-3.899781	0.240845	-0.113525	-0.042480	0.999694	-0.014069	0.005750	-0.019497	
30466	    0	25.099173	-9.857920	-4.236757	-1.968762	1.102743	-4.210109	0.248602	-0.104249	-0.042735	0.999714	-0.009843	0.005513	-0.021049	
30467	    0	24.244576	-7.182226	-5.450186	-1.452575	1.114753	-4.236979	0.240540	-0.077332	-0.055298	0.999733	-0.007262	0.005573	-0.021183	
30468	    0	22.781896	-8.453352	-7.686244	-0.757272	0.963852	-3.966807	0.225706	-0.089317	-0.077621	0.999784	-0.003786	0.004819	-0.019833	
30469	    0	18.049075	-8.075063	-7.826554	0.283067	0.665513	-3.663085	0.178711	-0.083923	-0.078979	0.999825	0.001415	0.003327	-0.018314	
30470	    0	13.732724	-4.722895	-6.108938	0.763358	0.620682	-3.286523	0.136338	-0.049240	-0.061699	0.999852	0.003817	0.003103	-0.016432	
30471	    0	13.163014	3.952579	-4.047954	0.667793	0.728640	-3.128955	0.132080	0.037598	-0.040833	0.999865	0.003339	0.003643	-0.015644	
30472	    0	10.522369	11.839969	-5.251739	-0.232705	0.575086	-2.882299	0.106763	0.116807	-0.052959	0.999891	-0.001163	0.002875	-0.014411	
30473	    0	11.420078	7.056056	-6.921573	-1.283103	0.496685	-1.890607	0.114685	0.069031	-0.069946	0.999931	-0.006415	0.002483	-0.009453	
30474	    0	6.684831	-4.456194	-5.375612	-1.649692	0.499161	-0.915160	0.066508	-0.045309	-0.053551	0.999952	-0.008248	0.002496	-0.004576	
30475	    0	5.405271	-7.656055	-3.166856	-1.373875	0.402836	-0.248720	0.053894	-0.076843	-0.031250	0.999973	-0.006869	0.002014	-0.001244	
30476	    0	3.459979	-6.222586	-1.551636	-1.055342	0.332643	0.205995	0.034638	-0.062271	-0.015245	0.999984	-0.005277	0.001663	0.001030	
30477	    0	2.347778	-4.501471	-1.152222	-0.881772	0.243379	0.696568	0.023621	-0.044983	-0.011353	0.999983	-0.004409	0.001217	0.003483	
30478	    0	1.656757	-3.976773	-1.531928	-0.638776	0.121499	1.158532	0.016788	-0.039720	-0.015203	0.999977	-0.003194	0.000607	0.005793	
30479	    0	1.398203	-3.720606	-1.785964	-0.205042	0.009918	1.621264	0.014282	-0.037109	-0.017822	0.999966	-0.001025	0.000050	0.008106	
30480	    0	1.442632	-3.353411	-1.680050	0.358397	-0.109102	2.073708	0.014782	-0.033352	-0.016852	0.999944	0.001792	-0.000546	0.010368	
30481	    0	1.704764	-2.675723	-1.236102	0.797295	-0.182920	2.528456	0.017395	-0.026489	-0.012451	0.999911	0.003986	-0.000915	0.012642	
30482	    0	2.016841	-2.489826	-1.029111	1.131105	-0.254451	2.963000	0.020547	-0.024537	-0.010405	0.999873	0.005655	-0.001272	0.014814	
30483	    0	2.447042	-2.461683	-1.268913	1.393969	-0.330944	3.383827	0.024902	-0.024109	-0.012817	0.999831	0.006969	-0.001655	0.016918	
30484	    0	2.831503	-2.344300	-1.931484	1.624795	-0.411826	3.773767	0.028789	-0.022745	-0.019443	0.999786	0.008123	-0.002059	0.018867	
30485	    0	3.215863	-2.417162	-2.641762	1.807751	-0.493665	4.166012	0.032715	-0.023254	-0.026550	0.999739	0.009038	-0.002468	0.020828	
30486	    0	3.986111	-2.273945	-2.982519	1.947031	-0.568258	4.534234	0.040443	-0.021536	-0.029924	0.999691	0.009734	-0.002841	0.022669	
30487	    0	5.012967	-1.601167	-3.175294	1.954118	-0.638465	4.900937	0.050598	-0.014465	-0.031738	0.999646	0.009769	-0.003192	0.024502	
30488	    0	6.030068	-0.839113	-3.194202	1.755368	-0.707527	5.228716	0.060600	-0.006530	-0.031791	0.999613	0.008776	-0.003537	0.026140	
30489	    0	6.969630	-0.330957	-3.511254	1.526286	-0.788991	5.568720	0.069885	-0.001099	-0.034851	0.999575	0.007630	-0.003944	0.027840	
30490	    0	8.272069	0.356178	-3.634885	1.216693	-0.902695	5.862750	0.082727	0.006207	-0.035943	0.999541	0.006083	-0.004513	0.029309	
30491	    0	9.622015	1.070903	-3.545430	0.826589	-1.018690	6.119010	0.096008	0.013794	-0.034912	0.999510	0.004132	-0.005093	0.030590	
30492	    0	10.895176	1.267900	-3.310855	0.422932	-1.144225	6.315557	0.108665	0.016183	-0.032454	0.999482	0.002114	-0.005720	0.031572	
30493	    0	12.200744	1.045066	-2.886014	0.136019	-1.272050	6.457159	0.121765	0.014404	-0.028076	0.999458	0.000680	-0.006359	0.032280	
30494	    0	14.065088	1.000990	-2.568522	0.013926	-1.407696	6.546099	0.140399	0.014610	-0.024695	0.999439	0.000070	-0.007037	0.032724	
30495	    0	15.988542	1.291169	-2.653320	0.005532	-1.583404	6.608327	0.159546	0.018188	-0.025269	0.999422	0.000028	-0.007915	0.033035	
30496	    0	18.130683	1.690720	-2.758227	0.027662	-1.759687	6.666169	0.180842	0.022944	-0.025987	0.999406	0.000138	-0.008797	0.033324	
30497	    0	20.223627	2.743332	-3.302964	0.081651	-1.932724	6.674774	0.201477	0.034180	-0.031067	0.999396	0.000408	-0.009662	0.033367	
30498	    0	22.000240	4.483660	-3.508744	0.071349	-2.117587	6.647886	0.218705	0.052134	-0.032749	0.999391	0.000357	-0.010586	0.033233	
30499	    0	23.034006	5.975127	-3.421981	0.145942	-2.283940	6.585501	0.228577	0.067322	-0.031555	0.999392	0.000730	-0.011417	0.032921	
30500	    0	23.370683	7.091167	-3.187495	0.363040	-2.424718	6.429033	0.231628	0.078435	-0.028920	0.999408	0.001815	-0.012121	0.032139	
30501	    0	23.995333	8.419255	-2.021217	0.750110	-2.493562	6.171808	0.237427	0.091614	-0.016907	0.999438	0.003750	-0.012465	0.030853	
30502	    0	25.011627	10.885184	3.672552	0.914340	-2.202773	5.763416	0.246417	0.115811	0.039972	0.999514	0.004571	-0.011012	0.028812	
30503	    0	23.898554	9.918029	8.591467	1.313196	-1.665531	5.284069	0.235535	0.104858	0.088562	0.999595	0.006565	-0.008327	0.026417	
30504	    0	20.322182	13.528265	0.215005	2.982343	-1.532757	4.525401	0.200058	0.139766	0.005754	0.999603	0.014910	-0.007663	0.022624	
30505	    0	17.249602	29.119022	-1.392174	2.665359	-1.375694	3.304565	0.167725	0.294128	-0.008850	0.999750	0.013326	-0.006878	0.016521	
30506	    0	11.224620	39.996750	4.064715	0.539407	-0.877394	1.633479	0.108792	0.400753	0.042210	0.999953	0.002697	-0.004387	0.008167	
30507	    0	10.970594	34.600115	6.420876	-0.720789	-0.271607	-0.070191	0.109741	0.346191	0.063110	0.999992	-0.003604	-0.001358	-0.000351	
30508	    0	17.240824	20.517109	7.938095	-0.293926	0.233081	-1.665899	0.174202	0.203841	0.078878	0.999963	-0.001470	0.001165	-0.008329	
30509	    0	17.591393	17.947422	5.315017	1.300863	0.463313	-2.734482	0.178467	0.176697	0.053894	0.999883	0.006504	0.002316	-0.013672	
30510	    0	10.618233	21.201942	-4.659437	1.964886	0.414875	-3.373172	0.109649	0.210635	-0.044745	0.999807	0.009824	0.002074	-0.016865	
30511	    0	13.850779	-1.979843	-13.235924	0.084117	0.201423	-2.961840	0.138062	-0.021790	-0.132507	0.999889	0.000421	0.001007	-0.014809	
30512	    0	15.041502	-25.826349	-2.985306	-0.518049	0.047113	-2.402175	0.147291	-0.260121	-0.029216	0.999924	-0.002590	0.000236	-0.012011	
30513	    0	13.343767	-10.866370	1.776705	1.038397	-0.023461	-2.688692	0.131958	-0.110535	0.017212	0.999896	0.005192	-0.000117	-0.013443	
30514	    0	17.324279	4.539399	1.506407	1.409216	0.025941	-3.055335	0.173910	0.042633	0.015348	0.999858	0.007046	0.000130	-0.015276	
30515	    0	19.187765	7.963042	1.621224	0.984432	0.181589	-3.315138	0.193176	0.076355	0.016418	0.999849	0.004922	0.000908	-0.016575	
30516	    0	19.256043	5.706781	2.011785	0.164421	0.299658	-3.220508	0.193476	0.053941	0.019874	0.999868	0.000822	0.001498	-0.016102	
30517	    0	17.457866	3.509233	1.441164	-0.254832	0.239000	-3.087740	0.175110	0.032410	0.014160	0.999879	-0.001274	0.001195	-0.015438	
30518	    0	15.860725	6.556546	-2.783627	0.344862	0.070956	-3.039288	0.159570	0.063193	-0.027782	0.999883	0.001724	0.000355	-0.015196	
30519	    0	18.760487	7.948565	2.060355	-0.549340	0.264179	-3.122843	0.188843	0.076599	0.020142	0.999873	-0.002747	0.001321	-0.015614	
30520	    0	10.811194	-1.368143	2.752132	-0.689340	0.180251	-2.798178	0.107932	-0.015098	0.027474	0.999895	-0.003447	0.000901	-0.013990	
30521	    0	7.638299	0.874604	-2.407367	-0.039674	0.087931	-2.589489	0.076477	0.007751	-0.024109	0.999915	-0.000198	0.000440	-0.012947	
30522	    0	6.761780	4.587797	-4.556712	-0.149539	0.109103	-2.278759	0.068110	0.045070	-0.045638	0.999934	-0.000748	0.000546	-0.011394	
30523	    0	6.941636	3.260266	-4.397790	-0.310521	0.113871	-1.936371	0.069702	0.031860	-0.044067	0.999951	-0.001553	0.000569	-0.009682	
30524	    0	9.345661	2.282820	-3.036207	-0.513655	0.104142	-1.620884	0.093621	0.021992	-0.030468	0.999963	-0.002568	0.000521	-0.008104	
30525	    0	10.754629	1.969602	-2.151464	-0.627714	0.058747	-1.314556	0.107666	0.018921	-0.021606	0.999973	-0.003139	0.000294	-0.006573	
30526	    0	11.651891	1.760735	-1.033486	-0.574307	0.008965	-1.129539	0.116615	0.016919	-0.010389	0.999979	-0.002872	0.000045	-0.005648	
30527	    0	11.205415	0.163818	-0.202770	-0.473788	-0.029564	-0.954442	0.112061	0.001099	-0.002014	0.999986	-0.002369	-0.000148	-0.004772	
30528	    0	10.593726	0.197968	-0.408327	-0.288201	-0.056076	-0.860026	0.105946	0.001518	-0.004056	0.999990	-0.001441	-0.000280	-0.004300	
30529	    0	10.506150	0.878593	-1.354111	-0.124359	-0.109673	-0.791170	0.105103	0.008362	-0.013489	0.999991	-0.000622	-0.000548	-0.003956	
30530	    0	10.201736	0.530156	-2.414847	-0.148011	-0.114823	-0.699808	0.102049	0.004927	-0.024094	0.999993	-0.000740	-0.000574	-0.003499	
30531	    0	9.645731	0.880422	-2.768642	-0.309563	-0.105286	-0.575257	0.096497	0.008484	-0.027649	0.999994	-0.001548	-0.000526	-0.002876	
30532	    0	9.231478	2.178248	-2.784783	-0.464059	-0.072479	-0.489045	0.092378	0.021492	-0.027864	0.999993	-0.002320	-0.000362	-0.002445	
30533	    0	9.182122	1.576009	-2.579311	-0.559236	-0.041008	-0.402833	0.091858	0.015503	-0.025818	0.999993	-0.002796	-0.000205	-0.002014	
30534	    0	9.132657	0.513994	-2.613512	-0.533486	-0.028420	-0.354005	0.091339	0.004909	-0.026135	0.999994	-0.002667	-0.000142	-0.001770	
30535	    0	9.604994	0.878140	-2.947400	-0.555230	-0.037384	-0.321961	0.096069	0.008545	-0.029480	0.999994	-0.002776	-0.000187	-0.001610	
30536	    0	10.002811	-0.083302	-2.661026	-0.637246	-0.024033	-0.277711	0.100030	-0.001057	-0.026595	0.999993	-0.003186	-0.000120	-0.001389	
30537	    0	10.571296	0.022292	-2.099494	-0.659944	0.001717	-0.290681	0.105713	0.000000	-0.020996	0.999993	-0.003300	0.000009	-0.001453	
30538	    0	10.273411	-0.215202	-1.325621	-0.561715	0.021553	-0.334931	0.102729	-0.002361	-0.013261	0.999994	-0.002809	0.000108	-0.001675	
30539	    0	9.973606	-0.130250	-1.268462	-0.426484	0.027657	-0.393677	0.099731	-0.001526	-0.012695	0.999995	-0.002132	0.000138	-0.001968	
30540	    0	9.759502	0.124214	-1.264567	-0.306893	0.037766	-0.482941	0.097595	0.000987	-0.012666	0.999995	-0.001534	0.000189	-0.002415	
30541	    0	9.827998	-0.269342	-1.632960	-0.234223	0.063515	-0.566102	0.098267	-0.002991	-0.016357	0.999995	-0.001171	0.000318	-0.002831	
30542	    0	9.775876	-0.205039	-1.956398	-0.253678	0.075531	-0.647737	0.097744	-0.002392	-0.019598	0.999993	-0.001268	0.000378	-0.003239	
30543	    0	9.371558	-0.432521	-2.377091	-0.206566	0.080109	-0.746920	0.093689	-0.004700	-0.023804	0.999992	-0.001033	0.000401	-0.003735	
30544	    0	9.189106	-0.458688	-2.607867	-0.109291	0.100327	-0.864413	0.091857	-0.004998	-0.026122	0.999990	-0.000546	0.000502	-0.004322	
30545	    0	9.607337	0.211620	-2.534206	-0.051117	0.100136	-0.961307	0.096069	0.001648	-0.025391	0.999988	-0.000256	0.000501	-0.004807	
30546	    0	10.235016	0.713531	-1.809311	-0.116540	0.092888	-1.009564	0.102376	0.006608	-0.018145	0.999987	-0.000583	0.000464	-0.005048	
30547	    0	10.600682	1.593878	-1.433342	-0.264741	0.094796	-1.016240	0.106079	0.015381	-0.014404	0.999986	-0.001324	0.000474	-0.005081	
30548	    0	10.551360	1.925361	-1.304744	-0.499919	0.119782	-1.012617	0.105601	0.018686	-0.013158	0.999984	-0.002500	0.000599	-0.005063	
30549	    0	10.678585	0.719080	-1.326726	-0.624661	0.146485	-1.043708	0.106812	0.006592	-0.013367	0.999981	-0.003123	0.000732	-0.005219	
30550	    0	10.816597	0.216617	-1.316124	-0.633626	0.179292	-1.122292	0.108164	0.001517	-0.013264	0.999978	-0.003168	0.000896	-0.005611	
30551	    0	11.084557	0.164024	-1.282526	-0.589566	0.199892	-1.239024	0.110840	0.000916	-0.012939	0.999975	-0.002948	0.000999	-0.006195	
30552	    0	11.348911	0.171877	-1.130069	-0.574689	0.223162	-1.342786	0.113484	0.000924	-0.011431	0.999972	-0.002873	0.001116	-0.006714	
30553	    0	11.506826	0.068717	-1.395340	-0.617224	0.252726	-1.437393	0.115051	-0.000183	-0.014099	0.999969	-0.003086	0.001264	-0.007187	
30554	    0	11.389296	0.184802	-1.790934	-0.645646	0.300793	-1.573964	0.113875	0.000894	-0.018085	0.999962	-0.003228	0.001504	-0.007870	
30555	    0	11.336200	-0.449626	-1.965202	-0.671206	0.356298	-1.750210	0.113281	-0.005554	-0.019836	0.999954	-0.003356	0.001781	-0.008751	
30556	    0	11.365623	-1.434243	-2.143371	-0.563250	0.402839	-1.950871	0.113465	-0.015511	-0.021620	0.999946	-0.002816	0.002014	-0.009754	
30557	    0	11.755820	-0.783929	-1.478728	-0.459109	0.421152	-2.182054	0.117432	-0.009155	-0.015015	0.999935	-0.002295	0.002106	-0.010910	
30558	    0	12.318348	-1.010886	-0.385458	-0.326165	0.460445	-2.381956	0.123042	-0.011581	-0.004120	0.999925	-0.001631	0.002302	-0.011909	
30559	    0	12.912317	-0.299227	0.740942	-0.151639	0.514999	-2.558972	0.129089	-0.004639	0.007080	0.999914	-0.000758	0.002575	-0.012794	
30560	    0	13.382785	-0.657854	1.039873	-0.038911	0.582332	-2.688874	0.133753	-0.008375	0.010011	0.999905	-0.000195	0.002912	-0.013444	
30561	    0	13.462382	-0.593178	-0.029668	0.026895	0.646232	-2.795506	0.134521	-0.007812	-0.000732	0.999897	0.000134	0.003231	-0.013977	
30562	    0	13.510590	0.935494	-1.171755	-0.106243	0.692584	-2.916445	0.135181	0.007378	-0.012190	0.999887	-0.000531	0.003463	-0.014582	
30563	    0	14.248109	0.591567	-0.775254	-0.585198	0.750953	-2.958035	0.142517	0.003784	-0.008301	0.999879	-0.002926	0.003755	-0.014790	
30564	    0	14.721349	-0.443023	-1.050818	-1.057482	0.841751	-3.000013	0.147079	-0.006695	-0.011096	0.999865	-0.005287	0.004209	-0.014999	
30565	    0	15.738829	0.034500	-1.730716	-1.572310	0.901079	-3.054207	0.157288	-0.002197	-0.018005	0.999842	-0.007861	0.004505	-0.015270	
30566	    0	17.192900	-1.108838	-1.768142	-2.370039	0.984067	-3.069129	0.171640	-0.013939	-0.018373	0.999800	-0.011849	0.004920	-0.015345	
30567	    0	19.580331	-5.456202	-2.353794	-2.868888	1.046267	-3.221395	0.194763	-0.058044	-0.023743	0.999753	-0.014343	0.005231	-0.016106	
30568	    0	21.659127	-8.932928	-4.051989	-2.588301	1.025859	-3.546252	0.214748	-0.093672	-0.040431	0.999745	-0.012940	0.005129	-0.017730	
30569	    0	22.693002	-10.993715	-5.378787	-1.811173	0.895763	-3.890540	0.224487	-0.114807	-0.053772	0.999760	-0.009055	0.004478	-0.019451	
30570	    0	22.809383	-7.782347	-6.157182	-1.321706	0.761665	-4.083003	0.226201	-0.082863	-0.061899	0.999762	-0.006608	0.003808	-0.020413	
30571	    0	21.357120	-6.516617	-5.560418	-1.016309	0.612113	-4.001145	0.212036	-0.069702	-0.055908	0.999782	-0.005081	0.003060	-0.020004	
30572	    0	18.145753	-5.446430	-5.574918	-0.974332	0.643006	-3.619412	0.180249	-0.058006	-0.056053	0.999819	-0.004871	0.003215	-0.018096	
30573	    0	16.252848	-5.767004	-5.931889	-0.685915	0.638801	-3.228912	0.161377	-0.060486	-0.059631	0.999858	-0.003429	0.003194	-0.016144	
30574	    0	14.983310	-0.638672	-3.740890	-0.212870	0.563074	-3.214979	0.149598	-0.008833	-0.037822	0.999866	-0.001064	0.002815	-0.016074	
30575	    0	12.512089	7.908760	-5.188740	-0.143249	0.481437	-3.312075	0.126282	0.076965	-0.052246	0.999859	-0.000716	0.002407	-0.016560	
30576	    0	14.123589	12.010956	-9.824071	-1.414544	0.397316	-2.643114	0.142604	0.117531	-0.099360	0.999886	-0.007072	0.001987	-0.013215	
30577	    0	11.296585	-2.153975	-7.531188	-2.078878	0.318918	-1.544996	0.112671	-0.023193	-0.075256	0.999914	-0.010394	0.001595	-0.007725	
30578	    0	7.781015	-7.354559	-4.198920	-1.949728	0.238042	-0.801292	0.077464	-0.074262	-0.041360	0.999944	-0.009748	0.001190	-0.004006	
30579	    0	5.885262	-6.407612	-1.769201	-1.626606	0.144388	-0.386815	0.058716	-0.064331	-0.017212	0.999965	-0.008133	0.000722	-0.001934	
30580	    0	4.343714	-4.140502	-0.830268	-1.514640	0.053025	0.051117	0.043446	-0.041455	-0.008000	0.999970	-0.007573	0.000265	0.000256	
30581	    0	3.114420	-3.919721	-0.963585	-1.488510	-0.037194	0.531011	0.031250	-0.039185	-0.009338	0.999969	-0.007442	-0.000186	0.002655	
30582	    0	2.165233	-4.090134	-1.399831	-1.195157	-0.123597	1.030742	0.021872	-0.040872	-0.013741	0.999969	-0.005976	-0.000618	0.005154	
30583	    0	1.767676	-4.276294	-1.083382	-0.627906	-0.208094	1.486985	0.018005	-0.042664	-0.010681	0.999967	-0.003139	-0.001040	0.007435	
30584	    0	1.728748	-4.081570	-0.537052	0.079156	-0.318151	1.967463	0.017696	-0.040641	-0.005359	0.999949	0.000396	-0.001591	0.009837	
30585	    0	1.976856	-3.571029	-0.175410	0.672359	-0.424206	2.420872	0.020203	-0.035461	-0.001831	0.999918	0.003362	-0.002121	0.012104	
30586	    0	2.279127	-3.250773	-0.390110	1.198054	-0.498029	2.837868	0.023259	-0.032156	-0.004037	0.999878	0.005990	-0.002490	0.014189	
30587	    0	2.525948	-2.948409	-0.953584	1.666353	-0.579676	3.219785	0.025757	-0.028992	-0.009705	0.999831	0.008331	-0.002898	0.016098	
30588	    0	2.797355	-2.667777	-1.678753	1.990081	-0.643968	3.611254	0.028502	-0.025998	-0.016957	0.999782	0.009950	-0.003220	0.018055	
30589	    0	3.235968	-2.383954	-2.115612	2.220352	-0.690331	3.999685	0.032898	-0.022949	-0.021301	0.999732	0.011101	-0.003451	0.019997	
30590	    0	3.921329	-1.874083	-2.438245	2.314047	-0.728111	4.389078	0.039697	-0.017591	-0.024446	0.999685	0.011569	-0.003640	0.021943	
30591	    0	4.737156	-1.168297	-2.722345	2.183787	-0.755970	4.755956	0.047729	-0.010254	-0.027161	0.999650	0.010918	-0.003779	0.023777	
30592	    0	5.657714	-0.384739	-2.955441	1.890230	-0.806529	5.101465	0.056765	-0.002123	-0.029351	0.999621	0.009450	-0.004032	0.025504	
30593	    0	6.514277	-0.029422	-3.062547	1.505675	-0.868343	5.440498	0.065247	0.001709	-0.030334	0.999592	0.007527	-0.004341	0.027199	
30594	    0	7.764681	0.396502	-2.866661	1.111765	-0.942749	5.733563	0.077621	0.006349	-0.028270	0.999562	0.005558	-0.004713	0.028664	
30595	    0	9.153394	0.804226	-2.595838	0.687515	-1.033753	5.980086	0.091370	0.010864	-0.025452	0.999534	0.003437	-0.005168	0.029896	
30596	    0	10.538388	0.903936	-2.132358	0.318198	-1.108543	6.190369	0.105152	0.012330	-0.020722	0.999504	0.001591	-0.005542	0.030947	
30597	    0	12.050714	0.893012	-1.671174	0.058184	-1.191919	6.351050	0.120239	0.012756	-0.015991	0.999477	0.000291	-0.005959	0.031750	
30598	    0	13.772696	1.149166	-1.565214	-0.015071	-1.290939	6.499526	0.137354	0.015959	-0.014766	0.999451	-0.000075	-0.006454	0.032492	
30599	    0	15.652745	1.779576	-1.763165	-0.031859	-1.401786	6.603732	0.155945	0.022949	-0.016541	0.999430	-0.000159	-0.007008	0.033012	
30600	    0	17.496421	2.550449	-2.274728	0.030714	-1.542199	6.636759	0.174158	0.031297	-0.021398	0.999419	0.000154	-0.007710	0.033177	
30601	    0	19.319084	3.940140	-3.254873	0.110648	-1.705310	6.607575	0.192017	0.045776	-0.030884	0.999417	0.000553	-0.008525	0.033031	
30602	    0	20.718557	5.206676	-3.989035	0.148039	-1.876815	6.574577	0.205687	0.058874	-0.037913	0.999415	0.000740	-0.009382	0.032866	
30603	    0	21.785918	6.436433	-4.606013	0.230643	-2.047365	6.512954	0.216064	0.071472	-0.043762	0.999416	0.001153	-0.010235	0.032558	
30604	    0	22.637817	7.867541	-4.654231	0.350447	-2.238892	6.378820	0.224216	0.085929	-0.043878	0.999427	0.001752	-0.011192	0.031888	
30605	    0	24.138600	9.284307	-4.452281	0.567731	-2.439375	6.155002	0.238892	0.100342	-0.041321	0.999448	0.002838	-0.012195	0.030769	
30606	    0	24.698463	12.569087	1.324538	0.850429	-2.371587	5.587880	0.243162	0.132455	0.016698	0.999530	0.004251	-0.011856	0.027935	
30607	    0	24.485527	14.686483	11.162251	0.375407	-1.592238	4.858167	0.240295	0.152527	0.113831	0.999671	0.001877	-0.007960	0.024288	
30608	    0	18.722012	13.593974	2.573534	2.165436	-1.376288	4.143362	0.184165	0.139478	0.028507	0.999702	0.010826	-0.006881	0.020715	
30609	    0	17.609569	25.459759	-3.357856	2.287444	-1.270188	3.014574	0.172424	0.257568	-0.029541	0.999801	0.011436	-0.006351	0.015072	
30610	    0	12.028762	33.114526	0.892434	0.996608	-0.954264	1.617081	0.117556	0.332051	0.011143	0.999943	0.004983	-0.004771	0.008085	
30611	    0	12.884378	31.827918	4.017498	0.220681	-0.571443	0.194550	0.128418	0.318359	0.040894	0.999994	0.001103	-0.002857	0.000973	
30612	    0	17.812544	22.368839	7.116649	0.368121	-0.168802	-1.284990	0.179497	0.222406	0.071728	0.999977	0.001841	-0.000844	-0.006425	
30613	    0	18.276302	17.196016	4.008768	1.751207	0.013733	-2.551371	0.184937	0.169250	0.041565	0.999880	0.008756	0.000069	-0.012756	
30614	    0	12.340262	16.914504	-5.654722	2.457602	-0.008393	-3.309103	0.126188	0.167750	-0.054475	0.999787	0.012287	-0.000042	-0.016544	
30615	    0	17.340734	-10.938392	-2.495571	0.401319	0.104717	-2.739040	0.171875	-0.111694	-0.025269	0.999904	0.002007	0.000524	-0.013695	
30616	    0	14.594311	-22.894697	5.227208	1.114881	-0.028230	-2.558219	0.142989	-0.231075	0.051008	0.999902	0.005574	-0.000141	-0.012791	
30617	    0	16.558041	-4.154673	7.016957	1.988523	0.039675	-3.098472	0.164917	-0.044800	0.069702	0.999830	0.009942	0.000198	-0.015491	
30618	    0	19.473484	9.673900	6.402053	1.557445	0.166522	-3.490279	0.196431	0.092819	0.064590	0.999817	0.007787	0.000833	-0.017450	
30619	    0	18.884503	8.144487	4.017357	0.463318	0.270857	-3.400589	0.190247	0.078125	0.040100	0.999851	0.002316	0.001354	-0.017002	
30620	    0	17.659246	2.766421	-0.411752	0.350968	0.212297	-3.235960	0.177005	0.024810	-0.004260	0.999866	0.001755	0.001061	-0.016179	
30621	    0	14.870889	7.157232	-7.643459	1.230685	0.063518	-3.293016	0.149841	0.069580	-0.076050	0.999845	0.006153	0.000318	-0.016464	
30622	    0	15.753854	8.183008	-3.826740	0.495170	0.241863	-3.277166	0.158806	0.079329	-0.038260	0.999862	0.002476	0.001209	-0.016385	
30623	    0	11.057566	0.602956	0.448435	-0.141149	0.266467	-3.071716	0.110657	0.004333	0.004333	0.999881	-0.000706	0.001332	-0.015358	
30624	    0	6.784431	-0.477325	-3.456469	0.264177	0.143056	-2.833271	0.067743	-0.005688	-0.034620	0.999898	0.001321	0.000715	-0.014166	
30625	    0	7.655280	4.243205	-4.787103	-0.072481	0.227553	-2.528449	0.077026	0.041443	-0.047974	0.999919	-0.000362	0.001138	-0.012642	
30626	    0	7.489032	2.821274	-3.317240	-0.432405	0.230222	-2.182052	0.075153	0.027322	-0.033319	0.999937	-0.002162	0.001151	-0.010910	
30627	    0	8.485570	-0.020410	-1.238721	-0.287442	0.153353	-1.922638	0.084839	-0.001038	-0.012451	0.999952	-0.001437	0.000767	-0.009613	
30628	    0	10.174453	0.801341	0.102064	-0.011253	0.104524	-1.708433	0.101809	0.007144	0.000967	0.999963	-0.000056	0.000523	-0.008542	
30629	    0	11.050602	1.237423	0.659306	0.194551	0.023079	-1.505294	0.110596	0.011536	0.006592	0.999970	0.000973	0.000115	-0.007526	
30630	    0	11.054579	0.632392	1.358749	0.469784	-0.045205	-1.367199	0.110582	0.005536	0.013626	0.999973	0.002349	-0.000226	-0.006836	
30631	    0	10.812131	1.590272	-0.383871	0.427440	-0.039673	-1.205453	0.108215	0.015259	-0.003784	0.999979	0.002137	-0.000198	-0.006027	
30632	    0	10.365276	2.024286	-2.250230	0.139809	-0.051117	-1.056676	0.103764	0.019711	-0.022462	0.999986	0.000699	-0.000256	-0.005283	
30633	    0	9.988134	1.958007	-3.070881	-0.153161	-0.045777	-0.905612	0.099976	0.019104	-0.030701	0.999989	-0.000766	-0.000229	-0.004528	
30634	    0	9.642904	1.423398	-2.764378	-0.447466	-0.004578	-0.782016	0.096484	0.013795	-0.027673	0.999990	-0.002237	-0.000023	-0.003910	
30635	    0	9.656477	1.613323	-2.021796	-0.520136	0.009155	-0.690462	0.096619	0.015747	-0.020264	0.999990	-0.002601	0.000046	-0.003452	
30636	    0	9.941852	1.399410	-1.622869	-0.486184	0.036240	-0.612642	0.099458	0.013650	-0.016280	0.999991	-0.002431	0.000181	-0.003063	
30637	    0	10.074867	0.884124	-1.516426	-0.434876	0.029182	-0.522615	0.100769	0.008545	-0.015198	0.999993	-0.002174	0.000146	-0.002613	
30638	    0	10.247113	1.052453	-1.863537	-0.452233	0.012779	-0.432778	0.102492	0.010261	-0.018665	0.999994	-0.002261	0.000064	-0.002164	
30639	    0	10.641823	1.478510	-2.107561	-0.608827	-0.003624	-0.365449	0.106445	0.014526	-0.021118	0.999993	-0.003044	-0.000018	-0.001827	
30640	    0	10.853466	0.904726	-1.755793	-0.790026	-0.002861	-0.319673	0.108549	0.008804	-0.017591	0.999990	-0.003950	-0.000014	-0.001598	
30641	    0	10.974107	0.033484	-1.208280	-0.826266	0.002480	-0.296784	0.109741	0.000122	-0.012085	0.999990	-0.004131	0.000012	-0.001484	
30642	    0	10.740233	0.453486	-1.007296	-0.733568	0.012207	-0.354005	0.107409	0.004308	-0.010096	0.999991	-0.003668	0.000061	-0.001770	
30643	    0	10.540978	-0.041915	-0.951413	-0.678255	0.017738	-0.417329	0.105408	-0.000671	-0.009521	0.999991	-0.003391	0.000089	-0.002087	
30644	    0	10.216139	-0.665598	-1.194125	-0.558854	0.021935	-0.490571	0.102143	-0.006940	-0.011933	0.999992	-0.002794	0.000110	-0.002453	
30645	    0	9.858052	-0.156764	-1.401793	-0.438500	0.048828	-0.595857	0.098572	-0.001892	-0.014038	0.999992	-0.002192	0.000244	-0.002979	
30646	    0	9.149403	0.171379	-1.804748	-0.342942	0.062943	-0.714113	0.091494	0.001356	-0.018079	0.999991	-0.001715	0.000315	-0.003571	
30647	    0	8.802902	-0.155244	-2.304058	-0.213624	0.074196	-0.854495	0.088013	-0.001953	-0.023071	0.999990	-0.001068	0.000371	-0.004272	
30648	    0	8.769021	-0.491282	-2.732232	-0.172234	0.080872	-0.961308	0.087654	-0.005358	-0.027353	0.999988	-0.000861	0.000404	-0.004807	
30649	    0	9.404008	0.540674	-2.687077	-0.262262	0.083161	-1.039129	0.094055	0.004883	-0.026917	0.999985	-0.001311	0.000416	-0.005196	
30650	    0	10.037925	1.574758	-2.268188	-0.509837	0.091744	-1.089675	0.100452	0.015142	-0.022767	0.999981	-0.002549	0.000459	-0.005448	
30651	    0	10.522442	1.321408	-1.723289	-0.700383	0.107003	-1.102455	0.105286	0.012573	-0.017334	0.999978	-0.003502	0.000535	-0.005512	
30652	    0	10.679488	1.432196	-1.340575	-0.800711	0.124551	-1.130113	0.106865	0.013664	-0.013528	0.999975	-0.004004	0.000623	-0.005651	
30653	    0	10.729494	1.257762	-0.903221	-0.820739	0.136567	-1.189433	0.107361	0.011902	-0.009155	0.999973	-0.004104	0.000683	-0.005947	
30654	    0	10.898739	0.653207	-0.769529	-0.755698	0.159074	-1.257336	0.109019	0.005817	-0.007805	0.999972	-0.003778	0.000795	-0.006287	
30655	    0	11.099748	0.577229	-1.013548	-0.746925	0.177957	-1.313794	0.111023	0.005005	-0.010254	0.999970	-0.003735	0.000890	-0.006569	
30656	    0	11.104968	0.781425	-1.316705	-0.803575	0.198748	-1.385704	0.111087	0.006991	-0.013307	0.999967	-0.004018	0.000994	-0.006928	
30657	    0	11.115214	0.997784	-1.350286	-0.842296	0.232890	-1.486224	0.111206	0.009094	-0.013672	0.999963	-0.004211	0.001164	-0.007431	
30658	    0	11.138494	0.114183	-1.338286	-0.798427	0.280766	-1.626610	0.111370	0.000182	-0.013541	0.999957	-0.003992	0.001404	-0.008133	
30659	    0	11.361031	-0.606730	-1.417814	-0.690471	0.332075	-1.804381	0.113525	-0.007141	-0.014343	0.999951	-0.003452	0.001660	-0.009022	
30660	    0	11.696238	-1.216567	-1.028525	-0.590336	0.356300	-2.035562	0.116812	-0.013386	-0.010455	0.999942	-0.002952	0.001781	-0.010178	
30661	    0	12.128879	-1.157285	0.411230	-0.424776	0.383767	-2.269034	0.121155	-0.012939	0.003906	0.999931	-0.002124	0.001919	-0.011345	
30662	    0	12.827077	-1.198620	1.700671	-0.180822	0.460065	-2.516816	0.128145	-0.013584	0.016724	0.999917	-0.000904	0.002300	-0.012584	
30663	    0	13.367749	-1.222243	1.795546	0.084689	0.556391	-2.706995	0.133545	-0.014038	0.017578	0.999904	0.000423	0.002782	-0.013535	
30664	    0	14.138221	-0.602750	0.601150	0.218209	0.635743	-2.889739	0.141294	-0.008076	0.005554	0.999889	0.001091	0.003179	-0.014448	
30665	    0	14.502312	-1.253942	-1.066638	0.142675	0.680760	-3.006864	0.144775	-0.014709	-0.011169	0.999881	0.000713	0.003404	-0.015034	
30666	    0	15.236639	-0.075625	-2.357672	-0.158698	0.695068	-3.122463	0.152246	-0.003153	-0.024104	0.999871	-0.000793	0.003475	-0.015612	
30667	    0	15.468553	-0.214921	-2.283664	-0.755918	0.717197	-3.186184	0.154541	-0.004700	-0.023376	0.999859	-0.003779	0.003586	-0.015930	
30668	    0	16.268491	-1.520677	-2.268447	-1.368023	0.736085	-3.217678	0.162326	-0.017978	-0.023166	0.999840	-0.006840	0.003680	-0.016088	
30669	    0	17.586042	-0.462801	-2.294279	-2.078192	0.781301	-3.278565	0.175659	-0.007751	-0.023560	0.999804	-0.010390	0.003906	-0.016392	
30670	    0	20.660561	-5.128257	-2.670304	-2.722012	0.851892	-3.423211	0.205569	-0.055172	-0.026847	0.999751	-0.013609	0.004259	-0.017115	
30671	    0	21.928894	-9.348166	-4.143399	-2.598798	0.822711	-3.674637	0.217346	-0.098022	-0.041077	0.999738	-0.012993	0.004113	-0.018372	
30672	    0	22.849479	-9.707064	-5.412851	-2.000979	0.750987	-3.978877	0.226294	-0.102128	-0.053976	0.999744	-0.010004	0.003755	-0.019893	
30673	    0	23.415174	-6.011565	-6.729626	-1.429868	0.622038	-4.197281	0.232605	-0.065491	-0.067566	0.999749	-0.007149	0.003110	-0.020985	
30674	    0	21.915670	-6.073609	-6.163611	-1.305680	0.532000	-4.039310	0.217701	-0.065546	-0.061799	0.999771	-0.006528	0.002660	-0.020195	
30675	    0	18.824437	-6.787806	-6.047315	-1.175568	0.585209	-3.522699	0.186829	-0.071533	-0.060608	0.999823	-0.005877	0.002926	-0.017612	
30676	    0	16.342442	-5.414074	-6.000496	-0.766407	0.565172	-3.115983	0.162382	-0.056907	-0.060250	0.999866	-0.003832	0.002826	-0.015579	
30677	    0	14.155204	1.963974	-4.480153	-0.161750	0.493833	-3.117500	0.141724	0.017395	-0.045166	0.999875	-0.000809	0.002469	-0.015587	
30678	    0	10.341399	10.518295	-6.128645	-0.428981	0.461408	-3.177782	0.104924	0.103392	-0.061750	0.999868	-0.002145	0.002307	-0.015888	
30679	    0	14.772848	6.677784	-8.550785	-1.639609	0.435080	-2.186654	0.148254	0.064453	-0.086365	0.999904	-0.008198	0.002175	-0.010933	
30680	    0	8.199918	-5.689964	-6.029094	-1.829756	0.300604	-1.168465	0.081573	-0.057926	-0.059887	0.999940	-0.009149	0.001503	-0.005842	
30681	    0	6.491882	-7.302921	-2.841609	-1.600475	0.196078	-0.529486	0.064697	-0.073425	-0.027893	0.999964	-0.008002	0.000980	-0.002647	
30682	    0	4.529002	-5.010208	-0.829930	-1.357661	0.099183	-0.086785	0.045264	-0.050177	-0.007981	0.999976	-0.006788	0.000496	-0.000434	
30683	    0	3.411222	-3.405669	-1.071901	-1.284609	-0.012970	0.392154	0.034180	-0.034058	-0.010498	0.999977	-0.006423	-0.000065	0.001961	
30684	    0	2.502614	-3.441847	-1.825225	-1.237691	-0.110246	0.901803	0.025191	-0.034417	-0.018025	0.999970	-0.006188	-0.000551	0.004509	
30685	    0	1.782367	-4.050799	-2.002681	-0.845156	-0.214388	1.395432	0.018127	-0.040466	-0.019836	0.999966	-0.004226	-0.001072	0.006977	
30686	    0	1.497514	-4.161905	-1.350925	-0.184062	-0.330167	1.860456	0.015384	-0.041490	-0.013446	0.999954	-0.000920	-0.001651	0.009302	
30687	    0	1.549389	-3.639409	-0.684254	0.499738	-0.458347	2.319392	0.015930	-0.036194	-0.006897	0.999927	0.002499	-0.002292	0.011597	
30688	    0	1.916839	-3.028263	-0.692266	1.050225	-0.583861	2.746113	0.019602	-0.029979	-0.007024	0.999887	0.005251	-0.002919	0.013730	
30689	    0	2.188293	-2.686090	-1.098358	1.510890	-0.684393	3.146528	0.022339	-0.026428	-0.011108	0.999842	0.007554	-0.003422	0.015732	
30690	    0	2.536717	-2.611760	-1.712632	1.809626	-0.772720	3.544859	0.025889	-0.025506	-0.017260	0.999794	0.009048	-0.003863	0.017723	
30691	    0	2.877413	-2.610045	-1.914684	2.056487	-0.842357	3.929472	0.029358	-0.025330	-0.019287	0.999744	0.010282	-0.004211	0.019646	
30692	    0	3.543575	-2.257255	-2.068061	2.176121	-0.900931	4.300358	0.036000	-0.021577	-0.020758	0.999699	0.010880	-0.004504	0.021500	
30693	    0	4.408559	-1.629960	-2.293304	2.148111	-0.949205	4.679642	0.044556	-0.015015	-0.022888	0.999657	0.010739	-0.004745	0.023396	
30694	    0	5.348058	-0.910244	-2.499129	1.915980	-1.001864	5.024964	0.053807	-0.007515	-0.024799	0.999625	0.009579	-0.005009	0.025122	
30695	    0	6.241053	-0.372601	-2.765581	1.574920	-1.059675	5.367241	0.062622	-0.001831	-0.027344	0.999595	0.007874	-0.005298	0.026833	
30696	    0	7.364949	0.134252	-2.566761	1.214204	-1.152588	5.672137	0.073715	0.003587	-0.025226	0.999562	0.006070	-0.005762	0.028357	
30697	    0	8.962391	0.591298	-2.354101	0.845469	-1.248173	5.930491	0.089539	0.008667	-0.022949	0.999532	0.004227	-0.006240	0.029648	
30698	    0	10.610354	0.871136	-1.982429	0.454406	-1.344904	6.150504	0.105898	0.012014	-0.019087	0.999501	0.002272	-0.006723	0.030747	
30699	    0	12.295709	0.770639	-1.619216	0.122282	-1.410158	6.319006	0.122742	0.011597	-0.015320	0.999475	0.000611	-0.007050	0.031590	
30700	    0	14.139753	0.869794	-1.252454	-0.048074	-1.503075	6.455268	0.141108	0.013253	-0.011466	0.999451	-0.000240	-0.007514	0.032270	
30701	    0	15.927516	1.568685	-1.382308	-0.127244	-1.587977	6.537335	0.158752	0.020874	-0.012573	0.999434	-0.000636	-0.007938	0.032681	
30702	    0	17.825498	2.311010	-1.778207	-0.233123	-1.691763	6.582956	0.177508	0.028942	-0.016310	0.999421	-0.001165	-0.008457	0.032908	
30703	    0	19.767212	2.609917	-1.901638	-0.312675	-1.816910	6.554153	0.196838	0.032532	-0.017273	0.999420	-0.001563	-0.009083	0.032764	
30704	    0	21.372897	3.195888	-2.393284	-0.121521	-1.995465	6.441956	0.212777	0.038810	-0.021829	0.999431	-0.000607	-0.009975	0.032204	
30705	    0	22.487339	4.446791	-2.512076	0.234457	-2.159520	6.319840	0.223572	0.051575	-0.022644	0.999441	0.001172	-0.010796	0.031593	
30706	    0	22.741406	6.140004	-2.167597	0.699551	-2.285990	6.142393	0.225611	0.068418	-0.018859	0.999456	0.003497	-0.011428	0.030706	
30707	    0	22.791998	8.477536	-1.745061	1.220917	-2.372203	5.906948	0.225464	0.091553	-0.014221	0.999475	0.006104	-0.011859	0.029530	
30708	    0	22.716919	10.180596	-0.741242	1.632003	-2.407467	5.546332	0.224290	0.108094	-0.003836	0.999509	0.008159	-0.012035	0.027727	
30709	    0	23.542116	12.051382	5.047640	1.698533	-1.976090	5.073472	0.231750	0.125977	0.053833	0.999593	0.008492	-0.009879	0.025364	
30710	    0	21.450665	11.224442	7.446992	2.289086	-1.466160	4.550894	0.211332	0.116203	0.077342	0.999648	0.011444	-0.007330	0.022752	
30711	    0	18.139323	15.693311	-0.667758	3.666566	-1.331493	3.784645	0.178406	0.160400	-0.002563	0.999630	0.018331	-0.006657	0.018921	
30712	    0	14.989775	29.320281	-1.809821	2.985779	-1.131136	2.520354	0.146268	0.295280	-0.012866	0.999793	0.014928	-0.005655	0.012601	
30713	    0	11.116725	36.827994	1.565993	0.901231	-0.690467	1.039897	0.109192	0.368774	0.017700	0.999969	0.004506	-0.003452	0.005199	
30714	    0	11.835361	31.188410	3.837485	-0.387192	-0.186158	-0.435830	0.118998	0.311699	0.037882	0.999995	-0.001936	-0.000931	-0.002179	
30715	    0	19.525226	19.383462	4.972083	-0.244716	0.171663	-1.664754	0.196899	0.192261	0.049316	0.999964	-0.001224	0.000858	-0.008324	
30716	    0	15.317878	18.892566	0.606199	1.050414	0.283442	-2.693080	0.155713	0.186806	0.006827	0.999894	0.005252	0.001417	-0.013465	
30717	    0	10.916329	14.190292	-11.949448	0.927200	0.102238	-2.980163	0.111206	0.140808	-0.118896	0.999878	0.004636	0.000511	-0.014900	
30718	    0	15.923073	-10.213339	-7.412823	-1.089894	0.150304	-2.548681	0.157853	-0.104553	-0.073682	0.999904	-0.005449	0.000751	-0.012743	
30719	    0	13.280658	-19.171388	2.514778	-0.308045	0.082400	-2.474277	0.130432	-0.193298	0.025391	0.999922	-0.001540	0.000412	-0.012371	
30720	    0	16.122465	-5.929045	4.150485	0.915944	0.039484	-2.878108	0.160356	-0.061791	0.041194	0.999886	0.004580	0.000197	-0.014390	
30721	    0	19.788599	3.330426	4.689277	1.189483	0.142105	-3.268598	0.198425	0.029785	0.046936	0.999848	0.005947	0.000710	-0.016342	
30722	    0	18.732188	7.894373	2.169549	0.791971	0.204860	-3.374842	0.188640	0.075682	0.021807	0.999848	0.003960	0.001024	-0.016873	
30723	    0	19.509107	5.464379	3.151495	-0.057986	0.317587	-3.208299	0.195984	0.051514	0.031189	0.999869	-0.000290	0.001588	-0.016041	
30724	    0	15.149186	2.853568	-2.193990	0.472469	0.115971	-3.068094	0.151894	0.026259	-0.021964	0.999879	0.002362	0.000580	-0.015340	
30725	    0	16.945584	8.563717	-2.889935	0.712045	0.172432	-3.207542	0.170776	0.083008	-0.028748	0.999865	0.003560	0.000862	-0.016037	
30726	    0	13.400551	1.354196	1.020032	-0.245676	0.288784	-3.031086	0.134205	0.011521	0.009992	0.999883	-0.001228	0.001444	-0.015155	
30727	    0	7.803964	-0.962392	-1.159082	0.080302	0.160986	-2.881722	0.077881	-0.010742	-0.011658	0.999895	0.000401	0.000805	-0.014408	
30728	    0	6.395309	3.691543	-5.281616	0.170331	0.177388	-2.591588	0.064378	0.036128	-0.052842	0.999915	0.000852	0.000887	-0.012958	
30729	    0	6.578093	4.476523	-5.149936	-0.271422	0.231176	-2.269795	0.066223	0.043945	-0.051636	0.999933	-0.001357	0.001156	-0.011349	
30730	    0	7.578370	2.471516	-3.786255	-0.263600	0.197986	-1.942857	0.075981	0.023928	-0.037970	0.999951	-0.001318	0.000990	-0.009714	
30731	    0	9.633896	0.681476	-2.140097	-0.280574	0.154879	-1.667043	0.096375	0.005981	-0.021484	0.999964	-0.001403	0.000774	-0.008335	
30732	    0	11.273009	1.230558	-0.774086	-0.149919	0.074197	-1.442922	0.112812	0.011486	-0.007792	0.999973	-0.000750	0.000371	-0.007215	
30733	    0	11.566629	0.944844	0.410438	-0.017548	0.024605	-1.245888	0.115723	0.008728	0.004089	0.999980	-0.000088	0.000123	-0.006229	
30734	    0	10.901591	0.056230	0.441120	0.173951	-0.016403	-1.110273	0.109016	-0.000047	0.004420	0.999984	0.000870	-0.000082	-0.005551	
30735	    0	10.646213	0.894545	-0.662453	0.203896	-0.045014	-0.994114	0.106506	0.008423	-0.006592	0.999987	0.001019	-0.000225	-0.004971	
30736	    0	10.233639	1.368322	-2.062470	0.106240	-0.072861	-0.878146	0.102403	0.013245	-0.020580	0.999990	0.000531	-0.000364	-0.004391	
30737	    0	10.039367	1.662475	-2.718560	-0.088310	-0.064087	-0.751497	0.100464	0.016235	-0.027161	0.999992	-0.000442	-0.000320	-0.003757	
30738	    0	9.773274	1.362475	-3.216057	-0.249100	-0.043488	-0.633241	0.097782	0.013275	-0.032156	0.999993	-0.001245	-0.000217	-0.003166	
30739	    0	9.500245	1.018689	-3.087715	-0.350762	-0.022888	-0.515748	0.095032	0.009888	-0.030884	0.999994	-0.001754	-0.000114	-0.002579	
30740	    0	9.471998	0.871344	-2.512172	-0.368691	0.004959	-0.459290	0.094739	0.008450	-0.025140	0.999995	-0.001843	0.000025	-0.002296	
30741	    0	9.617422	0.891298	-1.950567	-0.324822	0.023651	-0.445557	0.096191	0.008667	-0.019531	0.999996	-0.001624	0.000118	-0.002228	
30742	    0	9.895341	0.801351	-1.842589	-0.307274	0.016212	-0.447274	0.098969	0.007764	-0.018446	0.999996	-0.001536	0.000081	-0.002236	
30743	    0	10.003847	-0.119367	-2.259132	-0.390626	-0.011253	-0.453950	0.100037	-0.001465	-0.022583	0.999995	-0.001953	-0.000056	-0.002270	
30744	    0	10.187353	-0.097688	-2.407190	-0.462724	-0.006294	-0.476075	0.101871	-0.001275	-0.024066	0.999994	-0.002314	-0.000031	-0.002380	
30745	    0	10.211909	-0.174613	-2.447116	-0.441743	0.016212	-0.538636	0.102112	-0.002075	-0.024475	0.999993	-0.002209	0.000081	-0.002693	
30746	    0	10.276318	-0.365277	-1.757044	-0.334550	0.033188	-0.634767	0.102748	-0.004008	-0.017581	0.999993	-0.001673	0.000166	-0.003174	
30747	    0	9.845730	-0.073278	-1.492753	-0.196648	0.054932	-0.713350	0.098450	-0.001099	-0.014954	0.999992	-0.000983	0.000275	-0.003567	
30748	    0	9.670427	0.488546	-1.357621	-0.101662	0.066757	-0.782015	0.096718	0.004500	-0.013611	0.999991	-0.000508	0.000334	-0.003910	
30749	    0	9.731179	1.115682	-1.460142	-0.099755	0.085449	-0.836947	0.097351	0.010742	-0.014648	0.999990	-0.000499	0.000427	-0.004185	
30750	    0	9.840923	0.554685	-1.738622	-0.179864	0.076103	-0.848582	0.098425	0.005114	-0.017428	0.999990	-0.000899	0.000381	-0.004243	
30751	    0	9.970846	0.741708	-2.192840	-0.300599	0.067330	-0.854495	0.099731	0.006958	-0.021973	0.999990	-0.001503	0.000337	-0.004272	
30752	    0	10.304127	1.555272	-2.332169	-0.457575	0.057221	-0.869945	0.103101	0.015051	-0.023386	0.999988	-0.002288	0.000286	-0.004350	
30753	    0	10.336261	0.880667	-1.855735	-0.652126	0.059510	-0.861363	0.103394	0.008301	-0.018616	0.999985	-0.003261	0.000298	-0.004307	
30754	    0	10.391298	0.883557	-1.588040	-0.691608	0.057602	-0.879102	0.103946	0.008324	-0.015940	0.999984	-0.003458	0.000288	-0.004395	
30755	    0	10.558513	1.590775	-1.272755	-0.759892	0.058174	-0.905614	0.105652	0.015381	-0.012817	0.999982	-0.003799	0.000291	-0.004528	
30756	    0	10.703298	1.209449	-1.093563	-0.799184	0.078393	-0.931555	0.107083	0.011552	-0.011024	0.999981	-0.003996	0.000392	-0.004658	
30757	    0	10.792725	1.021685	-0.973535	-0.841528	0.092507	-0.985725	0.107971	0.009644	-0.009827	0.999978	-0.004208	0.000463	-0.004929	
30758	    0	10.785066	0.606291	-1.203497	-0.918777	0.124169	-1.055917	0.107873	0.005438	-0.012128	0.999975	-0.004594	0.000621	-0.005280	
30759	    0	10.606631	0.446448	-1.338681	-0.927552	0.157167	-1.165019	0.106079	0.003784	-0.013489	0.999971	-0.004638	0.000786	-0.005825	
30760	    0	10.592869	-0.482687	-1.689537	-0.828752	0.207522	-1.381508	0.105874	-0.005629	-0.016983	0.999967	-0.004144	0.001038	-0.006907	
30761	    0	10.862851	-1.712437	-1.858990	-0.691042	0.273136	-1.617453	0.108459	-0.018066	-0.018677	0.999960	-0.003455	0.001366	-0.008087	
30762	    0	11.555082	-1.951373	-1.844419	-0.540361	0.319486	-1.888879	0.115330	-0.020654	-0.018574	0.999950	-0.002702	0.001597	-0.009444	
30763	    0	12.109896	-1.410977	-1.507441	-0.386055	0.352676	-2.153822	0.120911	-0.015442	-0.015259	0.999938	-0.001930	0.001763	-0.010769	
30764	    0	12.604790	-0.619439	-0.587578	-0.276572	0.407610	-2.381383	0.125950	-0.007703	-0.006123	0.999926	-0.001383	0.002038	-0.011907	
30765	    0	13.015423	-0.131030	0.200506	-0.117496	0.457205	-2.584150	0.130127	-0.002991	0.001709	0.999913	-0.000587	0.002286	-0.012920	
30766	    0	13.424073	0.145414	0.420312	-0.031854	0.533121	-2.734082	0.134254	-0.000381	0.003845	0.999903	-0.000159	0.002666	-0.013670	
30767	    0	13.747864	0.410275	-0.191916	0.004006	0.582143	-2.860362	0.137512	0.002136	-0.002319	0.999893	0.000020	0.002911	-0.014301	
30768	    0	13.795963	0.102381	-1.213982	-0.118642	0.616287	-2.927127	0.137917	-0.001002	-0.012565	0.999887	-0.000593	0.003081	-0.014635	
30769	    0	14.034759	0.329752	-1.725012	-0.441569	0.635554	-2.991605	0.140320	0.001160	-0.017700	0.999880	-0.002208	0.003178	-0.014957	
30770	    0	14.799674	-0.210417	-2.154606	-0.875511	0.690109	-3.048649	0.147865	-0.004455	-0.022040	0.999867	-0.004377	0.003450	-0.015243	
30771	    0	16.082252	0.921134	-3.012606	-1.363252	0.727882	-3.150339	0.160828	0.006470	-0.030762	0.999846	-0.006816	0.003639	-0.015751	
30772	    0	17.598610	-1.146409	-3.041038	-2.178334	0.778440	-3.208370	0.175649	-0.014619	-0.030947	0.999804	-0.010891	0.003892	-0.016041	
30773	    0	18.999282	-4.509245	-2.931817	-2.973237	0.851513	-3.290074	0.189087	-0.048645	-0.029419	0.999744	-0.014865	0.004257	-0.016449	
30774	    0	21.083706	-6.508074	-3.393731	-3.322367	0.879949	-3.544977	0.209484	-0.069364	-0.033732	0.999695	-0.016610	0.004399	-0.017723	
30775	    0	22.430063	-9.484925	-4.140162	-3.043491	0.829401	-3.874610	0.222229	-0.099792	-0.040833	0.999687	-0.015216	0.004147	-0.019371	
30776	    0	22.659369	-8.574941	-4.789768	-2.445845	0.693771	-4.160530	0.224571	-0.091019	-0.047587	0.999702	-0.012228	0.003469	-0.020801	
30777	    0	23.145926	-7.448633	-5.158078	-2.162944	0.621854	-4.160697	0.229675	-0.079834	-0.051453	0.999720	-0.010814	0.003109	-0.020802	
30778	    0	21.104486	-7.961674	-6.100575	-1.957289	0.657135	-3.901608	0.209230	-0.084307	-0.060885	0.999756	-0.009786	0.003285	-0.019506	
30779	    0	18.649405	-7.527773	-6.844540	-1.041280	0.606571	-3.475385	0.184937	-0.078857	-0.068604	0.999830	-0.005206	0.003033	-0.017376	
30780	    0	15.690404	-5.189254	-6.105628	-0.237666	0.557543	-3.204106	0.155874	-0.054468	-0.061428	0.999866	-0.001188	0.002788	-0.016020	
30781	    0	13.235696	3.553328	-3.238393	0.273907	0.569369	-3.212119	0.132812	0.033447	-0.032715	0.999866	0.001369	0.002847	-0.016060	
30782	    0	11.629708	14.013610	-5.565253	-0.459499	0.505277	-3.021933	0.118254	0.138230	-0.056269	0.999880	-0.002297	0.002526	-0.015109	
30783	    0	13.260893	3.981177	-6.605295	-1.495207	0.464642	-1.851699	0.132812	0.038086	-0.066650	0.999926	-0.007476	0.002323	-0.009258	
30784	    0	7.188191	-5.903118	-4.679254	-1.538489	0.397306	-0.877392	0.071528	-0.059704	-0.046477	0.999958	-0.007692	0.001987	-0.004387	
30785	    0	5.947544	-6.819615	-2.202466	-1.114661	0.285532	-0.345614	0.059326	-0.068420	-0.021729	0.999982	-0.005573	0.001428	-0.001728	
30786	    0	3.667796	-4.900072	-1.007184	-0.813868	0.171853	0.106430	0.036695	-0.049022	-0.009904	0.999990	-0.004069	0.000859	0.000532	
30787	    0	2.636383	-4.105580	-1.228288	-0.727847	0.094033	0.639346	0.026489	-0.041016	-0.012146	0.999988	-0.003639	0.000470	0.003197	
30788	    0	1.704434	-4.087429	-1.698716	-0.517276	0.015831	1.116760	0.017271	-0.040822	-0.016883	0.999981	-0.002586	0.000079	0.005584	
30789	    0	1.312220	-3.769833	-1.820405	-0.056267	-0.074769	1.587694	0.013428	-0.037598	-0.018188	0.999968	-0.000281	-0.000374	0.007938	
30790	    0	1.248098	-3.075852	-1.602493	0.436600	-0.187877	2.040710	0.012809	-0.030594	-0.016080	0.999945	0.002183	-0.000939	0.010203	
30791	    0	1.297009	-2.548077	-1.133016	0.806451	-0.284394	2.520826	0.013306	-0.025269	-0.011414	0.999911	0.004032	-0.001422	0.012604	
30792	    0	1.662076	-2.483967	-0.738133	1.079987	-0.366417	3.007255	0.017005	-0.024546	-0.007483	0.999870	0.005400	-0.001832	0.015036	
30793	    0	1.913681	-2.182529	-1.064762	1.279522	-0.446917	3.437238	0.019531	-0.021423	-0.010742	0.999829	0.006397	-0.002234	0.017185	
30794	    0	2.284378	-1.984696	-1.749752	1.319977	-0.513494	3.832511	0.023262	-0.019288	-0.017567	0.999791	0.006599	-0.002567	0.019161	
30795	    0	2.655611	-2.012925	-2.210240	1.372834	-0.606588	4.227039	0.027039	-0.019409	-0.022156	0.999748	0.006864	-0.003033	0.021133	
30796	    0	3.398279	-1.977696	-2.314180	1.440952	-0.697586	4.570835	0.034501	-0.018826	-0.023160	0.999706	0.007204	-0.003488	0.022852	
30797	    0	4.421685	-1.579584	-2.362498	1.476454	-0.789540	4.919987	0.044678	-0.014526	-0.023560	0.999661	0.007381	-0.003947	0.024597	
30798	    0	5.653213	-0.869085	-2.553778	1.368695	-0.899810	5.255981	0.056846	-0.007026	-0.025334	0.999620	0.006843	-0.004498	0.026277	
30799	    0	6.966219	-0.008739	-2.806224	1.146857	-0.988716	5.569468	0.069763	0.002014	-0.027710	0.999583	0.005733	-0.004943	0.027843	
30800	    0	8.328903	0.756460	-2.972489	0.820093	-1.109100	5.859115	0.083180	0.010123	-0.029225	0.999547	0.004100	-0.005545	0.029291	
30801	    0	9.844759	1.349796	-2.851463	0.416632	-1.199342	6.073972	0.098145	0.016541	-0.027893	0.999518	0.002083	-0.005996	0.030365	
30802	    0	11.152327	1.295450	-2.527510	0.097673	-1.298741	6.213278	0.111210	0.016425	-0.024545	0.999496	0.000488	-0.006493	0.031061	
30803	    0	12.529417	0.913313	-1.963048	-0.020412	-1.428470	6.280840	0.125061	0.013062	-0.018738	0.999481	-0.000102	-0.007141	0.031399	
30804	    0	14.116129	0.924292	-1.582045	0.086990	-1.583188	6.314821	0.140895	0.013701	-0.014699	0.999470	0.000435	-0.007915	0.031569	
30805	    0	15.794299	1.672373	-1.957982	0.230449	-1.735808	6.322087	0.157471	0.021729	-0.018188	0.999461	0.001152	-0.008677	0.031605	
30806	    0	17.585214	2.440529	-2.377110	0.302370	-1.868208	6.351298	0.175170	0.030010	-0.022090	0.999451	0.001512	-0.009339	0.031751	
30807	    0	19.221340	3.159923	-2.766911	0.343386	-1.995264	6.339671	0.191345	0.037720	-0.025696	0.999446	0.001717	-0.009974	0.031693	
30808	    0	20.537862	4.091016	-3.022264	0.386309	-2.109154	6.300563	0.204256	0.047413	-0.027977	0.999446	0.001931	-0.010544	0.031497	
30809	    0	21.561478	5.268791	-2.694774	0.558002	-2.212168	6.233597	0.214111	0.059448	-0.024414	0.999449	0.002789	-0.011059	0.031162	
30810	    0	22.091498	7.001743	-2.435689	0.813629	-2.275682	6.081140	0.218904	0.076786	-0.021555	0.999464	0.004067	-0.011376	0.030400	
30811	    0	23.047801	8.634333	-2.608142	1.068490	-2.365519	5.879460	0.228088	0.093201	-0.022888	0.999483	0.005342	-0.011826	0.029392	
30812	    0	22.922736	10.239483	-0.230618	1.437223	-2.344691	5.497272	0.226298	0.108643	0.001124	0.999527	0.007185	-0.011722	0.027482	
30813	    0	24.036267	14.709585	7.778704	1.068242	-1.714337	4.932988	0.235962	0.152527	0.080627	0.999644	0.005341	-0.008571	0.024662	
30814	    0	20.167767	13.074058	5.916001	1.826283	-1.335662	4.415393	0.198328	0.134588	0.061709	0.999692	0.009130	-0.006678	0.022075	
30815	    0	17.833313	18.700472	-1.884273	2.604331	-1.201735	3.575447	0.175049	0.190369	-0.015320	0.999737	0.013021	-0.006008	0.017876	
30816	    0	15.114425	27.726736	-1.475314	1.833423	-1.022192	2.437887	0.147813	0.279198	-0.011438	0.999870	0.009167	-0.005111	0.012189	
30817	    0	12.255097	33.558812	1.999622	0.416568	-0.696379	1.151285	0.120544	0.336243	0.021118	0.999974	0.002083	-0.003482	0.005756	
30818	    0	14.663314	29.133508	4.738334	-0.469208	-0.281525	-0.176430	0.146824	0.291316	0.046906	0.999995	-0.002346	-0.001408	-0.000882	
30819	    0	19.816214	20.582914	5.140154	-0.017357	0.053406	-1.554886	0.199768	0.204285	0.051331	0.999969	-0.000087	0.000267	-0.007774	
30820	    0	14.199888	18.508251	-1.802150	1.644965	0.061228	-2.675739	0.144454	0.183301	-0.016553	0.999876	0.008224	0.000306	-0.013378	
30821	    0	13.884122	8.897758	-7.766983	0.106243	0.281535	-2.927504	0.140015	0.086975	-0.077820	0.999891	0.000531	0.001408	-0.014637	
30822	    0	15.563973	-21.906774	1.865531	-0.678080	0.325211	-2.350867	0.153082	-0.220813	0.019152	0.999924	-0.003390	0.001626	-0.011754	
30823	    0	16.376507	-14.420978	4.652632	0.755334	0.170332	-2.660455	0.161865	-0.146545	0.045837	0.999904	0.003777	0.000852	-0.013302	
30824	    0	21.086203	0.138861	6.671569	1.354477	0.196467	-3.197259	0.210909	-0.002434	0.066501	0.999848	0.006772	0.000982	-0.015985	
30825	    0	18.659712	10.485823	3.286724	0.980430	0.242819	-3.466985	0.188416	0.101440	0.033142	0.999837	0.004902	0.001214	-0.017334	
30826	    0	19.757666	4.899225	3.715650	0.070194	0.363557	-3.230237	0.198400	0.045779	0.036813	0.999867	0.000351	0.001818	-0.016150	
30827	    0	15.544610	0.718819	-1.371636	0.426690	0.193794	-3.003045	0.155518	0.004883	-0.013855	0.999884	0.002133	0.000969	-0.015015	
30828	    0	14.117942	7.433313	-6.127693	1.190051	0.132376	-3.147274	0.142289	0.072463	-0.060936	0.999858	0.005950	0.000662	-0.015736	
30829	    0	12.870239	4.633952	-2.926887	0.173957	0.293171	-2.991599	0.129333	0.044434	-0.029419	0.999887	0.000870	0.001466	-0.014957	
30830	    0	8.327883	-1.950618	-1.401834	0.031663	0.248727	-2.846052	0.082973	-0.020686	-0.014125	0.999898	0.000158	0.001244	-0.014230	
30831	    0	6.273031	1.822278	-4.404014	0.266464	0.161748	-2.626114	0.062927	0.017456	-0.044067	0.999912	0.001332	0.000809	-0.013130	
30832	    0	7.353260	4.758174	-4.954980	-0.186734	0.246053	-2.299742	0.074012	0.046686	-0.049685	0.999932	-0.000934	0.001230	-0.011498	
30833	    0	7.515868	2.729401	-4.107759	-0.269894	0.225834	-1.989780	0.075378	0.026489	-0.041199	0.999949	-0.001349	0.001129	-0.009949	
30834	    0	9.284256	-0.083350	-2.052037	-0.133898	0.196841	-1.704619	0.092811	-0.001638	-0.020611	0.999963	-0.000669	0.000984	-0.008523	
30835	    0	10.970494	0.575662	-0.334183	0.081826	0.142671	-1.483931	0.109741	0.004944	-0.003418	0.999971	0.000409	0.000713	-0.007420	
30836	    0	11.492433	1.814118	0.658959	0.226785	0.087357	-1.276407	0.115040	0.017400	0.006559	0.999978	0.001134	0.000437	-0.006382	
30837	    0	10.910356	0.526012	1.080021	0.330545	0.009155	-1.106268	0.109131	0.004639	0.010803	0.999983	0.001653	0.000046	-0.005531	
30838	    0	10.420984	0.708641	-0.008843	0.274087	-0.014687	-0.962071	0.104242	0.006585	-0.000072	0.999987	0.001370	-0.000073	-0.004810	
30839	    0	10.380066	1.947802	-2.276976	-0.007439	-0.008392	-0.836184	0.103882	0.019043	-0.022766	0.999990	-0.000037	-0.000042	-0.004181	
30840	    0	9.955973	0.983147	-3.014309	-0.318528	0.003243	-0.688936	0.099592	0.009440	-0.030160	0.999992	-0.001593	0.000016	-0.003445	
30841	    0	9.544787	0.674809	-3.200747	-0.475312	0.042915	-0.551606	0.095459	0.006409	-0.032043	0.999993	-0.002377	0.000215	-0.002758	
30842	    0	9.382248	1.778250	-2.749901	-0.629617	0.073433	-0.429536	0.093850	0.017494	-0.027589	0.999992	-0.003148	0.000367	-0.002148	
30843	    0	9.489896	1.231367	-2.103447	-0.685694	0.088501	-0.329591	0.094910	0.012085	-0.021118	0.999992	-0.003428	0.000443	-0.001648	
30844	    0	10.044914	0.925676	-1.800946	-0.700762	0.118065	-0.263978	0.100451	0.009061	-0.018101	0.999992	-0.003504	0.000590	-0.001320	
30845	    0	10.486229	0.688441	-1.669136	-0.842097	0.123597	-0.190735	0.104858	0.006714	-0.016785	0.999990	-0.004210	0.000618	-0.000954	
30846	    0	10.305447	0.452115	-2.192130	-0.995068	0.097847	-0.122452	0.103046	0.004349	-0.021994	0.999987	-0.004975	0.000489	-0.000612	
30847	    0	10.297664	-0.011362	-2.602293	-1.144988	0.078583	-0.082398	0.102966	-0.000305	-0.026062	0.999983	-0.005725	0.000393	-0.000412	
30848	    0	10.202623	-0.249245	-2.769858	-1.179702	0.080872	-0.108529	0.102014	-0.002711	-0.027724	0.999982	-0.005898	0.000404	-0.000543	
30849	    0	10.145374	-0.128738	-2.749031	-1.154143	0.088501	-0.157166	0.101440	-0.001526	-0.027527	0.999983	-0.005771	0.000443	-0.000786	
30850	    0	10.385932	-0.700958	-1.247663	-1.005177	0.124741	-0.246240	0.103843	-0.007200	-0.012506	0.999986	-0.005026	0.000624	-0.001231	
30851	    0	9.725021	-0.575051	-1.264023	-0.775912	0.160409	-0.373842	0.097229	-0.005981	-0.012695	0.999990	-0.003880	0.000802	-0.001869	
30852	    0	9.556794	-1.395965	-0.755478	-0.548555	0.153542	-0.527955	0.095525	-0.014233	-0.007589	0.999992	-0.002743	0.000768	-0.002640	
30853	    0	9.015798	-1.706201	-0.927829	-0.219536	0.175477	-0.716402	0.090088	-0.017395	-0.009338	0.999992	-0.001098	0.000877	-0.003582	
30854	    0	9.237681	-1.482727	-1.216354	0.049019	0.208092	-0.906185	0.092296	-0.015243	-0.012263	0.999989	0.000245	0.001040	-0.004531	
30855	    0	9.872631	-0.253302	-1.637547	0.157166	0.206185	-1.077276	0.098694	-0.003052	-0.016479	0.999984	0.000786	0.001031	-0.005386	
30856	    0	10.502738	0.164999	-1.858957	0.004387	0.222398	-1.161582	0.105014	0.001040	-0.018706	0.999982	0.000022	0.001112	-0.005808	
30857	    0	10.439648	-0.112516	-1.625025	-0.158692	0.207712	-1.210793	0.104370	-0.001770	-0.016357	0.999980	-0.000793	0.001039	-0.006054	
30858	    0	10.651740	0.559872	-1.088772	-0.267031	0.204469	-1.268205	0.106539	0.004909	-0.011003	0.999978	-0.001335	0.001022	-0.006341	
30859	    0	10.918972	0.072690	0.060527	-0.298121	0.213625	-1.332866	0.109192	0.000000	0.000488	0.999975	-0.001491	0.001068	-0.006664	
30860	    0	11.166847	-0.115966	0.389454	-0.181963	0.226023	-1.406872	0.111661	-0.001942	0.003770	0.999973	-0.000910	0.001130	-0.007034	
30861	    0	11.484443	0.402565	-0.144424	-0.117303	0.244906	-1.481642	0.114868	0.003174	-0.001587	0.999971	-0.000587	0.001225	-0.007408	
30862	    0	12.036020	1.060354	-0.586334	-0.184252	0.282291	-1.548974	0.120429	0.009665	-0.006042	0.999969	-0.000921	0.001411	-0.007745	
30863	    0	11.926697	0.274619	-1.336032	-0.314335	0.312237	-1.601428	0.119263	0.001770	-0.013550	0.999965	-0.001572	0.001561	-0.008007	
30864	    0	11.772388	0.884584	-2.149150	-0.493819	0.331120	-1.662848	0.117756	0.007813	-0.021707	0.999961	-0.002469	0.001656	-0.008314	
30865	    0	11.376813	-0.097831	-2.415100	-0.626192	0.364691	-1.795225	0.113708	-0.002075	-0.024353	0.999952	-0.003131	0.001823	-0.008976	
30866	    0	11.086438	-0.693436	-2.612416	-0.607502	0.408752	-1.964796	0.110735	-0.008102	-0.026327	0.999945	-0.003037	0.002044	-0.009824	
30867	    0	11.175212	-1.105617	-2.310364	-0.564587	0.439653	-2.162980	0.111572	-0.012329	-0.023315	0.999934	-0.002823	0.002198	-0.010815	
30868	    0	11.525492	-1.398457	-1.325714	-0.419246	0.486577	-2.381957	0.115045	-0.015384	-0.013506	0.999924	-0.002096	0.002433	-0.011909	
30869	    0	12.276440	-0.994512	-0.060130	-0.210577	0.531212	-2.591781	0.122620	-0.011536	-0.000916	0.999911	-0.001053	0.002656	-0.012959	
30870	    0	13.180433	-0.778355	1.052745	0.013543	0.595303	-2.773378	0.131710	-0.009611	0.010135	0.999899	0.000068	0.002976	-0.013866	
30871	    0	13.678469	-0.513902	0.853669	0.177009	0.693729	-2.917590	0.136719	-0.007141	0.008057	0.999887	0.000885	0.003469	-0.014587	
30872	    0	13.731960	-0.249497	-0.932895	0.164420	0.741416	-3.025368	0.137225	-0.004563	-0.009841	0.999878	0.000822	0.003707	-0.015126	
30873	    0	14.217771	0.640106	-2.648583	-0.137144	0.772891	-3.140396	0.142151	0.004150	-0.027039	0.999868	-0.000686	0.003864	-0.015701	
30874	    0	14.875149	-0.680817	-2.984650	-0.711856	0.820580	-3.183896	0.148493	-0.009281	-0.030426	0.999858	-0.003559	0.004103	-0.015919	
30875	    0	16.000372	-1.185631	-3.974323	-1.213902	0.857018	-3.267082	0.159607	-0.014709	-0.040344	0.999839	-0.006069	0.004285	-0.016335	
30876	    0	16.874561	-0.929956	-4.280386	-1.948675	0.873814	-3.339414	0.168365	-0.012534	-0.043428	0.999804	-0.009743	0.004369	-0.016696	
30877	    0	19.566285	-3.325645	-3.562860	-2.705609	0.888326	-3.451063	0.194885	-0.037109	-0.036011	0.999749	-0.013527	0.004441	-0.017254	
30878	    0	22.129473	-7.166026	-4.604869	-2.848707	0.892343	-3.743720	0.219688	-0.076438	-0.045965	0.999713	-0.014242	0.004461	-0.018717	
