// Start Time: Unknown
// Update Rate: 100.0Hz
// Filter Profile: human (34.3)
// Firmware Version: 2.1.4
PacketCounter	SampleTimeFine	Acc_X	Acc_Y	Acc_Z	Gyr_X	Gyr_Y	Gyr_Z	VelInc_X	VelInc_Y	VelInc_Z	OriInc_q0	OriInc_q1	OriInc_q2	OriInc_q3	
19554	    0	13.618727	10.633616	-5.076440	-0.833745	-0.239766	-3.396208	0.138025	0.103790	-0.051036	0.999846	-0.004169	-0.001199	-0.016980	
19555	    0	11.128032	9.311227	-4.602417	-0.445573	0.063517	-2.923691	0.112610	0.091370	-0.046265	0.999890	-0.002228	0.000318	-0.014618	
19556	    0	15.866830	14.865970	-10.337593	-1.135290	0.494210	-2.487263	0.160238	0.146082	-0.104605	0.999903	-0.005676	0.002471	-0.012436	
19557	    0	18.993781	3.555543	-6.484073	-0.749226	0.614373	-2.282010	0.190125	0.033142	-0.065552	0.999923	-0.003746	0.003072	-0.011410	
19558	    0	27.021735	4.024984	-5.788760	-0.727097	0.852603	-1.960987	0.270343	0.037386	-0.059179	0.999936	-0.003635	0.004263	-0.009805	
19559	    0	28.679343	0.784694	2.947797	-0.193790	0.972955	-1.787598	0.286987	0.005310	0.028076	0.999948	-0.000969	0.004865	-0.008938	
19560	    0	27.887846	10.316975	4.896200	-0.487145	0.665103	-1.808006	0.279957	0.100760	0.047785	0.999950	-0.002436	0.003325	-0.009040	
19561	    0	28.131520	1.464499	6.035421	-1.013011	0.205997	-1.775391	0.281494	0.012451	0.059998	0.999947	-0.005065	0.001030	-0.008877	
19562	    0	27.817776	-2.872211	6.702909	-1.698527	-0.250821	-1.327731	0.277897	-0.029995	0.067629	0.999941	-0.008492	-0.001254	-0.006639	
19563	    0	26.936185	-9.494525	10.186796	-2.455213	-0.403416	-1.004821	0.268677	-0.095032	0.103577	0.999909	-0.012276	-0.002017	-0.005024	
19564	    0	24.007666	-15.197890	7.696713	-2.952699	-0.416773	-1.063010	0.239104	-0.152088	0.079711	0.999874	-0.014763	-0.002084	-0.005315	
19565	    0	22.125654	-19.652030	2.375844	-2.594084	-0.323307	-1.200145	0.220032	-0.197510	0.026672	0.999896	-0.012970	-0.001616	-0.006001	
19566	    0	19.010441	-19.498394	-4.471978	-1.609641	-0.168803	-1.334215	0.188833	-0.196597	-0.042982	0.999945	-0.008048	-0.000844	-0.006671	
19567	    0	16.617149	-16.367147	-3.518937	-0.021363	0.425156	-2.097361	0.164368	-0.165405	-0.035522	0.999942	-0.000107	0.002126	-0.010487	
19568	    0	15.598311	-7.802992	-0.415543	1.314614	0.939037	-3.164839	0.154699	-0.080452	-0.005407	0.999842	0.006573	0.004695	-0.015823	
19569	    0	14.899311	-2.334438	0.148594	2.610508	1.304777	-4.385120	0.148438	-0.026611	0.000183	0.999653	0.013051	0.006523	-0.021923	
19570	    0	11.290684	6.713046	-1.350964	2.476371	1.432484	-5.885793	0.114723	0.063939	-0.013522	0.999464	0.012380	0.007161	-0.029424	
19571	    0	22.637587	10.443399	-5.002854	2.075603	1.139483	-6.445816	0.229309	0.097595	-0.050293	0.999410	0.010376	0.005696	-0.032223	
19572	    0	31.472181	10.364836	-1.927693	0.976579	1.083223	-6.989438	0.317980	0.092670	-0.020523	0.999362	0.004882	0.005415	-0.034940	
19573	    0	31.100459	-4.952289	0.647385	0.496201	0.857716	-6.872413	0.309082	-0.060181	0.005005	0.999397	0.002481	0.004288	-0.034355	
19574	    0	35.850646	-12.090002	0.778204	-0.198022	0.711200	-6.851980	0.354111	-0.133077	0.006645	0.999406	-0.000990	0.003555	-0.034253	
19575	    0	37.202801	-14.291323	-0.254761	-1.186416	0.296842	-6.797616	0.366882	-0.155457	-0.002197	0.999403	-0.005931	0.001484	-0.033981	
19576	    0	30.485829	-12.820610	-0.213981	-2.490728	-0.128008	-6.430756	0.300528	-0.137928	-0.000269	0.999405	-0.012451	-0.000640	-0.032147	
19577	    0	24.129802	-14.467475	-1.167216	-3.517633	-0.367807	-5.778082	0.237000	-0.151733	-0.008606	0.999426	-0.017585	-0.001839	-0.028885	
19578	    0	20.808172	-15.074251	-3.522597	-3.947396	-0.359028	-5.243864	0.204082	-0.156779	-0.031802	0.999459	-0.019733	-0.001795	-0.026215	
19579	    0	22.820793	-14.480861	-5.968070	-3.957217	-0.134107	-4.634049	0.224792	-0.151184	-0.056580	0.999536	-0.019783	-0.000670	-0.023167	
19580	    0	27.205101	-13.365247	-7.530525	-3.503419	0.104725	-3.731563	0.269440	-0.139989	-0.073031	0.999672	-0.017515	0.000524	-0.018656	
19581	    0	27.176582	-13.556306	-7.207767	-2.867313	0.119980	-2.720819	0.269836	-0.140259	-0.070251	0.999804	-0.014336	0.000600	-0.013603	
19582	    0	23.180525	-13.101338	-6.322678	-2.149648	-0.125507	-1.658681	0.230743	-0.133598	-0.061655	0.999907	-0.010748	-0.000628	-0.008293	
19583	    0	16.690966	-11.628837	-5.362198	-1.294719	-0.377467	-0.447849	0.166748	-0.117004	-0.052551	0.999974	-0.006474	-0.001887	-0.002239	
19584	    0	10.972202	-8.671961	-4.542374	-1.063167	-0.490384	1.011096	0.110270	-0.086402	-0.044694	0.999969	-0.005316	-0.002452	0.005055	
19585	    0	3.157092	-5.095313	-5.073605	-1.045264	-0.344670	2.716925	0.032349	-0.050781	-0.050415	0.999892	-0.005226	-0.001723	0.013584	
19586	    0	0.298619	-3.673756	-5.699078	-0.355368	-0.250074	4.390691	0.003864	-0.036760	-0.056921	0.999756	-0.001777	-0.001250	0.021952	
19587	    0	1.093388	-1.862082	-7.349169	-0.015261	-0.070009	5.593075	0.011475	-0.018311	-0.073486	0.999608	-0.000076	-0.000350	0.027962	
19588	    0	3.188158	-1.608461	-8.204113	0.056277	0.071729	6.561121	0.032356	-0.015005	-0.082057	0.999461	0.000281	0.000359	0.032800	
19589	    0	4.504068	-0.688083	-8.622736	0.027472	0.064292	7.442666	0.045227	-0.005188	-0.086243	0.999307	0.000137	0.000321	0.037205	
19590	    0	4.380936	1.285725	-8.502137	0.040448	-0.085092	8.336765	0.043259	0.014686	-0.085000	0.999131	0.000202	-0.000425	0.041672	
19591	    0	4.860922	1.257649	-7.990932	0.008395	-0.309669	9.075231	0.048096	0.014771	-0.079834	0.998969	0.000042	-0.001548	0.045361	
19592	    0	6.482429	-0.460742	-6.464948	0.114484	-0.546663	9.541328	0.065121	-0.001468	-0.064473	0.998857	0.000572	-0.002732	0.047688	
19593	    0	8.884400	-1.919397	-6.173827	0.535042	-0.848549	9.917741	0.089905	-0.014587	-0.061401	0.998757	0.002674	-0.004241	0.049568	
19594	    0	11.411621	-2.150131	-6.112759	0.896092	-1.004860	10.281018	0.115315	-0.015320	-0.060628	0.998656	0.004478	-0.005022	0.051382	
19595	    0	13.612432	0.052454	-5.780575	1.285420	-1.209661	10.699364	0.136169	0.008179	-0.056946	0.998530	0.006424	-0.006045	0.053471	
19596	    0	15.975273	2.951916	-5.682615	1.528979	-1.431462	11.092543	0.158174	0.038752	-0.055417	0.998407	0.007641	-0.007154	0.055433	
19597	    0	20.592173	7.771624	-4.863926	1.719282	-1.433594	11.308446	0.201416	0.089600	-0.046448	0.998339	0.008592	-0.007164	0.056511	
19598	    0	24.396886	13.631538	-3.051440	2.173507	-1.413953	11.353040	0.235904	0.150172	-0.027245	0.998304	0.010861	-0.007066	0.056733	
19599	    0	25.312834	20.869559	-2.936883	2.580908	-1.496751	11.055692	0.241272	0.222595	-0.024719	0.998361	0.012897	-0.007480	0.055248	
19600	    0	25.172621	29.066381	-2.471954	3.112107	-1.577236	10.556890	0.236079	0.303721	-0.018156	0.998455	0.015553	-0.007882	0.052757	
19601	    0	26.778918	36.206548	-1.492909	3.559284	-1.408104	9.992407	0.249329	0.375000	-0.006531	0.998569	0.017788	-0.007037	0.049938	
19602	    0	30.901546	42.918276	0.252352	3.657678	-0.951962	9.106510	0.289022	0.442489	0.011945	0.998785	0.018281	-0.004758	0.045514	
19603	    0	34.908863	50.211648	-0.198701	2.725154	-0.566055	7.326093	0.330383	0.514404	0.005920	0.999232	0.013622	-0.002830	0.036621	
19604	    0	25.781779	57.399644	-5.853351	1.233069	-0.572088	5.393724	0.242370	0.581016	-0.054257	0.999613	0.006165	-0.002860	0.026965	
19605	    0	14.423540	56.886076	-11.041632	-0.030519	-0.575861	3.644769	0.134155	0.571350	-0.110107	0.999829	-0.000153	-0.002879	0.018223	
19606	    0	8.763436	54.864764	-9.784616	-0.340848	-0.747881	1.586554	0.083647	0.549154	-0.098464	0.999960	-0.001704	-0.003739	0.007933	
19607	    0	2.886913	53.133135	-1.952261	-0.409509	-0.698092	-0.272370	0.029663	0.531250	-0.020508	0.999990	-0.002048	-0.003490	-0.001362	
19608	    0	-0.049092	46.889479	2.654402	-0.782601	-0.586331	-1.953355	0.004015	0.468969	0.024716	0.999940	-0.003913	-0.002932	-0.009767	
19609	    0	3.283612	40.687997	2.074799	-1.245757	-0.508145	-3.357117	0.039612	0.406372	0.018311	0.999836	-0.006228	-0.002541	-0.016785	
19610	    0	16.863664	30.597336	0.254942	-1.956150	-0.997818	-3.908675	0.174567	0.302611	0.000440	0.999748	-0.009780	-0.004989	-0.019542	
19611	    0	8.941058	-6.604543	-8.537949	-2.950538	-1.160339	-3.225220	0.088806	-0.068726	-0.083862	0.999743	-0.014751	-0.005801	-0.016125	
19612	    0	21.562692	-61.875199	-23.110504	-2.650183	-0.766215	-1.615784	0.211465	-0.623454	-0.222049	0.999872	-0.013250	-0.003831	-0.008079	
19613	    0	24.571868	-10.706990	-36.015320	4.163204	-1.910488	-3.738948	0.247192	-0.104187	-0.359985	0.999562	0.020813	-0.009551	-0.018692	
19614	    0	87.238479	154.914966	9.364223	1.442558	1.663961	-12.603772	0.968341	1.489424	0.096740	0.997954	0.007208	0.008314	-0.062976	
19615	    0	57.615302	-15.486334	40.540009	-4.282854	-3.330579	-7.116021	0.563477	-0.166199	0.418335	0.998999	-0.021407	-0.016647	-0.035568	
19616	    0	-7.859993	-25.333213	20.336571	0.436473	-2.298159	-5.817794	-0.088256	-0.251300	0.201838	0.999508	0.002182	-0.011489	-0.029084	
19617	    0	-6.724523	22.334504	12.474047	1.297478	-1.671974	-7.016035	-0.060425	0.224731	0.125671	0.999329	0.006486	-0.008358	-0.035072	
19618	    0	11.257935	11.618562	0.160020	0.404976	-1.076819	-5.063435	0.115460	0.113282	0.002448	0.999662	0.002025	-0.005383	-0.025314	
19619	    0	11.275448	8.818272	-4.520081	-0.604298	-1.267157	-4.230086	0.114868	0.085632	-0.044739	0.999751	-0.003021	-0.006335	-0.021149	
19620	    0	0.736389	0.172502	-6.031650	-0.699467	-1.150200	-3.550171	0.007737	0.001379	-0.060278	0.999820	-0.003497	-0.005751	-0.017750	
19621	    0	10.293878	12.351366	-14.867919	-0.997029	-0.572238	-3.555505	0.105530	0.120911	-0.148987	0.999825	-0.004985	-0.002861	-0.017776	
19622	    0	12.699046	9.128704	-6.284960	-0.779950	-0.129133	-3.191901	0.128464	0.088999	-0.063117	0.999865	-0.003900	-0.000646	-0.015959	
19623	    0	11.787395	5.382384	-7.818564	-0.290689	0.284013	-2.681814	0.118469	0.052124	-0.078430	0.999907	-0.001453	0.001420	-0.013409	
19624	    0	16.501810	12.397677	-12.635305	-1.063569	0.791764	-2.323411	0.165935	0.121376	-0.127659	0.999910	-0.005318	0.003959	-0.011617	
19625	    0	17.664289	2.053909	-9.058464	-0.843833	0.867675	-2.158411	0.176453	0.018250	-0.091431	0.999923	-0.004219	0.004338	-0.010792	
19626	    0	24.399575	4.577312	-7.318249	-0.838681	1.135853	-1.902053	0.243993	0.043141	-0.074753	0.999929	-0.004193	0.005679	-0.009510	
19627	    0	27.711133	0.704560	-0.956568	-0.636876	1.100943	-1.712832	0.277100	0.004639	-0.011108	0.999943	-0.003184	0.005505	-0.008564	
19628	    0	24.872719	8.373276	3.294604	-0.822655	0.723280	-1.806865	0.249587	0.081613	0.031706	0.999944	-0.004113	0.003616	-0.009034	
19629	    0	25.331559	0.370093	5.174689	-1.448662	0.314338	-1.721991	0.253418	0.001892	0.051331	0.999935	-0.007243	0.001572	-0.008610	
19630	    0	26.387893	-3.676028	6.353215	-2.215063	-0.161938	-1.214251	0.263600	-0.037653	0.064159	0.999920	-0.011075	-0.000810	-0.006071	
19631	    0	25.635911	-6.143796	9.473656	-3.030525	-0.459118	-0.914040	0.255859	-0.061157	0.096252	0.999871	-0.015152	-0.002295	-0.004570	
19632	    0	23.035467	-12.967909	5.847661	-3.668629	-0.655024	-0.908335	0.229568	-0.129612	0.061607	0.999816	-0.018342	-0.003275	-0.004541	
19633	    0	20.938329	-18.907599	1.273462	-3.375996	-0.579865	-1.017815	0.208374	-0.189880	0.016541	0.999840	-0.016879	-0.002899	-0.005089	
19634	    0	19.891875	-18.071955	-2.451751	-2.446827	-0.305567	-1.328321	0.197746	-0.182315	-0.021991	0.999902	-0.012234	-0.001528	-0.006641	
19635	    0	17.071987	-14.837400	0.595259	-1.310574	0.257880	-2.139339	0.169128	-0.150146	0.006714	0.999920	-0.006553	0.001289	-0.010696	
19636	    0	14.377933	-5.894790	-0.910269	-0.045588	0.733984	-3.358434	0.142728	-0.061353	-0.009614	0.999852	-0.000228	0.003670	-0.016791	
19637	    0	13.121007	-1.355408	-2.885587	1.040180	1.204038	-4.611663	0.130676	-0.016418	-0.029724	0.999702	0.005200	0.006020	-0.023056	
19638	    0	13.243913	3.433010	-3.335130	0.660237	1.529362	-5.908749	0.133119	0.030516	-0.034263	0.999529	0.003301	0.007646	-0.029539	
19639	    0	24.901153	6.228826	-5.293438	0.556476	1.382702	-6.493052	0.250488	0.054321	-0.054504	0.999445	0.002782	0.006912	-0.032459	
19640	    0	32.649972	8.248428	-2.551698	0.167312	1.506379	-7.163313	0.328970	0.070752	-0.027926	0.999330	0.000836	0.007530	-0.035809	
19641	    0	31.667107	-1.968567	0.135444	0.067917	1.469187	-7.279352	0.315674	-0.031189	-0.000977	0.999310	0.000340	0.007344	-0.036388	
19642	    0	35.159215	-7.292238	-1.676934	0.022321	1.327250	-7.339462	0.348480	-0.085749	-0.019098	0.999304	0.000112	0.006635	-0.036689	
19643	    0	38.150748	-12.828316	-2.406615	-0.645592	0.902951	-7.259474	0.376404	-0.142090	-0.025330	0.999326	-0.003227	0.004514	-0.036289	
19644	    0	33.456880	-15.305611	-1.943253	-1.760673	0.509372	-6.967716	0.328916	-0.164750	-0.018859	0.999351	-0.008801	0.002546	-0.034831	
19645	    0	26.269922	-16.755401	-1.348474	-2.660722	0.322026	-6.463416	0.257080	-0.176086	-0.011597	0.999388	-0.013301	0.001610	-0.032310	
19646	    0	21.850292	-17.112391	-3.102764	-2.839608	0.186382	-5.981203	0.213221	-0.177973	-0.028733	0.999451	-0.014195	0.000932	-0.029901	
19647	    0	22.644970	-14.469447	-5.323788	-2.940649	0.366270	-5.445208	0.222290	-0.151550	-0.051453	0.999519	-0.014701	0.001831	-0.027222	
19648	    0	26.963270	-12.716190	-6.312607	-2.589362	0.805575	-4.789957	0.266219	-0.134377	-0.062494	0.999620	-0.012945	0.004027	-0.023947	
19649	    0	27.277749	-13.436271	-6.446732	-1.548123	0.960043	-3.895106	0.269775	-0.140137	-0.064697	0.999768	-0.007740	0.004800	-0.019474	
19650	    0	23.392718	-13.667804	-6.608970	-0.428787	0.782040	-2.756787	0.231752	-0.140025	-0.066701	0.999894	-0.002144	0.003910	-0.013783	
19651	    0	17.399141	-12.627773	-5.850166	0.441175	0.698862	-1.564809	0.172791	-0.127502	-0.059387	0.999960	0.002206	0.003494	-0.007824	
19652	    0	12.415397	-11.356978	-4.215833	0.946431	0.506785	-0.220681	0.123920	-0.113504	-0.043010	0.999985	0.004732	0.002534	-0.001103	
19653	    0	5.883429	-6.569074	-3.799555	0.852213	0.396924	1.364914	0.059204	-0.065125	-0.038391	0.999965	0.004261	0.001985	0.006824	
19654	    0	0.929544	-2.623477	-5.055143	0.563452	0.463884	2.893174	0.009555	-0.025955	-0.050647	0.999888	0.002817	0.002319	0.014465	
19655	    0	-1.209464	-1.773202	-5.518970	0.140582	0.444064	4.210978	-0.011841	-0.017944	-0.055176	0.999775	0.000703	0.002220	0.021053	
19656	    0	-1.578864	-1.728837	-7.095189	-0.157376	0.427681	5.454744	-0.015460	-0.017769	-0.070905	0.999625	-0.000787	0.002138	0.027270	
19657	    0	0.092783	-1.183294	-7.576839	-0.434951	0.400041	6.431935	0.001160	-0.011963	-0.075745	0.999478	-0.002174	0.002000	0.032154	
19658	    0	1.059423	0.033877	-7.538034	-0.550205	0.265945	7.367858	0.010477	0.000519	-0.075396	0.999316	-0.002750	0.001329	0.036831	
19659	    0	1.238085	1.091959	-6.514998	-0.576184	0.058191	8.267289	0.011902	0.011230	-0.065186	0.999141	-0.002880	0.000291	0.041325	
19660	    0	3.515353	-1.160801	-5.294263	-0.396289	-0.194996	8.957622	0.035681	-0.010122	-0.052887	0.998994	-0.001981	-0.000975	0.044773	
19661	    0	6.610232	-3.698987	-4.062749	0.165618	-0.383708	9.345601	0.067810	-0.033813	-0.040527	0.998906	0.000828	-0.001918	0.046711	
19662	    0	9.369339	-3.976102	-3.927111	0.923707	-0.628716	9.597124	0.095573	-0.035023	-0.039142	0.998833	0.004617	-0.003142	0.047967	
19663	    0	11.434621	-2.966314	-4.209954	1.395425	-0.814395	9.865100	0.115784	-0.023682	-0.041809	0.998751	0.006974	-0.004070	0.049305	
19664	    0	12.935508	-1.344554	-3.602995	1.609947	-0.947611	10.165925	0.129974	-0.006560	-0.035486	0.998664	0.008046	-0.004736	0.050807	
19665	    0	14.126975	1.657619	-3.197901	1.852728	-1.184647	10.470233	0.140320	0.024231	-0.030945	0.998569	0.009259	-0.005920	0.052326	
19666	    0	16.841149	5.311595	-3.731020	1.868235	-1.253760	10.764013	0.165445	0.062415	-0.035712	0.998488	0.009336	-0.006266	0.053793	
19667	    0	20.575682	10.570644	-2.457482	1.941350	-1.126681	10.914918	0.199707	0.116943	-0.022339	0.998447	0.009702	-0.005630	0.054546	
19668	    0	22.230765	17.169667	-2.850154	2.300294	-1.054731	10.783748	0.212756	0.183647	-0.025295	0.998466	0.011496	-0.005271	0.053891	
19669	    0	22.334890	23.839071	-3.024026	2.653250	-1.019585	10.347371	0.210754	0.249878	-0.025879	0.998561	0.013260	-0.005095	0.051712	
19670	    0	21.687890	30.092971	-2.488567	3.078675	-1.020500	9.768792	0.201943	0.311363	-0.019089	0.998675	0.015387	-0.005100	0.048822	
19671	    0	22.786940	37.962944	-1.390313	3.397181	-0.861507	9.068818	0.210388	0.389587	-0.006409	0.998818	0.016979	-0.004306	0.045326	
19672	    0	26.224798	46.765327	-2.250997	3.147337	-0.505032	8.009338	0.243285	0.477921	-0.014411	0.999071	0.015732	-0.002524	0.040034	
19673	    0	28.852243	54.459419	-4.621975	2.088726	-0.354067	6.170986	0.271606	0.553589	-0.039978	0.999468	0.010442	-0.001770	0.030849	
19674	    0	18.918194	58.490671	-8.700682	0.618027	-0.402481	4.184847	0.177058	0.588961	-0.084826	0.999774	0.003090	-0.002012	0.020923	
19675	    0	12.229396	55.728810	-10.674717	-0.250823	-0.457013	2.442233	0.115723	0.558594	-0.107178	0.999922	-0.001254	-0.002285	0.012211	
19676	    0	8.228229	52.852526	-8.092106	-0.764279	-0.463870	0.662616	0.080722	0.528481	-0.082752	0.999984	-0.003821	-0.002319	0.003313	
19677	    0	2.631505	50.252039	-2.519213	-1.391428	-0.438696	-0.944531	0.028748	0.502197	-0.028625	0.999962	-0.006957	-0.002193	-0.004723	
19678	    0	6.475338	42.952553	0.131612	-2.234556	-0.625828	-2.255157	0.069596	0.428740	-0.003264	0.999868	-0.011172	-0.003129	-0.011275	
19679	    0	10.577704	26.160884	-12.531345	-2.847493	-1.196184	-2.751356	0.110107	0.258301	-0.128357	0.999785	-0.014236	-0.005980	-0.013756	
19680	    0	27.660962	-2.069493	-9.324178	-5.105600	-0.077259	-3.197200	0.276242	-0.027481	-0.092491	0.999546	-0.025524	-0.000386	-0.015984	
19681	    0	31.093419	-52.850463	-22.881607	-1.964662	-1.001596	-2.538419	0.305298	-0.534607	-0.222046	0.999858	-0.009823	-0.005008	-0.012691	
19682	    0	57.090622	82.475985	-40.525917	4.185988	-1.767061	-9.781046	0.614015	0.803598	-0.382987	0.998546	0.020920	-0.008831	-0.048882	
19683	    0	69.281827	57.601963	58.969517	-4.034151	-0.024999	-10.183465	0.721252	0.551514	0.578491	0.998500	-0.020161	-0.000125	-0.050892	
19684	    0	12.984280	-40.801441	13.410518	-0.755084	-3.544011	-6.024457	0.115068	-0.411114	0.137780	0.999382	-0.003775	-0.017716	-0.030116	
19685	    0	-14.725261	20.403690	18.542318	0.787734	-2.237477	-7.221434	-0.141846	0.208496	0.184631	0.999277	0.003938	-0.011185	-0.036098	
19686	    0	3.516789	14.588100	-5.001368	-0.809613	-1.529185	-6.071527	0.039953	0.144513	-0.050307	0.999501	-0.004047	-0.007645	-0.030353	
19687	    0	3.568914	9.937798	-5.955098	-0.574354	-1.412327	-4.374323	0.038269	0.098389	-0.059570	0.999731	-0.002872	-0.007061	-0.021870	
19688	    0	-1.668208	-0.496413	-4.258986	-0.896315	-0.899176	-3.485689	-0.016576	-0.004866	-0.042643	0.999827	-0.004481	-0.004496	-0.017427	
19689	    0	8.645882	11.125917	-7.928335	-0.340861	-0.701940	-3.424248	0.088623	0.109619	-0.079163	0.999846	-0.001704	-0.003510	-0.017120	
19690	    0	15.440773	14.417848	-5.112372	-0.651005	-0.363747	-3.076491	0.156693	0.141613	-0.051304	0.999874	-0.003255	-0.001819	-0.015382	
19691	    0	11.552884	7.443739	-2.301486	-0.268563	-0.177579	-2.634507	0.116516	0.072876	-0.023010	0.999911	-0.001343	-0.000888	-0.013172	
19692	    0	16.383720	12.346712	-11.598974	-0.963619	0.344667	-2.340762	0.165062	0.120978	-0.116860	0.999918	-0.004818	0.001723	-0.011703	
19693	    0	20.001955	2.821355	-7.974533	-0.580421	0.621811	-2.284297	0.200073	0.025696	-0.080444	0.999926	-0.002902	0.003109	-0.011421	
19694	    0	20.543921	6.252832	-9.286974	-0.207143	1.005579	-2.183204	0.205634	0.060187	-0.093966	0.999927	-0.001036	0.005028	-0.010916	
19695	    0	22.054172	3.320352	-4.915985	-0.136569	1.229311	-1.795995	0.220520	0.031189	-0.050537	0.999940	-0.000683	0.006146	-0.008980	
19696	    0	24.274383	3.404415	-5.997726	-0.125124	1.434542	-1.479366	0.242548	0.032211	-0.061738	0.999947	-0.000626	0.007173	-0.007397	
19697	    0	25.508268	6.775750	-1.624670	-0.418670	1.220724	-1.555660	0.255493	0.065735	-0.017944	0.999949	-0.002093	0.006104	-0.007778	
19698	    0	29.635072	1.313405	2.184150	-1.136988	0.691424	-1.352330	0.296504	0.011250	0.020749	0.999954	-0.005685	0.003457	-0.006762	
19699	    0	29.935498	-2.410268	3.974061	-2.140856	0.058938	-0.901052	0.299255	-0.025024	0.039917	0.999932	-0.010704	0.000295	-0.004505	
19700	    0	28.410614	-11.691513	6.877812	-3.126467	-0.299085	-0.472089	0.283726	-0.116487	0.071026	0.999873	-0.015632	-0.001495	-0.002360	
19701	    0	24.958386	-13.206373	4.954924	-3.296817	-0.567463	-0.350969	0.249207	-0.131653	0.052429	0.999858	-0.016483	-0.002837	-0.001755	
19702	    0	24.053498	-17.933440	-0.340219	-3.423865	-0.704992	-0.153168	0.240400	-0.179532	0.000518	0.999846	-0.017118	-0.003525	-0.000766	
19703	    0	18.946397	-14.304593	-5.031236	-2.671141	-0.244721	-0.945314	0.188843	-0.144592	-0.048157	0.999898	-0.013355	-0.001224	-0.004726	
19704	    0	14.604716	-0.848013	-1.871786	-2.007940	0.057223	-2.205931	0.145935	-0.010278	-0.018662	0.999888	-0.010039	0.000286	-0.011029	
19705	    0	11.518738	9.080596	-1.180875	-1.140657	0.332851	-3.426549	0.116699	0.088745	-0.012512	0.999835	-0.005703	0.001664	-0.017132	
19706	    0	7.106371	12.088824	-2.362758	-1.154259	0.749858	-4.854717	0.073876	0.118978	-0.024591	0.999681	-0.005771	0.003749	-0.024271	
19707	    0	18.001090	9.688465	-4.062042	-0.903259	0.911844	-5.730499	0.182495	0.091492	-0.041870	0.999569	-0.004516	0.004559	-0.028648	
19708	    0	26.360752	2.240118	1.425062	-0.961286	1.371630	-6.348415	0.264232	0.014082	0.012359	0.999461	-0.004806	0.006857	-0.031736	
19709	    0	28.286943	-10.024178	3.298459	-0.148039	1.509582	-6.698399	0.279541	-0.109619	0.030945	0.999410	-0.000740	0.007546	-0.033485	
19710	    0	30.935282	-8.774964	2.764184	0.923564	1.647763	-7.258209	0.306107	-0.099018	0.024671	0.999296	0.004617	0.008237	-0.036283	
19711	    0	35.410523	-4.496746	1.280550	1.031001	1.599730	-7.692442	0.352112	-0.058594	0.009705	0.999215	0.005154	0.007997	-0.038452	
19712	    0	39.751750	-1.574646	0.507748	-0.154537	1.419263	-7.951801	0.396496	-0.031525	0.002281	0.999184	-0.000772	0.007094	-0.039748	
19713	    0	38.564507	-3.944391	0.386578	-1.283415	1.096636	-7.812290	0.383728	-0.054443	0.002075	0.999201	-0.006415	0.005482	-0.039051	
19714	    0	35.986006	-10.815485	-0.218009	-2.068104	0.913095	-7.573573	0.355411	-0.121697	-0.002598	0.999219	-0.010338	0.004564	-0.037858	
19715	    0	33.878573	-14.949935	-1.514229	-2.344355	0.883903	-7.463475	0.332825	-0.162170	-0.014771	0.999225	-0.011719	0.004418	-0.037308	
19716	    0	30.699572	-15.192531	-3.070587	-2.292230	0.856224	-7.190525	0.301133	-0.163172	-0.030176	0.999278	-0.011458	0.004280	-0.035944	
19717	    0	28.010905	-13.749494	-4.911878	-2.061693	0.686023	-6.660298	0.275146	-0.147217	-0.048584	0.999386	-0.010306	0.003429	-0.033295	
19718	    0	27.295659	-12.460098	-5.746656	-1.920074	0.657957	-6.071174	0.268808	-0.133353	-0.057103	0.999487	-0.009599	0.003289	-0.030351	
19719	    0	27.506944	-11.876395	-5.829158	-1.549541	0.791271	-5.315329	0.271545	-0.126465	-0.058411	0.999609	-0.007747	0.003956	-0.026573	
19720	    0	26.736763	-12.366972	-5.002831	-0.994006	0.955284	-4.366493	0.264338	-0.129714	-0.050661	0.999738	-0.004970	0.004776	-0.021831	
19721	    0	22.774459	-12.354962	-5.689381	-0.376147	0.956961	-3.183132	0.225464	-0.127258	-0.057739	0.999860	-0.001881	0.004785	-0.015915	
19722	    0	17.953230	-10.794694	-5.613790	-0.007630	0.999852	-1.909102	0.178207	-0.109654	-0.057027	0.999942	-0.000038	0.004999	-0.009545	
19723	    0	11.791612	-9.033388	-5.688342	0.104714	0.959782	-0.463106	0.117432	-0.090576	-0.057495	0.999985	0.000524	0.004799	-0.002316	
19724	    0	2.376358	-5.740302	-5.207611	0.228312	1.054776	1.224913	0.023839	-0.057198	-0.052267	0.999967	0.001142	0.005274	0.006124	
19725	    0	-3.907445	-2.479307	-6.869941	0.647764	1.217133	2.943550	-0.039124	-0.025146	-0.068542	0.999867	0.003239	0.006085	0.014717	
19726	    0	-7.992278	-0.931135	-9.503166	0.444456	1.596988	4.542603	-0.080442	-0.010924	-0.094414	0.999707	0.002222	0.007984	0.022711	
19727	    0	-7.950773	0.655609	-9.652037	-0.196108	1.897178	6.067154	-0.080566	0.004028	-0.095764	0.999494	-0.000980	0.009484	0.030331	
19728	    0	-3.787920	1.028929	-9.810783	-0.838680	1.805375	7.479245	-0.039102	0.008431	-0.097796	0.999250	-0.004192	0.009025	0.037387	
19729	    0	-3.218228	0.417708	-10.136791	-1.407345	1.536517	8.847803	-0.033081	0.002014	-0.101135	0.998967	-0.007034	0.007680	0.044224	
19730	    0	-2.099608	-3.570060	-9.493966	-1.237640	1.255958	10.019044	-0.019749	-0.037297	-0.094585	0.998706	-0.006186	0.006277	0.050074	
19731	    0	2.498092	-4.731022	-9.378014	-0.383752	0.911387	10.687808	0.027039	-0.046082	-0.093811	0.998560	-0.001918	0.004555	0.053413	
19732	    0	5.988810	-3.770553	-9.168634	0.314299	0.492345	11.001810	0.061608	-0.034203	-0.091892	0.998483	0.001571	0.002460	0.054981	
19733	    0	8.733561	-4.745656	-7.392308	0.636053	0.212972	11.206598	0.089722	-0.042236	-0.074158	0.998425	0.003179	0.001064	0.056004	
19734	    0	10.892747	-3.362258	-7.035016	1.328811	-0.200190	11.361022	0.110654	-0.026899	-0.070434	0.998363	0.006640	-0.001000	0.056774	
19735	    0	12.264094	-0.634339	-6.527524	1.723118	-0.461839	11.501700	0.122864	0.001282	-0.065002	0.998306	0.008611	-0.002308	0.057476	
19736	    0	13.518704	2.244323	-6.611732	2.329313	-0.801566	11.731113	0.133795	0.031085	-0.065250	0.998204	0.011640	-0.004005	0.058620	
19737	    0	15.083793	4.714472	-7.089064	2.930760	-1.029660	11.861983	0.148010	0.057007	-0.069336	0.998120	0.014645	-0.005145	0.059273	
19738	    0	18.151190	8.171824	-6.545783	3.055961	-1.034049	11.831066	0.176552	0.093242	-0.063169	0.998120	0.015270	-0.005167	0.059118	
19739	    0	20.366560	11.705294	-6.097837	3.108821	-1.110007	11.787143	0.196594	0.129700	-0.057922	0.998127	0.015534	-0.005547	0.058899	
19740	    0	23.081647	18.595617	-7.531228	2.943089	-1.158074	11.580171	0.219924	0.199973	-0.071142	0.998199	0.014707	-0.005787	0.057866	
19741	    0	26.356842	27.364683	-6.335357	2.531474	-1.067933	11.085430	0.248169	0.288452	-0.058411	0.998369	0.012650	-0.005337	0.055397	
19742	    0	30.625541	37.774457	-4.962201	1.931524	-0.988088	10.382560	0.286325	0.393404	-0.044424	0.998593	0.009653	-0.004938	0.051888	
19743	    0	34.032774	45.810292	-4.492033	0.908427	-0.828098	9.374677	0.318542	0.473572	-0.041443	0.998882	0.004540	-0.004139	0.046856	
19744	    0	36.957919	52.284095	-2.324154	-0.657439	-0.835439	7.717558	0.349147	0.536502	-0.023503	0.999241	-0.003286	-0.004176	0.038578	
19745	    0	30.807949	55.179484	-2.746274	-2.186169	-0.974238	5.695486	0.292358	0.559937	-0.032104	0.999522	-0.010929	-0.004870	0.028473	
19746	    0	19.983543	54.525423	-3.726187	-3.014303	-0.630635	3.909514	0.189269	0.548385	-0.044904	0.999690	-0.015070	-0.003153	0.019546	
19747	    0	10.723331	52.000692	-4.533628	-2.967997	-0.385878	2.053183	0.101990	0.520325	-0.052856	0.999835	-0.014839	-0.001929	0.010265	
19748	    0	7.272516	49.164199	-3.344472	-2.521202	-0.345049	0.106624	0.072528	0.491208	-0.039514	0.999918	-0.012606	-0.001725	0.000533	
19749	    0	6.509225	41.941511	-0.794317	-2.226133	-0.465407	-1.401561	0.068054	0.418823	-0.012451	0.999910	-0.011130	-0.002327	-0.007008	
19750	    0	7.301368	35.305116	0.321869	-2.296958	-0.575670	-2.797283	0.077940	0.351992	-0.000608	0.999831	-0.011484	-0.002878	-0.013986	
19751	    0	5.427330	31.644014	0.776806	-2.785004	-0.787240	-3.908924	0.060425	0.315369	0.003601	0.999703	-0.013924	-0.003936	-0.019543	
19752	    0	11.669912	21.640131	-3.645384	-3.529989	-1.329207	-3.968162	0.121208	0.213347	-0.039442	0.999625	-0.017648	-0.006645	-0.019838	
19753	    0	17.090057	-38.457629	-13.437640	-4.320769	-1.043806	-2.078456	0.167542	-0.389099	-0.125122	0.999699	-0.021602	-0.005219	-0.010391	
19754	    0	21.521627	-65.411311	-25.025964	-1.716455	0.102045	-1.206992	0.211129	-0.657512	-0.244735	0.999945	-0.008582	0.000510	-0.006035	
19755	    0	61.387660	86.163923	-28.677347	4.284900	0.664221	-8.927003	0.650757	0.839050	-0.270752	0.998769	0.021416	0.003320	-0.044617	
19756	    0	87.784362	83.392321	50.967190	-2.465079	0.042936	-10.366575	0.919781	0.793159	0.499531	0.998581	-0.012320	0.000215	-0.051808	
19757	    0	19.262893	-48.622045	5.383448	-0.990468	-4.134899	-4.876797	0.179504	-0.490417	0.060059	0.999476	-0.004951	-0.020671	-0.024380	
19758	    0	-28.425026	14.504095	22.718597	0.827776	-2.036151	-6.836262	-0.281391	0.153759	0.224936	0.999355	0.004138	-0.010179	-0.034174	
19759	    0	1.381069	15.823282	-0.214093	-0.175499	-0.985653	-5.452664	0.018127	0.157776	-0.002197	0.999616	-0.000877	-0.004928	-0.027260	
19760	    0	14.064132	14.724684	-1.278695	-0.094802	-1.269623	-3.961849	0.143599	0.144416	-0.011950	0.999784	-0.000474	-0.006348	-0.019808	
19761	    0	5.815452	2.668458	-0.979717	-1.360197	-1.132258	-2.948906	0.058594	0.025757	-0.009644	0.999851	-0.006801	-0.005661	-0.014744	
19762	    0	10.608335	6.460503	-9.466102	-1.174790	-1.050426	-2.936690	0.107508	0.062478	-0.094470	0.999861	-0.005874	-0.005252	-0.014683	
19763	    0	14.462276	12.367725	-3.485577	-1.063578	-0.562880	-2.785599	0.146423	0.121460	-0.035095	0.999885	-0.005318	-0.002814	-0.013927	
19764	    0	10.685363	5.433120	-2.865907	-0.168042	-0.252921	-2.430023	0.107539	0.053003	-0.028568	0.999925	-0.000840	-0.001265	-0.012150	
19765	    0	15.141307	13.171257	-15.171946	-0.957320	0.402841	-2.088976	0.152466	0.129395	-0.152649	0.999931	-0.004786	0.002014	-0.010445	
19766	    0	17.461491	1.331136	-11.721796	-0.650228	0.629247	-2.005236	0.174364	0.011180	-0.117805	0.999939	-0.003251	0.003146	-0.010026	
19767	    0	20.685411	2.838309	-12.089714	-0.300414	1.155880	-2.011154	0.206421	0.026123	-0.122131	0.999931	-0.001502	0.005779	-0.010056	
19768	    0	23.070633	-0.357364	-5.597390	-0.102236	1.368933	-1.766623	0.230272	-0.005638	-0.057549	0.999937	-0.000511	0.006845	-0.008833	
19769	    0	22.483979	2.968606	-8.097021	-0.301939	1.504544	-1.432064	0.224426	0.027954	-0.082703	0.999945	-0.001510	0.007523	-0.007160	
19770	    0	25.625605	4.818796	-2.389824	-0.615324	1.507983	-1.602589	0.256440	0.046056	-0.025975	0.999934	-0.003077	0.007540	-0.008013	
19771	    0	29.162479	2.085397	1.131868	-1.638641	0.871297	-1.425203	0.291809	0.018860	0.009888	0.999931	-0.008193	0.004356	-0.007126	
19772	    0	29.484831	-2.353948	3.234884	-2.723787	0.222214	-0.874740	0.294779	-0.024388	0.032350	0.999897	-0.013618	0.001111	-0.004374	
19773	    0	27.212650	-12.631128	4.932077	-3.963733	-0.180638	-0.364709	0.271851	-0.125793	0.052063	0.999801	-0.019817	-0.000903	-0.001823	
19774	    0	22.912996	-14.914097	3.568319	-4.015624	-0.388363	-0.307295	0.228827	-0.148730	0.039117	0.999795	-0.020077	-0.001942	-0.001536	
19775	    0	22.064062	-16.399984	-1.614523	-4.010286	-0.638434	-0.199141	0.220520	-0.164490	-0.012146	0.999793	-0.020050	-0.003192	-0.000996	
19776	    0	18.065834	-14.290729	-5.079529	-3.504178	-0.509671	-0.581391	0.180365	-0.144287	-0.047815	0.999839	-0.017520	-0.002548	-0.002907	
19777	    0	13.043496	-4.644511	-1.858475	-2.922192	-0.015832	-1.566386	0.130066	-0.047729	-0.017883	0.999862	-0.014610	-0.000079	-0.007832	
19778	    0	12.532732	3.829159	-2.251476	-2.075106	0.329415	-2.702845	0.125790	0.036356	-0.023106	0.999853	-0.010375	0.001647	-0.013514	
19779	    0	4.765015	7.181881	-3.591972	-1.635886	0.750226	-4.222478	0.049011	0.070496	-0.036682	0.999736	-0.008179	0.003751	-0.021111	
19780	    0	7.938379	7.318201	-3.257571	-1.387587	1.148565	-5.305984	0.081093	0.070815	-0.033535	0.999607	-0.006937	0.005742	-0.026526	
19781	    0	20.064930	10.443417	-3.509278	-0.770510	1.429230	-6.192311	0.203491	0.098022	-0.036926	0.999487	-0.003852	0.007145	-0.030956	
19782	    0	23.560497	-6.616075	1.304303	0.252195	1.682955	-6.228003	0.233491	-0.073469	0.010983	0.999478	0.001261	0.008413	-0.031135	
19783	    0	29.209407	-10.485624	2.701925	1.297263	1.888853	-6.629777	0.288635	-0.114624	0.023560	0.999385	0.006485	0.009442	-0.033142	
19784	    0	31.310703	-7.190231	2.213872	2.139067	1.869108	-7.304726	0.310382	-0.083484	0.018377	0.999231	0.010693	0.009343	-0.036514	
19785	    0	35.073139	-2.797047	2.337654	1.200426	1.791290	-7.731415	0.349487	-0.041626	0.020020	0.999194	0.006001	0.008954	-0.038647	
19786	    0	40.409783	-0.405583	1.461928	-0.483461	1.630106	-8.123058	0.403591	-0.020428	0.011364	0.999139	-0.002417	0.008148	-0.040604	
19787	    0	38.318727	-4.549324	0.228729	-1.422515	1.213602	-7.953567	0.380981	-0.060669	0.000366	0.999166	-0.007111	0.006066	-0.039757	
19788	    0	34.871733	-13.596201	-2.249951	-2.053403	1.085940	-7.470701	0.343187	-0.149086	-0.022887	0.999234	-0.010264	0.005428	-0.037344	
19789	    0	32.825451	-17.712782	-3.964924	-1.985657	1.151750	-7.335943	0.321228	-0.189392	-0.039673	0.999261	-0.009926	0.005757	-0.036671	
19790	    0	29.762006	-16.211780	-6.063388	-1.629633	1.145437	-7.171760	0.291194	-0.173134	-0.060933	0.999307	-0.008146	0.005726	-0.035851	
19791	    0	27.681146	-12.038512	-6.527568	-1.542983	1.050976	-6.792328	0.272156	-0.130188	-0.065735	0.999379	-0.007713	0.005254	-0.033955	
19792	    0	27.898322	-9.497161	-6.215099	-1.469678	1.187913	-6.190808	0.275484	-0.103997	-0.063052	0.999475	-0.007347	0.005939	-0.030949	
19793	    0	29.045718	-10.202315	-5.485914	-0.998629	1.523028	-5.329837	0.287170	-0.109985	-0.056519	0.999603	-0.004992	0.007614	-0.026646	
19794	    0	27.514129	-13.352629	-5.507254	-0.039676	1.536302	-4.108186	0.271888	-0.139145	-0.057142	0.999759	-0.000198	0.007681	-0.020539	
19795	    0	22.657513	-13.448471	-6.982181	0.612669	1.529955	-2.886333	0.224060	-0.137512	-0.071960	0.999862	0.003063	0.007649	-0.014431	
19796	    0	16.788775	-11.975225	-6.567585	1.164846	1.390109	-1.585045	0.166469	-0.120686	-0.067537	0.999927	0.005824	0.006950	-0.007925	
19797	    0	8.923676	-8.079784	-6.343612	1.462770	1.374840	-0.124361	0.088745	-0.080383	-0.064636	0.999949	0.007314	0.006874	-0.000622	
19798	    0	0.638033	-2.997381	-7.680291	1.574560	1.439516	1.464312	0.006042	-0.029323	-0.077080	0.999916	0.007873	0.007197	0.007321	
19799	    0	-4.997583	-1.553721	-9.686521	1.030980	1.784616	3.051930	-0.050598	-0.015808	-0.096497	0.999830	0.005155	0.008923	0.015259	
19800	    0	-8.031314	-1.413704	-10.051681	0.209068	2.125593	4.683630	-0.081017	-0.015924	-0.099674	0.999668	0.001045	0.010627	0.023416	
19801	    0	-7.100669	-0.577075	-10.401052	-0.566014	2.175540	6.248096	-0.071899	-0.008301	-0.103210	0.999449	-0.002830	0.010876	0.031235	
19802	    0	-3.291140	0.481658	-10.354066	-1.452642	1.951738	7.619600	-0.034052	0.002783	-0.103237	0.999200	-0.007261	0.009756	0.038088	
19803	    0	-3.127305	-0.537821	-9.737255	-2.109335	1.600462	8.922745	-0.031738	-0.007812	-0.097046	0.998917	-0.010543	0.007999	0.044598	
19804	    0	-0.913740	-4.065570	-8.422196	-1.928785	1.194328	9.951142	-0.007575	-0.041868	-0.083774	0.998697	-0.009640	0.005969	0.049734	
19805	    0	4.027235	-5.565119	-7.513362	-1.057169	0.792495	10.547262	0.042847	-0.053833	-0.075012	0.998588	-0.005283	0.003961	0.052711	
19806	    0	7.683913	-5.120484	-6.259965	-0.114115	0.421349	10.834852	0.079329	-0.046987	-0.062737	0.998530	-0.000570	0.002106	0.054148	
19807	    0	10.086445	-4.868426	-5.712038	0.801497	0.023854	11.056839	0.103333	-0.042786	-0.057312	0.998464	0.004005	0.000119	0.055256	
19808	    0	12.624467	-4.627167	-4.863179	1.434341	-0.213548	11.317096	0.128630	-0.038686	-0.048791	0.998373	0.007168	-0.001067	0.056555	
19809	    0	14.884318	-1.711827	-4.755394	2.038985	-0.487608	11.565189	0.149597	-0.007996	-0.047302	0.998273	0.010189	-0.002437	0.057793	
19810	    0	16.211652	1.686367	-4.637431	2.388119	-0.696797	11.830476	0.160880	0.026956	-0.045530	0.998173	0.011933	-0.003482	0.059116	
19811	    0	17.564127	4.045035	-5.796608	2.917261	-0.999331	12.043888	0.173035	0.051758	-0.056396	0.998068	0.014577	-0.004993	0.060181	
19812	    0	21.754219	7.757926	-6.236442	2.865750	-0.933301	12.134444	0.212556	0.091455	-0.060120	0.998046	0.014319	-0.004663	0.060633	
19813	    0	25.012113	13.171308	-4.319767	2.950847	-0.869546	12.028598	0.241760	0.147034	-0.040039	0.998074	0.014745	-0.004345	0.060104	
19814	    0	28.062077	20.910826	-6.245825	3.141416	-0.818753	11.671144	0.268002	0.225933	-0.057881	0.998166	0.015697	-0.004091	0.058320	
19815	    0	29.626883	28.653936	-5.103730	3.176343	-0.758589	11.032085	0.280029	0.303040	-0.045227	0.998345	0.015873	-0.003791	0.055130	
19816	    0	31.290105	36.872914	-4.316196	2.956638	-0.732576	10.186224	0.293718	0.384591	-0.036453	0.998587	0.014776	-0.003661	0.050907	
19817	    0	34.744169	47.186989	-3.430784	2.047112	-0.485400	8.930286	0.325989	0.487061	-0.028564	0.998947	0.010232	-0.002426	0.044636	
19818	    0	34.901699	55.336806	-4.202137	0.475605	-0.546192	7.161924	0.329020	0.565487	-0.039769	0.999352	0.002378	-0.002730	0.035802	
19819	    0	24.450100	59.060462	-8.919683	-1.065195	-0.743767	5.286297	0.229126	0.596313	-0.091492	0.999629	-0.005325	-0.003718	0.026428	
19820	    0	16.043856	55.997605	-9.788683	-1.851776	-0.620883	3.465881	0.151028	0.561712	-0.102604	0.999802	-0.009258	-0.003104	0.017328	
19821	    0	11.846538	52.434088	-7.729983	-2.143733	-0.480666	1.516006	0.114685	0.524353	-0.082642	0.999910	-0.010718	-0.002403	0.007580	
19822	    0	6.712929	50.159967	-3.438595	-2.353916	-0.352296	-0.339135	0.068047	0.501035	-0.040166	0.999928	-0.011769	-0.001761	-0.001696	
19823	    0	4.054326	43.577754	-2.267369	-2.721533	-0.430127	-1.929565	0.044800	0.434998	-0.028503	0.999858	-0.013607	-0.002151	-0.009647	
19824	    0	5.672222	34.827441	-1.021448	-3.158840	-0.608306	-3.200233	0.062325	0.347090	-0.015519	0.999743	-0.015793	-0.003041	-0.016000	
19825	    0	5.421470	26.043751	2.254106	-3.489909	-0.847726	-3.950207	0.059265	0.259644	0.018250	0.999643	-0.017447	-0.004238	-0.019749	
19826	    0	13.497829	2.399695	-7.544014	-3.453423	-1.585171	-3.237679	0.135923	0.020507	-0.074739	0.999688	-0.017265	-0.007925	-0.016187	
19827	    0	16.298810	-50.269656	-20.652953	-3.494490	-0.982539	-1.556498	0.160034	-0.507446	-0.196899	0.999804	-0.017471	-0.004912	-0.007782	
19828	    0	16.737010	-39.686146	-49.471167	3.419201	-2.514854	-1.247126	0.171185	-0.389411	-0.499275	0.999755	0.017095	-0.012573	-0.006235	
19829	    0	98.548628	162.480418	-22.038699	1.768636	2.887849	-13.750501	1.090820	1.554138	-0.221680	0.997494	0.008836	0.014427	-0.068695	
19830	    0	77.423616	-0.949218	57.753875	-4.502792	-3.145467	-6.860079	0.764394	-0.022636	0.590026	0.999034	-0.022507	-0.015722	-0.034289	
19831	    0	-9.048373	-34.016575	12.526942	-2.071767	-2.572921	-5.816972	-0.101929	-0.335999	0.127502	0.999440	-0.010357	-0.012862	-0.029079	
19832	    0	-18.799332	16.479689	22.516784	0.671326	-1.602101	-6.589639	-0.184244	0.170156	0.224247	0.999419	0.003356	-0.008009	-0.032942	
19833	    0	8.044520	7.934085	-2.246514	0.528006	-0.849808	-4.759685	0.082397	0.077454	-0.021912	0.999703	0.002640	-0.004249	-0.023796	
19834	    0	13.725120	16.561792	-0.528934	-0.398091	-1.146967	-3.865125	0.140446	0.162914	-0.004816	0.999794	-0.001990	-0.005734	-0.019324	
19835	    0	-0.365586	2.393218	-4.051561	-1.473314	-1.215236	-3.005377	-0.003052	0.023682	-0.040710	0.999841	-0.007366	-0.006076	-0.015026	
19836	    0	10.030783	6.619737	-8.296022	-1.286956	-1.017433	-3.142712	0.101748	0.064073	-0.082862	0.999843	-0.006434	-0.005087	-0.015713	
19837	    0	14.971154	12.201021	-3.204543	-0.713187	-0.571465	-3.003053	0.151611	0.119629	-0.032043	0.999876	-0.003566	-0.002857	-0.015015	
19838	    0	10.133631	8.218788	-2.715621	-0.206381	-0.338755	-2.621346	0.102448	0.080822	-0.027067	0.999911	-0.001032	-0.001694	-0.013106	
19839	    0	14.685744	9.687910	-12.646088	-0.806255	0.145725	-2.225547	0.147827	0.094727	-0.126953	0.999929	-0.004031	0.000729	-0.011127	
19840	    0	17.340910	4.044923	-12.729131	-0.577176	0.474368	-2.138184	0.173523	0.038226	-0.127815	0.999935	-0.002886	0.002372	-0.010691	
19841	    0	18.938566	0.729077	-9.905431	-0.200657	0.838677	-1.924169	0.189026	0.005371	-0.099854	0.999944	-0.001003	0.004193	-0.009621	
19842	    0	23.493347	5.550513	-4.399056	-0.134280	1.176092	-1.670485	0.235122	0.053512	-0.045409	0.999948	-0.000671	0.005880	-0.008352	
19843	    0	24.317411	3.750245	-3.535332	-0.354772	1.190395	-1.474785	0.243225	0.035645	-0.036865	0.999953	-0.001774	0.005952	-0.007374	
19844	    0	25.236133	5.971436	-0.364480	-0.537500	1.067942	-1.574733	0.252796	0.057713	-0.005151	0.999950	-0.002687	0.005340	-0.007874	
19845	    0	27.477036	1.317158	1.846461	-1.379418	0.584612	-1.324485	0.274902	0.011475	0.017578	0.999949	-0.006897	0.002923	-0.006622	
19846	    0	27.025481	-2.929962	2.126473	-2.504231	0.039483	-0.837350	0.270134	-0.030162	0.021585	0.999912	-0.012521	0.000197	-0.004187	
19847	    0	26.392449	-10.342410	4.485723	-3.445421	-0.318162	-0.582153	0.263550	-0.103394	0.047058	0.999846	-0.017226	-0.001591	-0.002911	
19848	    0	24.064798	-13.166265	2.290025	-3.654122	-0.621832	-0.593411	0.240179	-0.131919	0.026056	0.999824	-0.018270	-0.003109	-0.002967	
19849	    0	23.199839	-17.789894	-2.282248	-3.598040	-0.859120	-0.442530	0.231689	-0.178772	-0.018616	0.999826	-0.017989	-0.004295	-0.002213	
19850	    0	19.565826	-14.028742	-2.980966	-3.202593	-0.745428	-0.893445	0.195131	-0.141605	-0.026821	0.999854	-0.016012	-0.003727	-0.004467	
19851	    0	12.752131	-7.791224	0.977977	-2.710841	-0.319495	-1.714399	0.126831	-0.078857	0.011047	0.999869	-0.013554	-0.001597	-0.008572	
19852	    0	11.247842	1.375134	-0.295198	-1.903434	0.176247	-2.792301	0.112653	0.012150	-0.003172	0.999856	-0.009517	0.000881	-0.013961	
19853	    0	8.890862	3.901756	-2.499397	-1.403733	0.705777	-4.144626	0.089600	0.036987	-0.025574	0.999754	-0.007018	0.003529	-0.020721	
19854	    0	11.093119	2.639194	-2.849395	-1.041353	1.140166	-5.288030	0.111409	0.023299	-0.029255	0.999620	-0.005206	0.005700	-0.026437	
19855	    0	23.269450	7.829133	-3.608937	-0.565431	1.372181	-6.102230	0.234680	0.071045	-0.037903	0.999507	-0.002827	0.006860	-0.030506	
19856	    0	26.885713	-2.065946	3.243898	-0.129724	1.868591	-6.367899	0.268306	-0.029189	0.029947	0.999449	-0.000648	0.009341	-0.031834	
19857	    0	28.853333	-6.837769	2.206928	0.999656	1.762943	-6.722114	0.286194	-0.078125	0.019165	0.999383	0.004997	0.008813	-0.033604	
19858	    0	30.941828	-5.935347	0.665676	1.134756	1.692977	-7.203831	0.307053	-0.070470	0.003672	0.999299	0.005672	0.008463	-0.036011	
19859	    0	36.296669	-4.541829	0.598935	0.447193	1.692044	-7.483226	0.360962	-0.058960	0.002808	0.999261	0.002235	0.008458	-0.037407	
19860	    0	38.986555	-5.256756	-0.251169	-0.410756	1.237802	-7.695626	0.387434	-0.067517	-0.004786	0.999238	-0.002053	0.006187	-0.038468	
19861	    0	34.877528	-11.501723	-1.157422	-1.499524	0.760255	-7.275555	0.344238	-0.127686	-0.011963	0.999303	-0.007496	0.003800	-0.036369	
19862	    0	29.514819	-16.435492	-1.484100	-2.275208	0.713888	-6.891633	0.289199	-0.174552	-0.013933	0.999335	-0.011374	0.003569	-0.034451	
19863	    0	25.990221	-16.711427	-2.945959	-2.106910	0.677058	-6.676333	0.254028	-0.175964	-0.028503	0.999381	-0.010532	0.003385	-0.033375	
19864	    0	24.412073	-14.322194	-4.922385	-2.054413	0.698222	-6.388350	0.239201	-0.151417	-0.048537	0.999431	-0.010270	0.003490	-0.031936	
19865	    0	24.221809	-10.527834	-6.516041	-2.058565	0.663869	-5.961845	0.238708	-0.113098	-0.064819	0.999496	-0.010291	0.003319	-0.029804	
19866	    0	25.386540	-8.932777	-6.384992	-1.889109	0.865865	-5.376034	0.251055	-0.096706	-0.064051	0.999584	-0.009444	0.004329	-0.026876	
19867	    0	25.538720	-9.631316	-5.976855	-1.263362	1.162072	-4.560540	0.252747	-0.102478	-0.060608	0.999702	-0.006316	0.005810	-0.022800	
19868	    0	22.596858	-12.128775	-6.094544	-0.273147	1.107274	-3.371035	0.223539	-0.125154	-0.062018	0.999842	-0.001366	0.005536	-0.016854	
19869	    0	18.542000	-12.304990	-6.459097	0.439655	1.143675	-2.140099	0.183716	-0.124878	-0.065918	0.999924	0.002198	0.005718	-0.010700	
19870	    0	13.799676	-10.338519	-5.655372	1.071561	1.005948	-0.869952	0.137258	-0.103676	-0.057800	0.999963	0.005358	0.005030	-0.004350	
19871	    0	5.839824	-5.568729	-5.362187	1.441402	0.821697	0.627144	0.058350	-0.055115	-0.054260	0.999960	0.007207	0.004108	0.003136	
19872	    0	-1.594159	-0.037749	-7.068411	1.548243	0.835445	2.098912	-0.016235	0.000000	-0.070618	0.999906	0.007741	0.004177	0.010494	
19873	    0	-6.304650	1.930169	-7.954905	0.762412	1.182626	3.492180	-0.063843	0.018494	-0.079102	0.999823	0.003812	0.005913	0.017460	
19874	    0	-8.095293	1.712088	-8.330737	-0.010301	1.369630	4.999911	-0.081915	0.015077	-0.082749	0.999663	-0.000051	0.006847	0.024997	
19875	    0	-5.278585	0.778787	-8.834917	-0.808097	1.359229	6.354895	-0.053589	0.005737	-0.088013	0.999463	-0.004040	0.006795	0.031769	
19876	    0	-2.782771	0.031015	-9.157216	-1.281294	1.064756	7.542387	-0.028285	-0.001337	-0.091417	0.999254	-0.006405	0.005322	0.037703	
19877	    0	-2.421032	-0.687331	-8.071306	-1.411698	0.748683	8.610998	-0.024170	-0.008484	-0.080566	0.999041	-0.007056	0.003742	0.043041	
19878	    0	1.076136	-2.623126	-6.519160	-0.947162	0.384284	9.419913	0.011865	-0.025998	-0.065090	0.998878	-0.004734	0.001921	0.047082	
19879	    0	4.984411	-3.361802	-5.110607	-0.303582	0.113724	9.851247	0.051392	-0.031189	-0.051086	0.998785	-0.001517	0.000568	0.049236	
19880	    0	7.266766	-3.186407	-4.374372	0.473795	-0.169444	10.070680	0.074182	-0.028049	-0.043751	0.998729	0.002368	-0.000847	0.050332	
19881	    0	9.396443	-3.457065	-4.471896	1.148165	-0.334317	10.292843	0.095642	-0.029419	-0.044739	0.998657	0.005738	-0.001671	0.051441	
19882	    0	11.566459	-2.635051	-3.370652	1.794896	-0.379359	10.462720	0.116884	-0.019953	-0.033684	0.998590	0.008970	-0.001896	0.052289	
19883	    0	13.195651	-0.314039	-3.712204	2.461896	-0.539667	10.636092	0.131958	0.004333	-0.036743	0.998507	0.012303	-0.002697	0.053154	
19884	    0	14.966144	2.174781	-3.779075	2.898425	-0.579571	10.915468	0.148267	0.030408	-0.036961	0.998402	0.014484	-0.002896	0.054548	
19885	    0	16.375043	4.722736	-4.219686	3.341470	-0.651920	11.153627	0.160889	0.056946	-0.040771	0.998301	0.016698	-0.003258	0.055737	
19886	    0	19.699937	7.476621	-4.555551	3.422057	-0.546773	11.296549	0.192454	0.086484	-0.043612	0.998255	0.017100	-0.002732	0.056450	
19887	    0	23.235944	11.369899	-4.767318	3.549743	-0.447153	11.292001	0.225525	0.127380	-0.044983	0.998246	0.017738	-0.002234	0.056427	
19888	    0	26.792099	17.959222	-6.654394	3.764563	-0.339127	11.015440	0.257562	0.195176	-0.062524	0.998304	0.018812	-0.001695	0.055046	
19889	    0	27.901411	26.086419	-6.140760	3.724253	-0.200563	10.330815	0.265076	0.275879	-0.056091	0.998492	0.018612	-0.001002	0.051628	
19890	    0	26.648176	33.775829	-5.773609	3.533299	-0.337168	9.310759	0.250444	0.350613	-0.051185	0.998758	0.017659	-0.001685	0.046535	
19891	    0	26.751805	43.010991	-6.693296	2.997943	-0.531170	8.052260	0.250061	0.441345	-0.059692	0.999073	0.014985	-0.002655	0.040249	
19892	    0	26.519482	52.403892	-8.694339	1.707212	-0.607034	6.524188	0.248156	0.533032	-0.081648	0.999427	0.008534	-0.003035	0.032615	
19893	    0	21.919497	58.206391	-7.740572	0.122082	-0.834548	4.806232	0.205444	0.587158	-0.076172	0.999701	0.000610	-0.004172	0.024029	
19894	    0	13.663345	57.052318	-7.115640	-1.193680	-0.801509	3.194019	0.127797	0.572175	-0.074044	0.999846	-0.005968	-0.004007	0.015969	
19895	    0	10.346103	52.661773	-5.849887	-2.047024	-0.576608	1.483959	0.099731	0.526733	-0.063599	0.999915	-0.010235	-0.002883	0.007420	
19896	    0	8.545077	48.344517	-4.169105	-2.521394	-0.417339	-0.274666	0.086209	0.482752	-0.047601	0.999917	-0.012607	-0.002087	-0.001373	
19897	    0	5.584753	42.191203	-1.558867	-2.770167	-0.426502	-1.718217	0.059509	0.421143	-0.021301	0.999865	-0.013850	-0.002132	-0.008591	
19898	    0	3.701243	32.932620	1.150471	-3.051598	-0.542489	-2.804388	0.041604	0.328890	0.006593	0.999782	-0.015257	-0.002712	-0.014021	
19899	    0	10.751511	21.940157	1.145143	-3.415819	-0.941558	-3.253488	0.111023	0.217773	0.008240	0.999710	-0.017077	-0.004707	-0.016266	
19900	    0	12.213415	-14.122592	-14.666580	-3.773438	-0.828432	-2.347955	0.121042	-0.145378	-0.143446	0.999744	-0.018866	-0.004142	-0.011739	
19901	    0	22.370601	-50.123118	-28.948422	-2.325319	-0.595111	-1.236762	0.221436	-0.505920	-0.282959	0.999908	-0.011626	-0.002975	-0.006184	
19902	    0	44.609943	35.331097	-64.804313	5.622799	-3.178685	-6.077851	0.467036	0.357225	-0.630721	0.999017	0.028105	-0.015888	-0.030379	
19903	    0	98.122830	126.842585	33.939046	-2.055186	2.238603	-12.198277	1.059814	1.208679	0.315186	0.998025	-0.010269	0.011186	-0.060951	
19904	    0	34.390189	-33.059658	24.547517	-4.668881	-4.450424	-5.548434	0.328979	-0.333895	0.260678	0.999095	-0.023337	-0.022245	-0.027734	
19905	    0	-23.700486	0.271487	18.646583	-1.815413	-2.291396	-6.458872	-0.238831	0.012085	0.183655	0.999372	-0.009075	-0.011455	-0.032288	
19906	    0	-3.584869	9.161917	7.643102	0.326967	-1.367005	-5.745581	-0.033722	0.092484	0.076346	0.999562	0.001635	-0.006834	-0.028724	
19907	    0	13.765716	9.817546	-6.972110	0.145924	-0.978169	-4.323932	0.140076	0.095215	-0.068970	0.999754	0.000730	-0.004890	-0.021618	
19908	    0	2.682715	10.540634	-3.180318	-1.418203	-1.194457	-3.422762	0.028815	0.104696	-0.032379	0.999810	-0.007091	-0.005972	-0.017113	
19909	    0	2.738060	-0.078354	-3.748084	-1.012470	-0.882573	-3.136596	0.027527	-0.001404	-0.037354	0.999854	-0.005062	-0.004413	-0.015682	
19910	    0	14.191092	9.723975	-7.599813	-0.836792	-0.675804	-3.127431	0.143661	0.094685	-0.075914	0.999863	-0.004184	-0.003379	-0.015636	
19911	    0	12.540433	10.572649	-1.718289	-0.309764	-0.403418	-2.780244	0.126892	0.103943	-0.017090	0.999900	-0.001549	-0.002017	-0.013901	
19912	    0	13.276396	8.092758	-5.195330	-0.268942	-0.179486	-2.350862	0.133749	0.079289	-0.051941	0.999929	-0.001345	-0.000897	-0.011754	
19913	    0	18.757577	10.483297	-12.480616	-0.844404	0.327309	-2.264460	0.188538	0.102173	-0.125549	0.999926	-0.004222	0.001637	-0.011322	
19914	    0	18.998013	0.186711	-9.635343	-0.603498	0.552762	-2.126168	0.189716	-0.000443	-0.096879	0.999934	-0.003017	0.002764	-0.010631	
19915	    0	20.194902	4.315830	-7.414356	-0.188259	1.002521	-1.870763	0.201965	0.041199	-0.075195	0.999943	-0.000941	0.005013	-0.009354	
19916	    0	22.711827	6.125254	-2.408914	-0.133135	1.153393	-1.644735	0.227468	0.059366	-0.025440	0.999949	-0.000666	0.005767	-0.008224	
19917	    0	24.171696	3.928139	-5.123066	-0.433356	1.125543	-1.451132	0.241699	0.037415	-0.052673	0.999955	-0.002167	0.005628	-0.007256	
19918	    0	27.510983	3.997172	0.062759	-0.935569	0.928703	-1.426338	0.275384	0.038007	-0.000832	0.999952	-0.004678	0.004643	-0.007132	
19919	    0	30.238912	-0.051443	2.476685	-1.904338	0.404557	-1.185634	0.302429	-0.002075	0.024170	0.999934	-0.009521	0.002023	-0.005928	
19920	    0	28.980431	-6.769862	2.857557	-3.066957	-0.209817	-0.903550	0.289465	-0.068555	0.029926	0.999871	-0.015334	-0.001049	-0.004518	
19921	    0	26.586665	-15.902226	5.078832	-3.578392	-0.609433	-0.790451	0.265076	-0.159119	0.054443	0.999827	-0.017891	-0.003047	-0.003952	
19922	    0	23.123724	-15.525707	2.547289	-3.579542	-0.769088	-0.891357	0.230436	-0.155786	0.029145	0.999822	-0.017897	-0.003845	-0.004457	
19923	    0	19.614847	-14.999118	-2.836166	-3.729296	-0.846917	-0.849206	0.195618	-0.151306	-0.024719	0.999807	-0.018645	-0.004234	-0.004246	
19924	    0	15.991366	-13.563183	-1.927560	-3.059726	-0.402089	-1.457667	0.158954	-0.137063	-0.016866	0.999854	-0.015298	-0.002010	-0.007288	
19925	    0	12.333219	-6.008752	0.548096	-2.314863	0.136000	-2.349197	0.122620	-0.061462	0.006104	0.999864	-0.011574	0.000680	-0.011745	
19926	    0	12.974776	1.351747	-2.774421	-1.072751	0.468470	-3.407472	0.129886	0.011155	-0.028112	0.999837	-0.005363	0.002342	-0.017036	
19927	    0	10.189481	4.157212	-4.185804	-0.877279	0.874417	-4.777249	0.102661	0.038940	-0.042480	0.999695	-0.004386	0.004372	-0.023884	
19928	    0	14.640304	2.595117	-4.327226	-0.526692	1.112902	-5.636234	0.146811	0.021702	-0.044149	0.999583	-0.002633	0.005564	-0.028177	
19929	    0	25.917016	7.490948	-3.961017	-0.182184	1.311724	-6.359455	0.261108	0.066589	-0.041382	0.999472	-0.000911	0.006557	-0.031792	
19930	    0	28.222709	-3.764313	2.418773	0.383829	1.497544	-6.462523	0.280984	-0.046781	0.021996	0.999448	0.001919	0.007486	-0.032307	
19931	    0	28.540213	-6.115765	1.992050	0.951010	1.336947	-6.858721	0.283203	-0.070984	0.017700	0.999378	0.004754	0.006683	-0.034286	
19932	    0	30.988802	-4.932744	1.404420	0.840569	1.271919	-7.237749	0.307912	-0.060549	0.011843	0.999315	0.004202	0.006358	-0.036180	
19933	    0	34.465579	-3.890189	1.018329	0.144992	1.040318	-7.373225	0.342957	-0.051575	0.008362	0.999307	0.000725	0.005200	-0.036858	
19934	    0	35.453123	-5.408815	-0.319772	-0.978314	0.663911	-7.350903	0.352212	-0.067082	-0.004063	0.999307	-0.004890	0.003319	-0.036746	
19935	    0	31.410786	-10.025329	-0.956112	-2.014599	0.395479	-6.929761	0.310364	-0.111145	-0.009094	0.999347	-0.010071	0.001977	-0.034641	
19936	    0	27.437049	-13.819766	-1.004841	-2.572978	0.375063	-6.582680	0.269606	-0.147243	-0.008701	0.999373	-0.012862	0.001875	-0.032907	
19937	    0	25.068854	-14.074275	-2.394711	-2.417273	0.424277	-6.384759	0.245972	-0.148926	-0.022705	0.999414	-0.012084	0.002121	-0.031918	
19938	    0	24.132225	-12.018625	-3.751285	-2.455204	0.471964	-6.116645	0.237401	-0.127940	-0.036537	0.999454	-0.012274	0.002359	-0.030578	
19939	    0	24.070437	-8.925211	-5.476441	-2.327328	0.495416	-5.637476	0.237915	-0.096619	-0.054260	0.999532	-0.011635	0.002477	-0.028183	
19940	    0	25.116601	-8.876524	-6.184458	-1.919207	0.723351	-4.875752	0.248670	-0.095442	-0.061852	0.999650	-0.009595	0.003616	-0.024376	
19941	    0	24.068989	-10.984403	-5.392157	-1.211637	0.908156	-3.928665	0.238220	-0.114868	-0.054321	0.999778	-0.006058	0.004540	-0.019642	
19942	    0	20.379945	-11.008052	-6.109751	-0.415435	0.927766	-2.690599	0.202007	-0.112934	-0.061805	0.999896	-0.002077	0.004639	-0.013453	
19943	    0	16.435013	-9.442561	-4.947031	0.032807	0.985922	-1.496144	0.163391	-0.095642	-0.050293	0.999959	0.000164	0.004930	-0.007481	
19944	    0	10.422076	-7.142252	-4.205221	0.462915	0.851825	-0.159646	0.103983	-0.071407	-0.042661	0.999988	0.002315	0.004259	-0.000798	
19945	    0	2.049212	-3.796234	-5.006620	1.135271	0.719654	1.367208	0.020569	-0.037537	-0.050354	0.999953	0.005676	0.003598	0.006836	
19946	    0	-2.581040	-1.051520	-7.110790	1.344739	0.931208	2.780844	-0.025996	-0.010398	-0.071057	0.999869	0.006723	0.004656	0.013904	
19947	    0	-6.318904	-0.156372	-8.223571	1.162822	1.259915	4.265207	-0.063660	-0.002441	-0.081848	0.999736	0.005814	0.006299	0.021324	
19948	    0	-6.424700	0.746574	-8.963345	0.469465	1.564248	5.601533	-0.065125	0.005859	-0.089111	0.999574	0.002347	0.007820	0.028004	
19949	    0	-2.785136	0.381421	-8.767811	-0.114464	1.526374	6.742676	-0.028625	0.002808	-0.087463	0.999402	-0.000572	0.007630	0.033707	
19950	    0	-1.363631	0.175517	-9.119721	-0.464181	1.278452	7.849098	-0.014268	0.000992	-0.091110	0.999207	-0.002320	0.006391	0.039235	
19951	    0	-0.677148	-1.152062	-7.898399	-0.523551	1.030502	8.862202	-0.006653	-0.012024	-0.078918	0.999002	-0.002617	0.005151	0.044296	
19952	    0	2.687840	-2.861381	-6.592351	-0.180314	0.763232	9.564254	0.027955	-0.027353	-0.066004	0.998849	-0.000901	0.003815	0.047803	
19953	    0	5.885613	-3.417094	-5.671531	0.421509	0.544202	9.974247	0.060303	-0.031067	-0.056946	0.998751	0.002107	0.002720	0.049850	
19954	    0	8.071276	-3.431594	-5.620477	1.118967	0.311036	10.272404	0.082233	-0.029801	-0.056507	0.998664	0.005592	0.001554	0.051339	
19955	    0	10.311405	-2.981491	-5.707918	1.520693	0.187010	10.602298	0.104431	-0.023865	-0.057373	0.998566	0.007600	0.000935	0.052986	
19956	    0	12.597645	-2.249563	-4.784535	1.785424	0.059730	10.908148	0.126923	-0.015160	-0.048040	0.998472	0.008923	0.000299	0.054513	
19957	    0	14.717108	0.164305	-5.793988	2.123094	-0.163359	11.297725	0.146790	0.010559	-0.057739	0.998348	0.010610	-0.000816	0.056458	
19958	    0	16.974653	3.359457	-5.991381	2.177945	-0.229780	11.667617	0.167447	0.044060	-0.059278	0.998239	0.010883	-0.001148	0.058304	
19959	    0	19.240965	6.376792	-6.518691	2.307194	-0.415291	11.841142	0.188293	0.075745	-0.063965	0.998178	0.011529	-0.002075	0.059170	
19960	    0	23.410208	10.000675	-6.032052	2.263858	-0.400212	11.792025	0.227762	0.114236	-0.058620	0.998196	0.011312	-0.002000	0.058925	
19961	    0	26.427741	16.179489	-6.004848	2.686545	-0.564142	11.521015	0.254517	0.177429	-0.057007	0.998247	0.013425	-0.002819	0.057571	
19962	    0	27.776458	22.850106	-7.382736	3.016570	-0.677664	10.938238	0.264927	0.244298	-0.069308	0.998384	0.015075	-0.003386	0.054662	
19963	    0	27.710610	29.488422	-7.103464	3.234303	-0.918253	10.140472	0.261963	0.309509	-0.064880	0.998573	0.016164	-0.004589	0.050678	
19964	    0	28.308260	38.832330	-5.593947	3.259613	-1.158982	9.110431	0.265282	0.401505	-0.047894	0.998813	0.016292	-0.005793	0.045534	
19965	    0	29.690110	47.648875	-5.243102	2.647395	-1.200257	7.763606	0.278381	0.488159	-0.044312	0.999141	0.013233	-0.006000	0.038807	
19966	    0	28.883146	54.401015	-4.668024	0.909190	-1.196102	6.057387	0.272442	0.552628	-0.042519	0.999513	0.004545	-0.005980	0.030282	
19967	    0	18.564306	57.862879	-6.117035	-0.872877	-1.151946	4.274349	0.173584	0.582153	-0.062683	0.999745	-0.004364	-0.005759	0.021370	
19968	    0	12.094625	55.826935	-6.837354	-2.199284	-0.915001	2.545295	0.114165	0.558958	-0.073985	0.999847	-0.010996	-0.004575	0.012726	
19969	    0	9.683853	50.928247	-4.741413	-2.596939	-0.655386	0.752283	0.095093	0.508972	-0.053711	0.999903	-0.012984	-0.003277	0.003761	
19970	    0	6.547895	44.566653	-0.532537	-2.466276	-0.479140	-0.958853	0.067636	0.445236	-0.010657	0.999909	-0.012331	-0.002396	-0.004794	
19971	    0	5.911241	37.206980	1.659020	-2.413872	-0.330370	-2.491886	0.063721	0.371460	0.012207	0.999847	-0.012069	-0.001652	-0.012459	
19972	    0	6.112202	30.874486	2.871220	-2.559496	-0.360710	-3.685118	0.066753	0.307884	0.024885	0.999746	-0.012796	-0.001803	-0.018424	
19973	    0	7.459077	20.794468	5.478672	-3.001746	-0.531639	-4.250057	0.078857	0.207092	0.051880	0.999658	-0.015007	-0.002658	-0.021248	
19974	    0	12.438877	-8.466133	-11.157772	-3.181378	-1.393260	-3.277518	0.123727	-0.088444	-0.109327	0.999715	-0.015905	-0.006966	-0.016386	
19975	    0	15.210334	-63.808492	-33.594414	-3.249358	-1.464929	-1.149054	0.150818	-0.644287	-0.324402	0.999825	-0.016246	-0.007324	-0.005745	
19976	    0	17.677681	-14.805085	-60.909931	3.883601	-2.643878	-2.124831	0.183330	-0.138143	-0.609451	0.999667	0.019416	-0.013218	-0.010623	
19977	    0	108.828824	173.202420	20.065088	-0.430519	3.728236	-14.679259	1.214722	1.646301	0.175171	0.997131	-0.002151	0.018623	-0.073326	
19978	    0	61.874250	-32.135996	31.643281	-5.319687	-4.419112	-5.809279	0.601915	-0.330199	0.338566	0.998980	-0.026589	-0.022088	-0.029037	
19979	    0	-13.450312	-16.885674	24.102278	-1.872618	-2.024282	-6.258086	-0.142090	-0.162231	0.241150	0.999415	-0.009361	-0.010119	-0.031284	
19980	    0	-14.216838	12.030779	14.840371	0.594246	-1.493723	-6.373027	-0.139354	0.124339	0.147721	0.999459	0.002971	-0.007467	-0.031859	
19981	    0	13.586515	13.884650	-4.777430	0.123608	-0.826152	-4.713127	0.139282	0.135620	-0.047119	0.999713	0.000618	-0.004130	-0.023563	
19982	    0	6.855148	11.928374	-4.456457	-1.206867	-1.296519	-3.769384	0.071070	0.117690	-0.044823	0.999783	-0.006034	-0.006482	-0.018846	
19983	    0	-0.609613	-3.378172	-3.585969	-1.084001	-0.923967	-3.183908	-0.006470	-0.033875	-0.035706	0.999847	-0.005420	-0.004620	-0.015919	
19984	    0	11.962660	9.908057	-8.201981	-0.666078	-0.829546	-3.226817	0.121541	0.096857	-0.081843	0.999855	-0.003330	-0.004148	-0.016133	
19985	    0	14.908798	13.092150	-4.249828	-0.546096	-0.412004	-3.011442	0.151123	0.128540	-0.042542	0.999880	-0.002730	-0.002060	-0.015057	
19986	    0	10.735867	7.989618	-2.948651	-0.103190	-0.138668	-2.603986	0.108407	0.078474	-0.029452	0.999914	-0.000516	-0.000693	-0.013020	
19987	    0	15.702595	11.540977	-14.673995	-0.987270	0.357256	-2.318636	0.158081	0.112854	-0.147583	0.999919	-0.004936	0.001786	-0.011593	
19988	    0	17.567530	1.689860	-11.699903	-0.816365	0.687998	-2.177483	0.175438	0.014508	-0.117665	0.999926	-0.004082	0.003440	-0.010887	
19989	    0	20.691679	3.324320	-9.050593	-0.527775	1.108576	-1.989791	0.206726	0.030945	-0.091736	0.999931	-0.002639	0.005543	-0.009949	
19990	    0	24.581711	4.821209	-3.405075	-0.278669	1.219009	-1.718363	0.246005	0.046050	-0.035615	0.999943	-0.001393	0.006095	-0.008592	
19991	    0	25.014985	4.359862	-0.912841	-0.085260	1.274894	-1.621275	0.250427	0.041565	-0.010742	0.999947	-0.000426	0.006374	-0.008106	
19992	    0	25.374460	6.247825	1.219418	-0.604068	0.995272	-1.663809	0.254309	0.060398	0.010745	0.999948	-0.003020	0.004976	-0.008319	
19993	    0	28.472349	-1.123329	3.422937	-1.241132	0.560770	-1.431298	0.284729	-0.013062	0.033508	0.999950	-0.006206	0.002804	-0.007156	
19994	    0	28.333598	-5.345784	3.456405	-2.295935	0.040628	-0.968577	0.283081	-0.054428	0.035128	0.999922	-0.011479	0.000203	-0.004843	
19995	    0	25.551482	-10.485723	5.871635	-3.005150	-0.294507	-0.803408	0.255005	-0.104980	0.060669	0.999878	-0.015025	-0.001472	-0.004017	
19996	    0	23.106081	-13.653865	2.554690	-3.452678	-0.523405	-0.885058	0.230383	-0.137084	0.028514	0.999837	-0.017262	-0.002617	-0.004425	
19997	    0	20.778973	-18.921847	-3.045899	-3.371605	-0.678861	-0.833173	0.207092	-0.190552	-0.026550	0.999843	-0.016857	-0.003394	-0.004166	
19998	    0	18.206805	-15.206837	-4.542895	-2.636620	-0.432792	-1.101914	0.181319	-0.153646	-0.043017	0.999895	-0.013183	-0.002164	-0.005509	
19999	    0	14.043187	-8.425857	0.327746	-2.065343	0.095561	-1.845610	0.139648	-0.085510	0.004089	0.999904	-0.010326	0.000478	-0.009228	
20000	    0	14.244975	0.075555	-1.613117	-1.235440	0.473423	-2.836915	0.142402	-0.001366	-0.016464	0.999877	-0.006177	0.002367	-0.014184	
20001	    0	11.494216	3.318668	-4.680924	-0.917700	0.817175	-4.255261	0.115417	0.030518	-0.047424	0.999754	-0.004588	0.004086	-0.021275	
20002	    0	10.538723	3.672348	-4.731273	-1.124535	1.120720	-5.498110	0.106071	0.033545	-0.048100	0.999590	-0.005622	0.005603	-0.027487	
20003	    0	23.711609	8.998568	-6.547198	-0.602628	0.977482	-6.089231	0.239380	0.082520	-0.066895	0.999519	-0.003013	0.004887	-0.030441	
20004	    0	27.299275	0.593045	0.280814	-0.361505	1.270132	-6.307167	0.273009	-0.002677	0.001074	0.999480	-0.001807	0.006350	-0.031530	
20005	    0	28.759972	-6.965162	1.042774	0.332128	1.143087	-6.425857	0.285217	-0.078857	0.008667	0.999466	0.001660	0.005714	-0.032124	
20006	    0	30.681997	-6.123864	0.680531	0.415314	1.247087	-6.850869	0.304517	-0.071709	0.004760	0.999392	0.002076	0.006234	-0.034247	
20007	    0	34.313770	-4.698595	1.568780	-0.258694	1.328002	-7.193073	0.341248	-0.059265	0.013489	0.999330	-0.001293	0.006639	-0.035957	
20008	    0	36.075996	-5.710836	-0.066923	-0.950653	0.964198	-7.344045	0.358332	-0.070306	-0.002088	0.999303	-0.004752	0.004820	-0.036712	
20009	    0	33.235601	-10.262625	-1.070260	-2.003728	0.546384	-6.951903	0.328491	-0.114197	-0.010498	0.999342	-0.010016	0.002731	-0.034752	
20010	    0	28.255245	-14.873844	-1.063655	-2.876126	0.433441	-6.497802	0.277499	-0.157948	-0.009014	0.999366	-0.014378	0.002167	-0.032482	
20011	    0	24.142202	-15.075261	-1.867648	-2.830872	0.418173	-6.252758	0.236511	-0.158447	-0.016968	0.999409	-0.014152	0.002090	-0.031258	
20012	    0	23.124549	-13.005891	-3.529581	-2.699572	0.505919	-5.947604	0.227146	-0.137321	-0.034053	0.999463	-0.013495	0.002529	-0.029733	
20013	    0	24.664498	-10.124392	-4.478335	-2.414876	0.711167	-5.459654	0.243591	-0.108459	-0.044373	0.999548	-0.012073	0.003555	-0.027294	
20014	    0	25.855745	-9.061551	-5.476349	-1.713940	0.953206	-4.730932	0.256048	-0.097164	-0.055174	0.999672	-0.008569	0.004766	-0.023652	
20015	    0	24.283032	-10.125283	-5.431833	-0.825554	1.067612	-3.710416	0.240601	-0.105957	-0.055176	0.999804	-0.004128	0.005338	-0.018551	
20016	    0	20.796537	-10.506779	-6.125390	-0.042917	1.135670	-2.470665	0.206294	-0.107636	-0.062406	0.999907	-0.000215	0.005678	-0.012353	
20017	    0	16.503810	-9.203041	-4.939760	0.565345	1.141563	-1.224534	0.164185	-0.092896	-0.050598	0.999961	0.002827	0.005708	-0.006123	
20018	    0	10.564477	-6.850869	-4.306877	0.790411	1.039131	0.173189	0.105477	-0.068245	-0.043887	0.999978	0.003952	0.005196	0.000866	
20019	    0	1.883919	-3.875082	-5.169151	1.449050	0.988032	1.762436	0.018921	-0.038208	-0.052063	0.999922	0.007245	0.004940	0.008812	
20020	    0	-2.457161	-0.352567	-6.905563	1.793208	1.243286	3.154567	-0.024947	-0.003299	-0.068932	0.999816	0.008965	0.006216	0.015772	
20021	    0	-5.729483	1.149238	-8.368699	1.534629	1.631342	4.587290	-0.058228	0.010803	-0.083130	0.999674	0.007672	0.008156	0.022934	
20022	    0	-4.699938	2.155680	-8.728406	0.616935	1.962594	5.840472	-0.048460	0.020424	-0.086749	0.999520	0.003084	0.009811	0.029198	
20023	    0	-0.961164	1.549162	-8.975145	-0.111413	1.885822	6.951118	-0.010986	0.015076	-0.089661	0.999351	-0.000557	0.009427	0.034748	
20024	    0	-0.910682	2.221605	-9.133890	-0.741407	1.650136	8.065421	-0.010736	0.021466	-0.091335	0.999146	-0.003706	0.008248	0.040316	
20025	    0	-0.785832	0.050359	-8.471062	-0.885131	1.332562	9.054703	-0.008423	-0.000244	-0.084656	0.998943	-0.004424	0.006660	0.045258	
20026	    0	2.340981	-2.624611	-7.900647	-0.541521	0.933446	9.707876	0.024284	-0.025295	-0.079049	0.998807	-0.002707	0.004665	0.048520	
20027	    0	5.338423	-3.783881	-7.058122	0.037591	0.557180	10.024657	0.054993	-0.035095	-0.070740	0.998739	0.000188	0.002785	0.050102	
20028	    0	7.772741	-4.202786	-6.243740	0.645159	0.207611	10.256514	0.079673	-0.037772	-0.062646	0.998679	0.003224	0.001038	0.051260	
20029	    0	10.432304	-3.740083	-4.650347	1.103911	0.006106	10.475423	0.106079	-0.031616	-0.046692	0.998613	0.005517	0.000031	0.052353	
20030	    0	12.404335	-0.777261	-4.659400	1.711929	-0.377269	10.753227	0.124295	-0.000694	-0.046386	0.998516	0.008555	-0.001885	0.053740	
20031	    0	13.708678	1.903654	-4.346492	1.917510	-0.564681	11.044768	0.135864	0.026978	-0.042847	0.998425	0.009583	-0.002822	0.055195	
20032	    0	15.034769	3.880671	-5.338036	2.477717	-0.925208	11.367764	0.148039	0.047919	-0.052135	0.998298	0.012382	-0.004623	0.056807	
20033	    0	18.626804	7.474847	-5.365962	2.564979	-0.923507	11.539351	0.181763	0.085999	-0.051758	0.998242	0.012817	-0.004615	0.057663	
20034	    0	22.480730	12.104066	-5.028025	2.913100	-1.008058	11.510792	0.217568	0.134410	-0.047277	0.998225	0.014557	-0.005037	0.057520	
20035	    0	25.364271	18.442109	-6.351021	3.188044	-0.979410	11.213975	0.243042	0.199219	-0.059204	0.998289	0.015931	-0.004894	0.056038	
20036	    0	25.862412	25.400094	-4.893275	3.354840	-0.946340	10.534922	0.244966	0.267907	-0.043334	0.998461	0.016766	-0.004729	0.052648	
20037	    0	26.360240	32.790284	-4.208379	3.298873	-0.943217	9.675268	0.247498	0.340759	-0.035339	0.998683	0.016487	-0.004714	0.048355	
20038	    0	29.052974	41.737737	-4.385832	2.720068	-0.850975	8.709522	0.272149	0.430032	-0.036881	0.998950	0.013596	-0.004253	0.043532	
20039	    0	31.623264	50.489709	-5.166470	1.098883	-0.656087	7.283153	0.297729	0.516235	-0.047852	0.999316	0.005493	-0.003280	0.036407	
20040	    0	26.677748	57.121415	-5.045575	-0.940825	-0.790697	5.410125	0.251408	0.577911	-0.052150	0.999615	-0.004704	-0.003953	0.027047	
20041	    0	15.247988	56.125279	-5.624766	-2.408038	-0.632339	3.718114	0.142212	0.563232	-0.062561	0.999749	-0.012039	-0.003161	0.018589	
20042	    0	11.553052	49.196974	-4.506959	-2.863075	-0.440620	1.932051	0.110885	0.492346	-0.051868	0.999848	-0.014315	-0.002203	0.009660	
20043	    0	8.593707	45.959867	-1.265676	-2.693068	-0.247200	0.088504	0.085754	0.459412	-0.018738	0.999908	-0.013465	-0.001236	0.000443	
20044	    0	4.255282	41.838966	1.742968	-2.467622	-0.206764	-1.470235	0.045613	0.418235	0.012315	0.999896	-0.012338	-0.001034	-0.007351	
20045	    0	3.977685	35.575101	2.013540	-2.394814	-0.238814	-2.837535	0.044800	0.355347	0.015930	0.999826	-0.011973	-0.001194	-0.014187	
20046	    0	5.348481	27.199147	3.050885	-2.468128	-0.391612	-3.762565	0.058537	0.271272	0.027269	0.999744	-0.012340	-0.001958	-0.018811	
20047	    0	13.774876	13.362127	-2.187942	-2.824679	-0.868883	-3.849407	0.140381	0.130615	-0.023132	0.999705	-0.014122	-0.004344	-0.019245	
20048	    0	14.878206	-36.794589	-18.320339	-3.466858	-0.715308	-2.206962	0.145326	-0.372658	-0.176247	0.999782	-0.017333	-0.003576	-0.011034	
20049	    0	17.587511	-59.786740	-36.591946	-0.343136	-1.212325	-1.136030	0.174683	-0.599487	-0.363831	0.999964	-0.001716	-0.006062	-0.005680	
20050	    0	64.797076	99.742430	-59.743792	4.778739	-0.364865	-9.766244	0.697122	0.978057	-0.572664	0.998521	0.023882	-0.001823	-0.048807	
20051	    0	95.767639	84.540198	73.076160	-3.957152	0.658030	-11.012467	1.005127	0.805115	0.711304	0.998283	-0.019774	0.003288	-0.055031	
20052	    0	12.631311	-51.496945	0.900177	-2.919073	-3.876199	-5.381999	0.112100	-0.517887	0.018812	0.999343	-0.014592	-0.019377	-0.026904	
20053	    0	-27.508654	16.111804	25.096953	0.008394	-1.879335	-6.954171	-0.271606	0.170593	0.248413	0.999351	0.000042	-0.009395	-0.034763	
20054	    0	0.762815	8.631102	1.384652	0.189426	-0.959719	-5.651867	0.009995	0.086038	0.013972	0.999588	0.000947	-0.004798	-0.028255	
20055	    0	15.648819	17.886705	-2.121328	-0.205057	-0.960622	-4.388034	0.160461	0.175354	-0.020630	0.999746	-0.001025	-0.004803	-0.021938	
20056	    0	1.799118	2.007459	-6.745930	-1.746098	-1.059981	-3.326436	0.018673	0.019178	-0.067532	0.999809	-0.008730	-0.005300	-0.016631	
20057	    0	8.386858	5.417573	-2.310207	-0.888870	-0.776522	-3.312854	0.084839	0.052673	-0.023010	0.999845	-0.004444	-0.003882	-0.016563	
20058	    0	15.885489	13.028737	-7.208527	-0.731122	-0.535037	-3.278318	0.161152	0.127395	-0.072125	0.999855	-0.003655	-0.002675	-0.016391	
20059	    0	9.926712	10.005607	-3.055382	-0.282107	-0.107578	-2.875619	0.100708	0.098572	-0.030640	0.999895	-0.001410	-0.000538	-0.014378	
20060	    0	12.876283	9.828297	-9.839295	-0.674647	0.237662	-2.397028	0.129808	0.096398	-0.098874	0.999921	-0.003373	0.001188	-0.011985	
20061	    0	17.690015	7.605055	-12.950629	-0.813313	0.703638	-2.159934	0.177246	0.073608	-0.130432	0.999927	-0.004066	0.003518	-0.010799	
20062	    0	18.439824	1.051472	-9.226940	-0.411423	0.924511	-1.962702	0.184059	0.008516	-0.093140	0.999939	-0.002057	0.004622	-0.009813	
20063	    0	23.741053	6.437627	-4.349741	-0.225835	1.293399	-1.742588	0.237671	0.062256	-0.045105	0.999940	-0.001129	0.006467	-0.008713	
20064	    0	25.201772	2.894564	-2.114330	-0.047494	1.314948	-1.514269	0.252081	0.027032	-0.022807	0.999949	-0.000237	0.006575	-0.007571	
20065	    0	25.491196	8.773835	0.290763	-0.310522	1.168271	-1.603726	0.255615	0.085693	0.001282	0.999949	-0.001553	0.005841	-0.008018	
20066	    0	28.267001	0.610189	3.209501	-0.993934	0.784886	-1.410124	0.282827	0.004264	0.030961	0.999954	-0.004970	0.003924	-0.007051	
20067	    0	28.381542	-3.454763	3.251785	-1.812014	0.301557	-0.980395	0.283691	-0.035645	0.032410	0.999946	-0.009060	0.001508	-0.004902	
20068	    0	27.174921	-11.076202	6.053634	-2.646529	-0.016022	-0.706313	0.271353	-0.110907	0.062025	0.999906	-0.013232	-0.000080	-0.003531	
20069	    0	23.347525	-12.494060	3.868613	-3.118842	-0.324263	-0.798832	0.232910	-0.125244	0.041016	0.999868	-0.015594	-0.001621	-0.003994	
20070	    0	21.856577	-17.538425	-0.668917	-3.248180	-0.538852	-0.831262	0.217846	-0.176362	-0.003242	0.999855	-0.016240	-0.002694	-0.004156	
20071	    0	19.151601	-17.532892	-4.501890	-2.775485	-0.479144	-0.933872	0.190796	-0.176819	-0.042114	0.999889	-0.013877	-0.002396	-0.004669	
20072	    0	14.491545	-13.081491	-1.877747	-2.109396	-0.098422	-1.509518	0.143930	-0.132092	-0.017318	0.999915	-0.010547	-0.000492	-0.007547	
20073	    0	14.007699	-3.330581	-0.659987	-1.429796	0.428214	-2.404865	0.139648	-0.035034	-0.006653	0.999900	-0.007149	0.002141	-0.012024	
20074	    0	13.478804	2.638995	-5.415869	-0.691457	0.789119	-3.717081	0.135030	0.023693	-0.054776	0.999813	-0.003457	0.003945	-0.018584	
20075	    0	9.388599	3.895304	-6.162720	-1.244325	1.233070	-5.290907	0.094482	0.036072	-0.062439	0.999611	-0.006221	0.006165	-0.026451	
20076	    0	18.553321	7.657725	-6.432358	-0.691907	1.280038	-6.057002	0.187316	0.070696	-0.065770	0.999515	-0.003459	0.006399	-0.030280	
20077	    0	28.900922	8.925915	-3.399400	-0.621915	1.378324	-6.618245	0.291504	0.079529	-0.036255	0.999423	-0.003109	0.006890	-0.033085	
20078	    0	29.846341	-3.391416	-0.348371	-0.078406	1.268040	-6.407733	0.297143	-0.043451	-0.005355	0.999466	-0.000392	0.006339	-0.032033	
20079	    0	31.257663	-5.639125	-0.798133	0.232934	1.217131	-6.797617	0.310364	-0.066956	-0.009949	0.999403	0.001164	0.006084	-0.033981	
20080	    0	33.561341	-5.949463	-0.504777	-0.095961	1.271723	-7.220932	0.333134	-0.071557	-0.007139	0.999328	-0.000480	0.006357	-0.036097	
20081	    0	36.640157	-8.072617	-1.081235	-0.730112	1.046233	-7.362553	0.363037	-0.094177	-0.012390	0.999302	-0.003650	0.005230	-0.036804	
20082	    0	35.264636	-10.278961	-1.514206	-1.692403	0.689667	-7.252476	0.348556	-0.115610	-0.015407	0.999300	-0.008460	0.003448	-0.036254	
20083	    0	29.421597	-13.515354	-2.213679	-2.657917	0.513002	-6.837478	0.289307	-0.145386	-0.020996	0.999324	-0.013287	0.002564	-0.034180	
20084	    0	24.634450	-13.764124	-2.460063	-2.902841	0.419134	-6.527577	0.241622	-0.145922	-0.023032	0.999359	-0.014511	0.002095	-0.032631	
20085	    0	21.880117	-12.203085	-4.555446	-2.841552	0.293026	-6.227567	0.214783	-0.129395	-0.044067	0.999413	-0.014205	0.001465	-0.031132	
20086	    0	22.769321	-10.955796	-4.736490	-2.765757	0.498286	-5.829112	0.224243	-0.116774	-0.046345	0.999476	-0.013826	0.002491	-0.029140	
20087	    0	24.829326	-9.657100	-4.563569	-2.193757	0.867011	-5.280277	0.245422	-0.103577	-0.045593	0.999581	-0.010967	0.004334	-0.026398	
20088	    0	24.702593	-10.131586	-4.985997	-0.869445	1.006595	-4.355807	0.244485	-0.106878	-0.050638	0.999741	-0.004347	0.005033	-0.021777	
20089	    0	21.200760	-12.156986	-6.823130	0.461788	1.010174	-2.945831	0.209839	-0.124512	-0.069580	0.999876	0.002309	0.005051	-0.014729	
20090	    0	16.894252	-10.460060	-6.098700	1.185254	1.159695	-1.673356	0.167702	-0.105639	-0.062586	0.999930	0.005926	0.005798	-0.008367	
20091	    0	12.267258	-8.854469	-4.077729	1.593804	0.932517	-0.370794	0.122314	-0.088440	-0.042053	0.999955	0.007969	0.004663	-0.001854	
20092	    0	3.246499	-4.952758	-4.064300	1.904721	0.673500	1.163890	0.032613	-0.048947	-0.041221	0.999931	0.009523	0.003367	0.005819	
20093	    0	-3.396200	-0.538784	-5.532587	1.924225	0.824205	2.665075	-0.034119	-0.005310	-0.055237	0.999856	0.009621	0.004121	0.013325	
20094	    0	-7.811123	1.188631	-6.542230	1.520670	1.171977	4.140069	-0.078723	0.010756	-0.064878	0.999740	0.007603	0.005859	0.020699	
20095	    0	-7.114295	1.111412	-8.113502	0.726421	1.484319	5.598482	-0.072021	0.009399	-0.080566	0.999574	0.003632	0.007421	0.027988	
20096	    0	-2.233934	0.248521	-8.237381	-0.011256	1.442629	6.815381	-0.023000	0.001704	-0.082210	0.999393	-0.000056	0.007212	0.034070	
20097	    0	-2.428809	-0.684090	-8.879055	-0.384437	1.250041	8.048189	-0.024536	-0.007996	-0.088623	0.999168	-0.001922	0.006248	0.040230	
20098	    0	-0.874841	-1.342713	-7.598124	-0.434457	1.057618	9.154896	-0.008518	-0.013986	-0.075906	0.998936	-0.002172	0.005286	0.045758	
20099	    0	3.346721	-3.126909	-6.299962	-0.095979	0.729669	9.891750	0.034729	-0.029602	-0.063110	0.998770	-0.000480	0.003647	0.049438	
20100	    0	6.785451	-4.438104	-5.255156	0.423427	0.453385	10.246006	0.069884	-0.040723	-0.052797	0.998683	0.002116	0.002266	0.051208	
20101	    0	9.032995	-4.751403	-4.988926	1.176423	0.180900	10.449456	0.092590	-0.042419	-0.050232	0.998617	0.005879	0.000904	0.052223	
20102	    0	10.915251	-3.595572	-5.195087	1.751609	-0.062019	10.676250	0.110863	-0.029610	-0.052195	0.998537	0.008754	-0.000310	0.053355	
20103	    0	12.842634	-1.860739	-3.936056	1.919781	-0.192169	10.946186	0.129211	-0.011169	-0.039368	0.998456	0.009594	-0.000960	0.054703	
20104	    0	14.124300	1.195310	-4.332684	2.208397	-0.466603	11.257441	0.140355	0.020348	-0.042805	0.998352	0.011036	-0.002332	0.056256	
20105	    0	15.510034	4.389272	-4.527833	2.394925	-0.636662	11.553809	0.152344	0.053284	-0.044189	0.998255	0.011968	-0.003181	0.057735	
20106	    0	17.996236	7.890055	-5.104815	2.535616	-0.716828	11.673262	0.175108	0.089852	-0.049321	0.998210	0.012671	-0.003582	0.058331	
20107	    0	20.850480	11.935656	-4.133041	2.713273	-0.766442	11.540140	0.201294	0.131653	-0.038818	0.998236	0.013558	-0.003830	0.057667	
20108	    0	22.798446	18.642477	-4.817624	3.221812	-0.921963	11.173097	0.217288	0.199499	-0.044013	0.998299	0.016100	-0.004607	0.055834	
20109	    0	23.627739	25.921306	-5.550003	3.676456	-0.946547	10.621169	0.222290	0.272217	-0.049500	0.998409	0.018373	-0.004730	0.053078	
20110	    0	24.918539	32.762647	-5.249725	3.875282	-0.851845	9.906701	0.232734	0.340350	-0.044968	0.998576	0.019367	-0.004257	0.049510	
20111	    0	28.358328	40.454192	-4.856280	3.643687	-0.688248	8.910776	0.265320	0.417419	-0.040100	0.998836	0.018211	-0.003440	0.044537	
20112	    0	33.342539	47.888213	-6.670977	2.597334	-0.573306	7.404139	0.315557	0.491590	-0.059458	0.999226	0.012983	-0.002866	0.037011	
20113	    0	29.752240	56.737739	-7.378392	0.696843	-0.772193	5.437401	0.282227	0.575439	-0.070679	0.999617	0.003484	-0.003860	0.027184	
20114	    0	16.258328	59.517140	-9.201921	-1.130947	-0.795611	3.874289	0.151395	0.597646	-0.094777	0.999788	-0.005654	-0.003978	0.019370	
20115	    0	9.999072	53.546131	-8.525713	-2.461929	-0.613432	2.159982	0.094482	0.535400	-0.091553	0.999861	-0.012309	-0.003067	0.010799	
20116	    0	6.947866	48.805780	-4.328877	-2.984543	-0.474948	0.259028	0.068961	0.487431	-0.050402	0.999885	-0.014922	-0.002375	0.001295	
20117	    0	5.867455	41.993804	0.181002	-3.220342	-0.414297	-1.326057	0.061462	0.419495	-0.004822	0.999846	-0.016101	-0.002071	-0.006630	
20118	    0	6.946369	34.350793	2.164265	-3.342314	-0.317789	-2.692430	0.074054	0.342831	0.016025	0.999768	-0.016710	-0.001589	-0.013461	
20119	    0	6.555859	28.290881	2.487284	-3.339737	-0.304254	-3.737270	0.070801	0.281982	0.020264	0.999684	-0.016697	-0.001521	-0.018684	
20120	    0	7.528287	17.885181	3.352499	-3.645792	-0.400404	-4.160270	0.078926	0.177809	0.030433	0.999615	-0.018227	-0.002002	-0.020799	
20121	    0	12.330985	-18.357457	-16.223033	-3.626591	-1.251147	-2.789568	0.121704	-0.188171	-0.158081	0.999719	-0.018131	-0.006255	-0.013947	
20122	    0	15.690540	-67.978659	-37.725483	-2.122178	-1.316491	-0.893238	0.156302	-0.684430	-0.368979	0.999911	-0.010611	-0.006582	-0.004466	
20123	    0	44.863335	41.213766	-58.091087	3.566681	-0.048647	-5.872737	0.460815	0.408997	-0.573486	0.999410	0.017830	-0.000243	-0.029358	
20124	    0	110.969581	122.764884	65.446803	-1.720606	2.405298	-13.253092	1.195592	1.155774	0.630272	0.997696	-0.008596	0.012017	-0.066215	
20125	    0	34.889535	-45.482064	1.870889	-3.008012	-4.444387	-5.168584	0.336365	-0.463196	0.033203	0.999306	-0.015037	-0.022217	-0.025837	
20126	    0	-29.345947	3.851534	28.823790	-0.157009	-2.102551	-6.952480	-0.294887	0.048976	0.285107	0.999340	-0.000785	-0.010510	-0.034755	
20127	    0	-6.643660	10.233960	2.826158	0.154328	-1.012576	-5.987706	-0.063477	0.104248	0.028015	0.999538	0.000772	-0.005062	-0.029934	
20128	    0	15.615456	21.433074	-1.895831	-0.053220	-0.962154	-4.574048	0.161090	0.210679	-0.018248	0.999726	-0.000266	-0.004810	-0.022868	
20129	    0	5.410248	6.108773	-6.084519	-1.847968	-1.105385	-3.466274	0.055481	0.059570	-0.061096	0.999791	-0.009239	-0.005527	-0.017330	
20130	    0	6.819312	0.864364	-2.185879	-1.263684	-0.771563	-3.206038	0.068402	0.007411	-0.021645	0.999844	-0.006318	-0.003858	-0.016029	
20131	    0	16.064095	12.567866	-9.521043	-1.102506	-0.533132	-3.349482	0.162964	0.122437	-0.095459	0.999841	-0.005512	-0.002666	-0.016747	
20132	    0	11.140832	7.918086	-1.164602	-0.346960	-0.186546	-2.975003	0.112580	0.077492	-0.011677	0.999887	-0.001735	-0.000933	-0.014874	
20133	    0	12.105320	9.449904	-8.290011	-0.383769	0.183301	-2.471989	0.122131	0.092834	-0.083191	0.999921	-0.001919	0.000916	-0.012360	
20134	    0	17.914263	10.530271	-12.411442	-0.743695	0.710887	-2.275717	0.179878	0.102795	-0.125138	0.999922	-0.003718	0.003554	-0.011378	
20135	    0	18.989302	1.912788	-10.007876	-0.471507	0.876828	-2.091264	0.189636	0.016907	-0.100952	0.999932	-0.002357	0.004384	-0.010456	
20136	    0	25.184175	4.286044	-3.651690	-0.283438	1.241520	-1.884692	0.251997	0.040433	-0.038139	0.999935	-0.001417	0.006207	-0.009423	
20137	    0	26.172344	0.886748	-1.070028	0.052834	1.106280	-1.601435	0.261719	0.006775	-0.012146	0.999952	0.000264	0.005531	-0.008007	
20138	    0	25.765366	7.717133	2.315352	0.101091	0.881591	-1.798278	0.258432	0.074839	0.022054	0.999949	0.000505	0.004408	-0.008991	
20139	    0	29.033810	1.105311	4.348945	-0.653086	0.505264	-1.697565	0.290527	0.008728	0.042725	0.999955	-0.003265	0.002526	-0.008488	
20140	    0	28.710237	-3.393277	3.393770	-1.574159	-0.006867	-1.119631	0.286906	-0.035271	0.034222	0.999953	-0.007871	-0.000034	-0.005598	
20141	    0	27.115604	-11.284372	6.180835	-2.760410	-0.260744	-0.785855	0.270630	-0.113037	0.063721	0.999896	-0.013802	-0.001304	-0.003929	
20142	    0	21.682643	-13.200175	4.383543	-3.261343	-0.473045	-0.886006	0.216133	-0.132216	0.046502	0.999854	-0.016306	-0.002365	-0.004430	
20143	    0	21.200585	-16.166942	0.114256	-3.293584	-0.547818	-0.929307	0.211243	-0.162598	0.004395	0.999849	-0.016467	-0.002739	-0.004646	
20144	    0	19.078927	-17.380746	-6.067892	-2.713108	-0.421730	-0.964962	0.190069	-0.175524	-0.057904	0.999893	-0.013565	-0.002109	-0.004825	
20145	    0	15.553610	-13.623869	-2.640018	-1.623572	0.135234	-1.691476	0.154358	-0.137756	-0.025391	0.999930	-0.008118	0.000676	-0.008457	
20146	    0	15.546760	-3.357768	0.857122	-0.701737	0.615903	-2.651111	0.155030	-0.035605	0.008216	0.999901	-0.003509	0.003079	-0.013255	
20147	    0	13.358782	2.128373	-2.532319	0.228135	0.955457	-3.941616	0.133850	0.018677	-0.025940	0.999793	0.001141	0.004777	-0.019707	
20148	    0	9.434167	5.740548	-4.043848	-0.146694	1.241081	-5.425391	0.095598	0.054793	-0.041070	0.999612	-0.000733	0.006205	-0.027123	
20149	    0	20.372781	9.846088	-6.590788	0.231207	1.007428	-6.028161	0.206238	0.092346	-0.066833	0.999532	0.001156	0.005036	-0.030136	
20150	    0	27.178756	6.727358	-1.700488	0.115988	1.183531	-6.454291	0.273663	0.058472	-0.018585	0.999461	0.000580	0.005917	-0.032266	
20151	    0	29.589336	-5.216584	0.808733	0.371045	1.148426	-6.383111	0.294067	-0.061584	0.006287	0.999472	0.001855	0.005741	-0.031910	
20152	    0	31.692717	-7.404283	1.071597	0.685645	1.226873	-6.951072	0.314156	-0.085027	0.008504	0.999371	0.003428	0.006133	-0.034748	
20153	    0	34.696021	-6.086706	1.042450	0.069634	1.180537	-7.306050	0.344482	-0.073486	0.008362	0.999315	0.000348	0.005901	-0.036522	
20154	    0	38.166221	-6.093760	0.322011	-0.948559	0.883694	-7.444436	0.379053	-0.075070	0.001875	0.999286	-0.004742	0.004417	-0.037213	
20155	    0	35.977773	-8.178374	-0.435581	-2.174131	0.503087	-7.211490	0.356506	-0.094727	-0.004272	0.999288	-0.010868	0.002515	-0.036049	
20156	    0	29.976476	-12.567574	-1.196996	-3.136978	0.337679	-6.743272	0.295280	-0.135855	-0.010393	0.999307	-0.015681	0.001688	-0.033709	
20157	    0	25.652710	-13.961508	-2.936937	-3.272764	0.278533	-6.407787	0.251831	-0.148193	-0.027344	0.999352	-0.016360	0.001392	-0.032032	
20158	    0	24.148665	-12.531290	-5.405415	-3.333379	0.281390	-6.081467	0.237436	-0.133455	-0.052211	0.999397	-0.016664	0.001407	-0.030401	
20159	    0	25.085040	-9.836179	-5.925177	-3.354482	0.476350	-5.610135	0.247803	-0.106323	-0.058105	0.999463	-0.016769	0.002381	-0.028046	
20160	    0	26.324786	-8.766951	-6.427568	-2.750578	0.721075	-4.933261	0.260734	-0.095003	-0.063946	0.999595	-0.013751	0.003605	-0.024663	
20161	    0	24.251576	-9.959040	-5.898463	-1.812696	0.754606	-3.876800	0.240295	-0.104797	-0.058960	0.999763	-0.009063	0.003773	-0.019382	
20162	    0	20.312373	-9.388744	-7.396263	-1.007878	0.821333	-2.596183	0.201574	-0.096885	-0.074309	0.999894	-0.005039	0.004107	-0.012980	
20163	    0	15.664045	-8.501541	-5.596751	-0.426297	0.862131	-1.340500	0.155823	-0.086182	-0.056458	0.999966	-0.002131	0.004311	-0.006702	
20164	    0	8.818994	-6.323512	-4.924916	-0.007439	0.590897	0.103378	0.088077	-0.063191	-0.049507	0.999995	-0.000037	0.002954	0.000517	
20165	    0	-0.274335	-3.878164	-6.120186	0.753225	0.538644	1.785308	-0.002563	-0.038574	-0.061340	0.999949	0.003766	0.002693	0.008926	
20166	    0	-4.977211	-1.009060	-6.951196	1.569458	0.758406	3.320698	-0.049865	-0.010373	-0.069404	0.999824	0.007847	0.003792	0.016603	
20167	    0	-8.347034	0.761395	-8.790974	1.606933	1.080635	4.841399	-0.084106	0.006287	-0.087402	0.999660	0.008034	0.005403	0.024204	
20168	    0	-5.325040	1.508629	-8.790053	0.892404	1.332120	6.072470	-0.054267	0.013840	-0.087478	0.999506	0.004461	0.006660	0.030357	
20169	    0	-1.265958	0.270024	-9.535484	0.190968	1.170609	7.209092	-0.013306	0.002319	-0.095276	0.999332	0.000955	0.005852	0.036037	
20170	    0	-1.986070	0.237297	-9.933859	-0.293818	0.931058	8.322289	-0.020394	0.001386	-0.099247	0.999122	-0.001469	0.004654	0.041599	
20171	    0	-0.612969	-1.166504	-9.183399	-0.319022	0.606942	9.189805	-0.005859	-0.012085	-0.091797	0.998939	-0.001595	0.003034	0.045933	
20172	    0	2.585276	-2.589931	-8.240021	-0.052854	0.244236	9.688354	0.026966	-0.024632	-0.082426	0.998826	-0.000264	0.001221	0.048423	
20173	    0	5.037090	-3.546383	-7.090904	0.515961	-0.046368	9.962016	0.052063	-0.032715	-0.070984	0.998755	0.002579	-0.000232	0.049789	
20174	    0	6.837007	-3.921466	-7.155529	1.245862	-0.382594	10.250837	0.070380	-0.035194	-0.071650	0.998665	0.006227	-0.001912	0.051231	
20175	    0	9.468832	-3.545768	-6.911138	1.555041	-0.554922	10.574810	0.096558	-0.029846	-0.069092	0.998568	0.007771	-0.002773	0.052849	
20176	    0	11.814412	-1.289522	-6.235219	1.853381	-0.796351	10.989373	0.118840	-0.005800	-0.061955	0.998440	0.009262	-0.003980	0.054918	
20177	    0	13.545914	1.931966	-5.984577	1.959550	-0.954012	11.318368	0.134338	0.027527	-0.058960	0.998340	0.009792	-0.004767	0.056561	
20178	    0	15.228571	4.842879	-5.428174	2.210379	-1.155382	11.558399	0.149436	0.057713	-0.052809	0.998252	0.011045	-0.005774	0.057758	
20179	    0	18.455943	9.500975	-5.732384	2.424517	-1.136492	11.557680	0.178955	0.106140	-0.055054	0.998240	0.012115	-0.005679	0.057755	
20180	    0	21.446020	13.476822	-4.855721	2.844942	-1.165306	11.419465	0.206553	0.147377	-0.045300	0.998252	0.014216	-0.005823	0.057064	
20181	    0	22.848323	19.221234	-5.697317	3.463609	-1.290098	11.058204	0.217712	0.205383	-0.052063	0.998301	0.017308	-0.006447	0.055260	
20182	    0	23.596056	25.585661	-5.608974	3.886750	-1.197494	10.500160	0.222381	0.268780	-0.049589	0.998415	0.019423	-0.005984	0.052473	
20183	    0	25.789155	33.297501	-4.601054	3.938616	-0.968434	9.807611	0.241333	0.345886	-0.038086	0.998591	0.019684	-0.004840	0.049015	
20184	    0	30.131891	42.191036	-4.939920	3.312575	-0.724298	8.797661	0.282520	0.435345	-0.041215	0.998889	0.016557	-0.003620	0.043972	
20185	    0	35.255807	52.354927	-5.349344	1.530223	-0.529597	7.102248	0.333801	0.536011	-0.048523	0.999336	0.007649	-0.002647	0.035503	
20186	    0	27.307655	60.238227	-6.131573	-0.590390	-0.720486	5.081551	0.257883	0.608881	-0.062160	0.999666	-0.002952	-0.003602	0.025405	
20187	    0	13.406411	56.945836	-7.570965	-2.166903	-0.733809	3.451785	0.124512	0.570801	-0.081421	0.999785	-0.010834	-0.003669	0.017258	
20188	    0	9.157581	48.819950	-5.596859	-2.690625	-0.630788	1.728134	0.087547	0.488158	-0.062256	0.999866	-0.013453	-0.003154	0.008640	
20189	    0	6.008544	44.079383	-0.560384	-2.428499	-0.505651	-0.032807	0.060181	0.440674	-0.010803	0.999923	-0.012142	-0.002528	-0.000164	
20190	    0	3.650107	39.167932	2.926249	-2.222514	-0.485626	-1.576855	0.039525	0.391669	0.025003	0.999904	-0.011112	-0.002428	-0.007884	
20191	    0	5.699421	33.424347	4.223608	-2.233062	-0.424982	-2.945879	0.061829	0.333801	0.038635	0.999826	-0.011165	-0.002125	-0.014729	
20192	    0	7.853859	24.711498	5.415053	-2.256008	-0.466195	-3.821499	0.083126	0.246147	0.051560	0.999751	-0.011279	-0.002331	-0.019106	
20193	    0	13.441780	12.317691	5.412707	-2.536823	-0.673739	-3.972238	0.136658	0.121155	0.053040	0.999716	-0.012683	-0.003368	-0.019859	
20194	    0	9.918394	-31.478547	-18.273877	-2.236481	-1.257961	-2.397088	0.096518	-0.317966	-0.178582	0.999846	-0.011182	-0.006289	-0.011985	
20195	    0	12.388133	-67.017618	-55.932043	1.389564	-2.858859	-0.641660	0.129761	-0.666687	-0.562134	0.999868	0.006948	-0.014294	-0.003208	
20196	    0	74.290052	100.940666	-45.625876	2.288837	2.358109	-10.542694	0.789512	0.973801	-0.454103	0.998476	0.011438	0.011785	-0.052687	
20197	    0	102.494182	59.060245	84.057214	-2.891176	-0.532781	-10.180085	1.051392	0.549622	0.835205	0.998596	-0.014449	-0.002663	-0.050877	
20198	    0	15.045924	-45.135431	3.171007	-2.414591	-3.242920	-5.421527	0.137563	-0.454755	0.039488	0.999428	-0.012071	-0.016212	-0.027102	
20199	    0	-25.380745	12.577893	33.992996	0.769398	-2.008485	-6.827477	-0.252747	0.133118	0.337891	0.999359	0.003846	-0.010040	-0.034130	
20200	    0	-0.344258	9.503028	-0.582931	0.751209	-1.000532	-5.380933	-0.000856	0.095098	-0.005481	0.999619	0.003756	-0.005002	-0.026901	
20201	    0	16.302914	22.056039	-1.918646	-0.099954	-1.037497	-4.440693	0.167969	0.216858	-0.018433	0.999740	-0.000500	-0.005187	-0.022202	
20202	    0	0.036826	0.220667	-8.581692	-1.930364	-1.134566	-3.279329	0.000882	0.001367	-0.085829	0.999803	-0.009651	-0.005672	-0.016396	
20203	    0	8.490734	0.684628	-6.794945	-0.945141	-0.963643	-3.285390	0.085327	0.005127	-0.067566	0.999842	-0.004725	-0.004818	-0.016426	
20204	    0	16.374060	16.476289	-10.321229	-0.903939	-0.497843	-3.342417	0.166716	0.161526	-0.103535	0.999846	-0.004519	-0.002489	-0.016711	
20205	    0	7.902994	4.183523	-2.212451	-0.336278	-0.248727	-2.891643	0.079651	0.040649	-0.022095	0.999893	-0.001681	-0.001244	-0.014458	
20206	    0	12.085921	14.827502	-13.094595	-0.833345	0.369846	-2.504614	0.122456	0.146200	-0.131783	0.999910	-0.004167	0.001849	-0.012523	
20207	    0	16.613776	5.714721	-12.975076	-1.081878	0.679226	-2.257601	0.166321	0.054565	-0.130615	0.999915	-0.005409	0.003396	-0.011288	
20208	    0	19.733147	1.612508	-11.851131	-0.610557	1.041056	-2.056934	0.196860	0.013735	-0.119581	0.999928	-0.003053	0.005205	-0.010284	
20209	    0	25.391315	3.267591	-5.553561	-0.488101	1.243618	-1.831857	0.253845	0.030212	-0.057190	0.999935	-0.002440	0.006218	-0.009159	
20210	    0	26.821329	2.793545	0.596537	-0.119402	1.313043	-1.651222	0.268463	0.025723	0.004188	0.999944	-0.000597	0.006565	-0.008256	
20211	    0	25.478144	9.563617	3.310321	-0.411232	1.012630	-1.815067	0.255798	0.093384	0.031616	0.999944	-0.002056	0.005063	-0.009075	
20212	    0	27.795877	0.162673	4.250574	-1.023118	0.589190	-1.586558	0.278085	-0.000364	0.041685	0.999950	-0.005116	0.002946	-0.007933	
20213	    0	27.797257	-3.048910	4.850711	-2.063797	0.087931	-1.040673	0.277832	-0.031433	0.048706	0.999932	-0.010319	0.000440	-0.005203	
20214	    0	25.983526	-10.135837	7.287637	-2.948876	-0.225076	-0.784332	0.259355	-0.101284	0.074662	0.999883	-0.014744	-0.001125	-0.003922	
20215	    0	22.149850	-13.186502	4.140533	-3.372175	-0.505092	-0.854536	0.220825	-0.132080	0.044189	0.999846	-0.016860	-0.002525	-0.004272	
20216	    0	21.066400	-18.022516	0.590344	-3.366455	-0.682485	-0.846525	0.209870	-0.180973	0.009663	0.999843	-0.016831	-0.003412	-0.004232	
20217	    0	18.911296	-17.852234	-3.570471	-2.744964	-0.494403	-0.938449	0.188354	-0.179871	-0.032776	0.999891	-0.013724	-0.002472	-0.004692	
20218	    0	13.791388	-11.412024	-2.478889	-2.004298	-0.072481	-1.653527	0.136971	-0.115496	-0.023586	0.999915	-0.010021	-0.000362	-0.008267	
20219	    0	14.587378	-2.584737	-0.866244	-1.339579	0.423446	-2.561279	0.145508	-0.027771	-0.008789	0.999893	-0.006698	0.002117	-0.012806	
20220	    0	13.102361	1.680165	-3.268728	-0.471337	0.844630	-3.866261	0.131175	0.014189	-0.033277	0.999801	-0.002357	0.004223	-0.019330	
20221	    0	9.469973	3.866399	-4.457610	-0.392199	1.215702	-5.261873	0.095398	0.036072	-0.045227	0.999633	-0.001961	0.006078	-0.026306	
20222	    0	19.859594	8.020803	-4.599170	0.242842	1.179492	-5.902992	0.200573	0.074364	-0.047078	0.999546	0.001214	0.005897	-0.029510	
20223	    0	25.671226	7.225118	-0.480424	0.306183	1.322405	-6.332741	0.258789	0.064087	-0.006409	0.999475	0.001531	0.006611	-0.031658	
20224	    0	27.189257	-3.142635	1.585911	0.728917	1.117508	-6.121492	0.270843	-0.039782	0.014209	0.999509	0.003644	0.005587	-0.030602	
20225	    0	29.138772	-5.131449	0.818603	0.985328	1.113335	-6.507556	0.289551	-0.060791	0.006287	0.999443	0.004926	0.005566	-0.032532	
20226	    0	30.852579	-4.282330	1.010784	0.403296	1.195009	-6.907738	0.306854	-0.053460	0.008170	0.999383	0.002016	0.005974	-0.034532	
20227	    0	34.986369	-5.062786	0.171556	-0.524062	1.108027	-7.093817	0.347778	-0.062988	-0.000061	0.999352	-0.002620	0.005539	-0.035461	
20228	    0	35.695238	-7.173273	-1.335191	-1.542246	0.793062	-7.119055	0.354041	-0.084478	-0.014141	0.999329	-0.007710	0.003964	-0.035587	
20229	    0	30.989687	-12.388608	-2.015194	-2.448599	0.639478	-6.651947	0.305481	-0.134338	-0.019531	0.999367	-0.012240	0.003197	-0.033253	
20230	    0	26.662663	-14.711474	-2.509693	-2.576390	0.618677	-6.405778	0.261652	-0.155863	-0.023941	0.999399	-0.012879	0.003093	-0.032022	
20231	    0	24.328141	-13.734484	-3.835193	-2.478308	0.589864	-6.254240	0.238708	-0.145325	-0.037292	0.999430	-0.012389	0.002949	-0.031265	
20232	    0	24.724008	-10.393069	-4.653887	-2.400048	0.719194	-5.914751	0.243846	-0.111732	-0.046110	0.999484	-0.011998	0.003595	-0.029569	
20233	    0	26.380845	-8.264899	-4.845921	-1.995172	1.041556	-5.304689	0.261230	-0.090088	-0.048950	0.999584	-0.009974	0.005207	-0.026520	
20234	    0	25.539069	-9.185534	-4.418049	-1.152143	1.190675	-4.357351	0.253038	-0.097644	-0.045140	0.999728	-0.005760	0.005953	-0.021785	
20235	    0	21.858608	-10.207150	-5.766993	-0.218211	1.067593	-3.180844	0.216614	-0.105591	-0.058716	0.999858	-0.001091	0.005338	-0.015903	
20236	    0	16.717134	-9.856739	-5.729290	0.491152	0.976582	-1.895179	0.165945	-0.100001	-0.058350	0.999940	0.002456	0.004883	-0.009476	
20237	    0	11.312698	-8.085182	-4.579332	0.732426	0.742535	-0.551608	0.112732	-0.080994	-0.046509	0.999982	0.003662	0.003713	-0.002758	
20238	    0	1.972786	-4.558303	-4.163920	0.843055	0.524525	1.015862	0.019849	-0.045306	-0.041883	0.999974	0.004215	0.002623	0.005079	
20239	    0	-3.838766	-1.755591	-4.884110	0.639363	0.682279	2.520828	-0.038330	-0.017883	-0.048767	0.999909	0.003197	0.003411	0.012604	
20240	    0	-7.030206	-0.943719	-5.310036	0.320457	0.797901	4.034901	-0.070305	-0.010771	-0.052836	0.999786	0.001602	0.003989	0.020173	
20241	    0	-6.242859	-0.971060	-6.896398	-0.348517	0.898095	5.461821	-0.062439	-0.011536	-0.068665	0.999615	-0.001742	0.004490	0.027306	
20242	    0	-2.122870	-1.495286	-6.576732	-0.977701	0.733132	6.616887	-0.020952	-0.015970	-0.065614	0.999434	-0.004888	0.003665	0.033078	
20243	    0	-1.710972	-1.493406	-7.039394	-1.338347	0.446434	7.703843	-0.016663	-0.016052	-0.070251	0.999233	-0.006690	0.002232	0.038509	
20244	    0	-1.096930	-1.774674	-5.658684	-1.365150	0.137374	8.706240	-0.010211	-0.018588	-0.056455	0.999028	-0.006824	0.000687	0.043517	
20245	    0	2.202910	-4.241800	-4.554666	-0.815122	-0.231829	9.402906	0.024048	-0.041504	-0.045349	0.998885	-0.004074	-0.001159	0.046997	
20246	    0	5.583899	-5.496293	-3.422691	0.052664	-0.440773	9.751376	0.058503	-0.052144	-0.034114	0.998809	0.000263	-0.002203	0.048738	
20247	    0	8.208839	-5.621750	-2.622683	1.022009	-0.605840	10.014772	0.084839	-0.051880	-0.026245	0.998729	0.005108	-0.003028	0.050053	
20248	    0	10.482125	-5.151035	-1.975226	1.739537	-0.719973	10.324256	0.107357	-0.045838	-0.019784	0.998623	0.008694	-0.003598	0.051598	
20249	    0	12.306999	-3.323414	-0.970300	2.152735	-0.791556	10.600899	0.124634	-0.026550	-0.009521	0.998529	0.010758	-0.003956	0.052979	
20250	    0	13.744165	0.113199	-1.568975	2.525905	-0.917921	10.950930	0.137168	0.008842	-0.014980	0.998410	0.012623	-0.004587	0.054726	
20251	    0	15.178097	3.758684	-1.720567	2.747364	-0.904401	11.251290	0.149414	0.046265	-0.015930	0.998313	0.013729	-0.004519	0.056225	
20252	    0	17.667935	6.692105	-1.909570	2.941508	-0.778270	11.420602	0.172538	0.077120	-0.017334	0.998254	0.014699	-0.003889	0.057070	
20253	    0	20.284616	11.439498	-2.493887	3.256028	-0.677122	11.359168	0.195984	0.126038	-0.022278	0.998249	0.016271	-0.003384	0.056763	
20254	    0	21.835724	16.795928	-3.857717	3.660751	-0.553063	11.059734	0.208709	0.180343	-0.034764	0.998300	0.018293	-0.002764	0.055267	
20255	    0	21.935222	23.647296	-3.761324	3.846466	-0.303618	10.524919	0.206543	0.248230	-0.032593	0.998429	0.019222	-0.001517	0.052597	
20256	    0	24.790207	31.182223	-3.798814	3.485726	0.029768	9.803616	0.232207	0.324062	-0.032445	0.998647	0.017421	0.000149	0.048996	
20257	    0	29.857883	39.668636	-4.627941	2.882662	0.321504	8.841080	0.280579	0.409973	-0.040894	0.998918	0.014408	0.001607	0.044189	
20258	    0	33.602721	51.617159	-7.241645	1.749639	0.364198	7.283392	0.316799	0.528554	-0.068417	0.999296	0.008746	0.001821	0.036408	
20259	    0	28.300909	61.678567	-9.096996	0.064857	-0.006677	5.299235	0.266541	0.624023	-0.090759	0.999648	0.000324	-0.000033	0.026493	
20260	    0	14.438165	59.239904	-9.758189	-1.358886	-0.301572	3.748762	0.133405	0.594288	-0.101409	0.999800	-0.006794	-0.001508	0.018743	
20261	    0	7.880490	50.009001	-8.896716	-1.882806	-0.285349	2.057715	0.073792	0.500000	-0.093567	0.999901	-0.009414	-0.001427	0.010288	
20262	    0	6.186175	44.725414	-5.770186	-1.791216	-0.226405	0.221637	0.061435	0.446782	-0.061635	0.999958	-0.008956	-0.001132	0.001108	
20263	    0	4.468312	41.354930	-3.640261	-1.712071	-0.356872	-1.352719	0.047546	0.412903	-0.039856	0.999938	-0.008560	-0.001784	-0.006763	
20264	    0	4.107038	34.200433	-2.581593	-1.898660	-0.496887	-2.632069	0.045633	0.341159	-0.028948	0.999865	-0.009493	-0.002484	-0.013160	
20265	    0	11.637608	21.221137	-4.071497	-2.346194	-0.984066	-3.065693	0.119812	0.209900	-0.042603	0.999801	-0.011730	-0.004920	-0.015327	
20266	    0	11.928536	-8.156999	-10.049113	-2.972046	-0.353838	-2.766610	0.118304	-0.084690	-0.099038	0.999792	-0.014859	-0.001769	-0.013832	
20267	    0	20.780520	-49.474940	-26.612228	-0.315672	-0.968952	-1.911201	0.204346	-0.497131	-0.264343	0.999941	-0.001578	-0.004845	-0.009556	
20268	    0	60.295537	92.023505	-63.199721	6.183905	-1.054918	-9.088938	0.647714	0.910364	-0.600399	0.998475	0.030904	-0.005272	-0.045422	
20269	    0	103.292401	76.965036	65.575809	-5.116263	1.139026	-11.145960	1.077881	0.726746	0.630737	0.998104	-0.025565	0.005692	-0.055695	
20270	    0	13.176067	-52.881564	4.353160	-2.312990	-4.488620	-5.341779	0.116477	-0.531491	0.052398	0.999324	-0.011562	-0.022438	-0.026703	
20271	    0	-27.728914	13.939044	18.428951	0.099968	-2.111344	-7.085507	-0.274048	0.149048	0.181458	0.999316	0.000500	-0.010554	-0.035419	
20272	    0	-0.340932	8.188180	0.984659	0.436081	-1.126067	-5.692713	-0.001134	0.081914	0.010015	0.999577	0.002180	-0.005630	-0.028460	
20273	    0	17.276018	17.120731	-1.913369	0.363193	-1.006984	-4.634531	0.176758	0.167175	-0.017944	0.999717	0.001816	-0.005034	-0.023170	
20274	    0	0.930709	5.237869	-4.159205	-1.100799	-1.326262	-3.460909	0.010486	0.051974	-0.041812	0.999813	-0.005504	-0.006631	-0.017303	
20275	    0	5.062121	6.153728	-2.806978	-1.024492	-0.951436	-3.294548	0.051758	0.060547	-0.028137	0.999840	-0.005122	-0.004757	-0.016472	
20276	    0	14.817806	9.579945	-8.695202	-0.831453	-0.772895	-3.197251	0.150016	0.093050	-0.086765	0.999856	-0.004157	-0.003864	-0.015985	
20277	    0	13.150763	10.711588	-4.133298	-0.304996	-0.261698	-2.942003	0.133118	0.105103	-0.041321	0.999889	-0.001525	-0.001308	-0.014709	
20278	    0	11.390009	10.685160	-7.367008	-0.347337	-0.018883	-2.503462	0.115232	0.105287	-0.073843	0.999920	-0.001737	-0.000094	-0.012517	
20279	    0	17.638383	10.367227	-12.490785	-0.690285	0.535977	-2.173855	0.177157	0.101316	-0.125734	0.999931	-0.003451	0.002680	-0.010869	
20280	    0	19.485239	0.259933	-8.157642	-0.248532	0.719465	-1.972044	0.194570	0.000578	-0.082278	0.999944	-0.001243	0.003597	-0.009860	
20281	    0	23.742996	5.415544	-4.774795	-0.019837	1.059168	-1.654842	0.237610	0.052185	-0.049011	0.999951	-0.000099	0.005296	-0.008274	
20282	    0	25.366245	2.405003	-3.302817	0.064851	1.055159	-1.412028	0.253645	0.022270	-0.034359	0.999961	0.000324	0.005276	-0.007060	
20283	    0	25.209673	8.927692	0.002668	-0.228694	0.859843	-1.483936	0.252747	0.087402	-0.001160	0.999962	-0.001143	0.004299	-0.007420	
20284	    0	27.901931	2.228770	3.305204	-0.956548	0.472647	-1.396197	0.279243	0.020494	0.032291	0.999961	-0.004783	0.002363	-0.006981	
20285	    0	28.603332	-2.867283	4.733274	-1.922453	-0.038148	-0.926989	0.285889	-0.029541	0.047668	0.999943	-0.009612	-0.000191	-0.004635	
20286	    0	26.083925	-9.794197	6.411094	-2.820876	-0.395026	-0.517672	0.260457	-0.097694	0.066005	0.999895	-0.014104	-0.001975	-0.002588	
20287	    0	23.055972	-11.332500	4.174307	-3.459350	-0.635371	-0.563079	0.230103	-0.113220	0.044434	0.999841	-0.017296	-0.003177	-0.002815	
20288	    0	22.132114	-18.782299	-0.019893	-3.805597	-0.863322	-0.495943	0.220842	-0.188317	0.004335	0.999806	-0.019027	-0.004316	-0.002480	
20289	    0	19.186518	-17.636970	-3.248934	-3.300640	-0.791017	-0.652346	0.191406	-0.177490	-0.028809	0.999850	-0.016502	-0.003955	-0.003262	
20290	    0	14.340345	-10.418701	-1.681984	-2.618122	-0.363172	-1.318217	0.142740	-0.105335	-0.015186	0.999890	-0.013090	-0.001816	-0.006591	
20291	    0	13.409358	0.680362	-0.864513	-1.926497	0.132947	-2.374360	0.134155	0.005127	-0.008789	0.999883	-0.009632	0.000665	-0.011871	
20292	    0	11.271340	4.370852	-4.364578	-1.473908	0.527227	-3.711951	0.113379	0.041284	-0.044254	0.999797	-0.007369	0.002636	-0.018559	
20293	    0	7.282893	4.990863	-6.563788	-1.696796	0.976683	-5.071120	0.073730	0.047485	-0.066406	0.999630	-0.008483	0.004883	-0.025352	
20294	    0	19.364185	8.733257	-5.645720	-1.252752	1.115020	-5.901308	0.195778	0.081216	-0.058066	0.999529	-0.006263	0.005574	-0.029502	
20295	    0	25.888243	5.764562	-0.608823	-1.000208	1.501744	-6.425142	0.260498	0.049255	-0.008301	0.999443	-0.005000	0.007507	-0.032120	
20296	    0	29.358174	-5.295983	1.416231	-0.387642	1.476361	-6.364432	0.291794	-0.062241	0.012118	0.999464	-0.001938	0.007380	-0.031816	
20297	    0	31.373620	-6.459546	0.262534	0.402915	1.472205	-6.868635	0.311279	-0.075317	0.000183	0.999381	0.002014	0.007360	-0.034336	
20298	    0	32.707311	-5.653531	0.581544	0.384421	1.548942	-7.350938	0.324733	-0.068509	0.003170	0.999292	0.001922	0.007743	-0.036746	
20299	    0	35.883123	-5.971495	0.087848	-0.131066	1.405673	-7.471740	0.356262	-0.073059	-0.001587	0.999277	-0.000655	0.007027	-0.037350	
20300	    0	37.086026	-8.454118	-1.555291	-0.929870	1.031175	-7.543696	0.367234	-0.098517	-0.017016	0.999264	-0.004648	0.005155	-0.037709	
20301	    0	32.911840	-12.012405	-2.305122	-2.003953	0.725155	-7.230563	0.324402	-0.132141	-0.022949	0.999290	-0.010017	0.003625	-0.036144	
20302	    0	27.464108	-15.321549	-2.596090	-2.437555	0.628991	-6.815311	0.269123	-0.162758	-0.024868	0.999340	-0.012185	0.003144	-0.034069	
20303	    0	23.818675	-15.298208	-3.902507	-2.170041	0.508219	-6.539692	0.232910	-0.161072	-0.037903	0.999403	-0.010848	0.002541	-0.032692	
20304	    0	23.190343	-12.656662	-4.204364	-2.041423	0.536825	-6.237203	0.227687	-0.134136	-0.041315	0.999457	-0.010205	0.002684	-0.031180	
20305	    0	24.560879	-9.891197	-4.266698	-1.655062	0.752561	-5.695428	0.242493	-0.106201	-0.042725	0.999553	-0.008274	0.003762	-0.028473	
20306	    0	24.855658	-9.293872	-4.784429	-0.728110	0.931836	-4.825898	0.245990	-0.099072	-0.048641	0.999691	-0.003640	0.004659	-0.024127	
20307	    0	21.613481	-11.438829	-6.114050	0.367185	0.896503	-3.511241	0.213806	-0.118042	-0.062317	0.999834	0.001836	0.004482	-0.017555	
20308	    0	17.596504	-10.888397	-7.291769	0.967242	0.943018	-2.120646	0.174452	-0.110382	-0.074274	0.999921	0.004836	0.004715	-0.010603	
20309	    0	13.381234	-9.639321	-5.144237	1.191152	0.708778	-0.803384	0.133240	-0.096619	-0.052490	0.999968	0.005956	0.003544	-0.004017	
20310	    0	4.750502	-6.219632	-4.452841	1.296437	0.348094	0.660140	0.047631	-0.061749	-0.045012	0.999971	0.006482	0.001740	0.003301	
20311	    0	-3.047538	-2.144394	-5.191109	1.375810	0.372325	2.217929	-0.030334	-0.021423	-0.052002	0.999912	0.006879	0.001862	0.011089	
20312	    0	-7.742253	-0.427628	-5.565487	1.165847	0.615541	3.708316	-0.077500	-0.005389	-0.055446	0.999805	0.005829	0.003078	0.018540	
20313	    0	-8.314197	-0.468416	-7.329350	0.550907	0.895987	5.212253	-0.083313	-0.006653	-0.072937	0.999646	0.002754	0.004479	0.026058	
20314	    0	-3.170061	-0.704525	-7.393475	-0.214424	0.891651	6.417444	-0.031780	-0.008143	-0.073785	0.999475	-0.001072	0.004457	0.032082	
20315	    0	-1.639619	-1.210001	-8.304115	-0.680518	0.629579	7.606842	-0.016174	-0.013000	-0.082947	0.999266	-0.003402	0.003147	0.038025	
20316	    0	-2.246185	-0.948338	-7.428323	-0.845034	0.409447	8.694176	-0.022164	-0.010765	-0.074194	0.999043	-0.004224	0.002047	0.043457	
20317	    0	1.248924	-2.464076	-5.926139	-0.517465	0.085672	9.427330	0.013611	-0.024170	-0.059204	0.998885	-0.002586	0.000428	0.047119	
20318	    0	4.652360	-4.136331	-4.654727	0.123074	-0.155511	9.825082	0.048514	-0.038983	-0.046535	0.998793	0.000615	-0.000777	0.049106	
20319	    0	7.334234	-5.028107	-3.817127	0.958088	-0.348049	10.058299	0.075806	-0.046326	-0.038269	0.998722	0.004788	-0.001740	0.050270	
20320	    0	9.730021	-5.243813	-3.925581	1.782853	-0.492703	10.326734	0.099917	-0.046971	-0.039447	0.998624	0.008910	-0.002462	0.051610	
20321	    0	12.548352	-4.568323	-3.566315	2.318385	-0.487760	10.635296	0.127747	-0.038513	-0.035828	0.998516	0.011586	-0.002438	0.053150	
20322	    0	14.482888	-1.444266	-4.210450	3.023837	-0.625760	10.995928	0.145438	-0.005821	-0.041781	0.998369	0.015111	-0.003127	0.054950	
20323	    0	15.889151	2.193583	-4.504746	3.229111	-0.583034	11.347691	0.157410	0.031616	-0.044128	0.998256	0.016136	-0.002913	0.056705	
20324	    0	17.281033	5.279304	-4.690315	3.456510	-0.620649	11.586589	0.169480	0.063473	-0.045338	0.998168	0.017272	-0.003101	0.057898	
20325	    0	20.855520	7.628454	-5.321640	3.520092	-0.499844	11.658063	0.203735	0.089172	-0.051208	0.998143	0.017590	-0.002498	0.058254	
20326	    0	24.096169	12.850746	-6.731949	3.833264	-0.525798	11.509526	0.233166	0.143330	-0.064046	0.998158	0.019155	-0.002627	0.057512	
20327	    0	25.848681	20.254760	-8.603071	4.076661	-0.505360	11.086626	0.246887	0.218140	-0.081055	0.998253	0.020371	-0.002525	0.055401	
20328	    0	25.807919	28.208441	-8.688163	4.071091	-0.469837	10.471329	0.242987	0.296755	-0.080356	0.998420	0.020345	-0.002348	0.052329	
20329	    0	27.629492	35.831194	-7.246716	3.571378	-0.447853	9.669205	0.258667	0.372314	-0.065308	0.998670	0.017849	-0.002238	0.048325	
20330	    0	32.899829	44.105328	-8.319988	2.650577	-0.480431	8.554655	0.309902	0.455627	-0.076465	0.998994	0.013248	-0.002401	0.042759	
20331	    0	36.372633	55.562020	-9.217011	0.650335	-0.697456	6.593779	0.345459	0.567505	-0.089111	0.999445	0.003251	-0.003487	0.032963	
20332	    0	20.916558	63.039185	-10.250908	-1.568204	-1.023978	4.792361	0.194534	0.634346	-0.106452	0.999669	-0.007840	-0.005119	0.023959	
20333	    0	9.760998	57.495887	-8.656793	-3.213017	-1.016133	3.077202	0.089233	0.574890	-0.095337	0.999740	-0.016064	-0.005080	0.015385	
20334	    0	7.612707	51.659583	-3.503051	-3.977113	-0.822890	1.029471	0.073641	0.516150	-0.044991	0.999780	-0.019884	-0.004114	0.005147	
20335	    0	5.579917	45.599338	2.526070	-3.909566	-0.691079	-0.692796	0.057312	0.456177	0.016541	0.999797	-0.019547	-0.003455	-0.003464	
20336	    0	5.336748	38.006267	5.245940	-3.670024	-0.472106	-2.233488	0.057501	0.380315	0.045614	0.999765	-0.018349	-0.002360	-0.011167	
20337	    0	5.841810	31.688294	7.303678	-3.388365	-0.264004	-3.557946	0.063965	0.316956	0.067749	0.999697	-0.016940	-0.001320	-0.017788	
20338	    0	13.511476	14.047442	-6.286157	-3.433011	-1.048960	-3.456664	0.137838	0.137010	-0.064515	0.999689	-0.017163	-0.005244	-0.017282	
20339	    0	14.379656	-34.017636	-29.608946	-3.627104	-1.088799	-2.052466	0.141846	-0.346924	-0.289062	0.999767	-0.018134	-0.005444	-0.010262	
20340	    0	24.481479	-50.071535	-51.952943	0.543227	-1.696249	-1.735732	0.244867	-0.501431	-0.518814	0.999922	0.002716	-0.008481	-0.008678	
20341	    0	89.440048	148.936721	-9.107636	1.334655	2.727529	-13.311423	0.989502	1.426208	-0.094482	0.997670	0.006668	0.013627	-0.066505	
20342	    0	75.068931	-0.823411	48.916659	-4.538103	-2.628528	-7.782549	0.743387	-0.026006	0.499427	0.998899	-0.022682	-0.013138	-0.038898	
20343	    0	-1.822684	-24.425996	20.947922	-1.235433	-2.302034	-6.216846	-0.028198	-0.242188	0.210693	0.999431	-0.006176	-0.011508	-0.031078	
20344	    0	-12.438494	18.560246	25.758603	0.232368	-1.747340	-7.198264	-0.119852	0.189672	0.256744	0.999313	0.001162	-0.008735	-0.035983	
20345	    0	6.377120	11.528410	-1.787427	0.359576	-1.204055	-5.071836	0.066772	0.113647	-0.017273	0.999659	0.001798	-0.006020	-0.025356	
20346	    0	8.972105	17.868835	-3.892835	-1.010601	-1.427583	-4.211409	0.093733	0.176545	-0.039165	0.999740	-0.005053	-0.007137	-0.021055	
20347	    0	-0.157340	-2.915697	-3.666076	-1.589107	-1.179575	-3.225137	-0.001831	-0.029419	-0.036438	0.999821	-0.007945	-0.005898	-0.016125	
20348	    0	10.555364	8.646199	-6.813787	-0.615913	-1.031163	-3.191912	0.107264	0.084550	-0.067850	0.999854	-0.003079	-0.005156	-0.015959	
20349	    0	13.609597	15.332521	-6.661195	-0.822292	-0.584436	-2.976349	0.138550	0.151001	-0.066833	0.999876	-0.004111	-0.002922	-0.014881	
20350	    0	9.683051	7.762455	-2.615680	-0.238616	-0.204283	-2.563548	0.097841	0.076344	-0.026149	0.999916	-0.001193	-0.001021	-0.012817	
20351	    0	14.708177	11.620001	-15.349684	-1.017596	0.293739	-2.228603	0.148132	0.113770	-0.154297	0.999924	-0.005088	0.001469	-0.011143	
20352	    0	17.573000	3.423774	-12.933403	-0.934053	0.778600	-2.160891	0.175576	0.031734	-0.130170	0.999923	-0.004670	0.003893	-0.010804	
20353	    0	20.812240	2.101548	-11.134621	-0.736255	1.206429	-2.029471	0.207642	0.018494	-0.112671	0.999923	-0.003681	0.006032	-0.010147	
20354	    0	25.599264	3.131425	-5.710725	-0.766391	1.470219	-1.719325	0.255818	0.028891	-0.059102	0.999928	-0.003832	0.007351	-0.008596	
20355	    0	25.673285	3.551045	-2.024290	-0.608076	1.503976	-1.555666	0.256836	0.033447	-0.022278	0.999936	-0.003040	0.007520	-0.007778	
20356	    0	25.391801	6.790550	1.015185	-0.906201	1.208903	-1.672017	0.254528	0.065820	0.008313	0.999936	-0.004531	0.006044	-0.008360	
20357	    0	28.832474	-0.289318	4.565163	-1.577029	0.697532	-1.456482	0.288452	-0.004639	0.044678	0.999936	-0.007885	0.003488	-0.007282	
20358	    0	28.432924	-4.651322	4.940877	-2.762511	0.057032	-0.953327	0.284120	-0.047180	0.049976	0.999893	-0.013812	0.000285	-0.004766	
20359	    0	26.222708	-12.504497	7.591998	-3.618064	-0.240912	-0.665321	0.261719	-0.124512	0.078491	0.999829	-0.018089	-0.001204	-0.003326	
20360	    0	22.273319	-14.529696	4.447558	-3.845084	-0.425176	-0.825173	0.222034	-0.145317	0.047742	0.999804	-0.019224	-0.002126	-0.004126	
20361	    0	20.591013	-18.501516	-1.959024	-3.646303	-0.503379	-0.810290	0.205200	-0.186157	-0.015686	0.999822	-0.018230	-0.002517	-0.004051	
20362	    0	17.641476	-13.615708	-4.969693	-2.657413	-0.041200	-1.222082	0.175586	-0.137876	-0.047836	0.999892	-0.013287	-0.000206	-0.006110	
20363	    0	15.688795	-8.508158	-0.096926	-1.506852	0.684569	-2.180549	0.155945	-0.086792	-0.000854	0.999906	-0.007534	0.003423	-0.010902	
20364	    0	14.022653	-1.005081	-3.862106	0.084881	0.957532	-3.134296	0.139859	-0.012228	-0.039296	0.999866	0.000424	0.004787	-0.015671	
20365	    0	12.514987	1.721678	-4.989006	0.747175	1.223864	-4.404080	0.125183	0.014648	-0.050598	0.999731	0.003736	0.006119	-0.022018	
20366	    0	11.640906	2.440013	-3.937280	0.731951	1.478972	-5.526546	0.116732	0.021323	-0.040154	0.999584	0.003659	0.007394	-0.027629	
20367	    0	22.283494	8.548906	-6.793707	1.270710	1.326223	-6.248816	0.224915	0.078918	-0.068909	0.999470	0.006352	0.006630	-0.031239	
20368	    0	25.782976	0.709248	2.273757	1.604205	1.545638	-6.498088	0.258040	-0.001462	0.020755	0.999410	0.008019	0.007727	-0.032484	
20369	    0	27.999095	-3.962350	4.060778	1.818471	1.331040	-6.777106	0.278687	-0.049438	0.038330	0.999362	0.009090	0.006654	-0.033878	
20370	    0	29.660386	-3.627045	3.369128	1.807844	1.253052	-7.322187	0.295206	-0.047388	0.031444	0.999269	0.009037	0.006264	-0.036602	
20371	    0	34.495824	-2.418036	2.003293	0.916516	1.054833	-7.567938	0.343811	-0.037292	0.018066	0.999259	0.004581	0.005273	-0.037830	
20372	    0	39.019391	-2.821314	0.385673	-0.380036	0.623664	-7.595379	0.388758	-0.042992	0.002715	0.999271	-0.001900	0.003118	-0.037968	
20373	    0	36.095234	-9.165319	-0.162004	-1.852637	0.192303	-7.051123	0.357422	-0.104309	-0.001038	0.999334	-0.009261	0.000961	-0.035248	
20374	    0	30.326813	-14.808413	-0.577398	-2.686320	0.099394	-6.691857	0.298085	-0.158177	-0.003843	0.999350	-0.013429	0.000497	-0.033452	
20375	    0	25.830388	-13.969393	-1.793785	-2.848670	0.098631	-6.620696	0.253479	-0.148376	-0.015991	0.999351	-0.014240	0.000493	-0.033096	
20376	    0	24.258585	-11.228437	-3.730588	-2.922457	0.165591	-6.313453	0.238840	-0.120395	-0.035785	0.999394	-0.014609	0.000828	-0.031561	
20377	    0	25.083313	-8.888061	-5.436915	-3.094842	0.299125	-5.744429	0.248047	-0.096863	-0.053284	0.999466	-0.015471	0.001495	-0.028717	
20378	    0	25.507518	-8.254262	-6.808651	-3.082523	0.387438	-4.949129	0.252781	-0.089858	-0.067230	0.999573	-0.015410	0.001937	-0.024742	
20379	    0	24.886781	-10.198893	-6.653507	-2.842990	0.519803	-3.880689	0.246643	-0.107727	-0.065674	0.999707	-0.014214	0.002599	-0.019402	
20380	    0	21.956315	-10.966465	-6.533324	-2.460431	0.675240	-2.716794	0.217820	-0.113430	-0.064691	0.999825	-0.012301	0.003376	-0.013583	
20381	    0	16.823400	-9.594724	-6.210585	-1.882030	0.687426	-1.490059	0.167297	-0.097778	-0.061768	0.999922	-0.009410	0.003437	-0.007450	
20382	    0	10.320755	-8.132630	-5.040603	-1.385130	0.649268	-0.065232	0.103018	-0.081708	-0.050176	0.999970	-0.006926	0.003246	-0.000326	
20383	    0	1.156788	-5.559124	-5.518479	-0.389867	0.652513	1.628898	0.011841	-0.055603	-0.055115	0.999959	-0.001949	0.003263	0.008144	
20384	    0	-3.181597	-2.585859	-6.897430	0.708806	0.958491	3.258487	-0.031722	-0.026132	-0.068914	0.999849	0.003544	0.004792	0.016292	
20385	    0	-6.027510	-0.838982	-9.025818	1.259943	1.354367	4.805524	-0.060669	-0.009277	-0.089905	0.999668	0.006299	0.006771	0.024025	
20386	    0	-4.749633	0.622022	-9.600846	0.936287	1.695161	6.120588	-0.048477	0.005195	-0.095574	0.999484	0.004681	0.008474	0.030598	
20387	    0	-0.837659	0.619560	-10.280907	0.345692	1.678285	7.268687	-0.009460	0.006042	-0.102722	0.999303	0.001728	0.008389	0.036335	
20388	    0	-0.207852	1.626332	-10.713621	-0.274360	1.525769	8.388583	-0.003571	0.015987	-0.107135	0.999090	-0.001371	0.007627	0.041930	
20389	    0	-0.185094	0.305856	-10.132608	-0.518228	1.267903	9.328100	-0.002625	0.002686	-0.101318	0.998889	-0.002590	0.006337	0.046623	
20390	    0	2.907381	-1.265115	-10.070228	-0.277444	0.923159	9.937217	0.029194	-0.011342	-0.100821	0.998754	-0.001387	0.004614	0.049665	
20391	    0	5.616760	-2.553642	-9.571604	0.198643	0.516738	10.274460	0.057129	-0.022522	-0.095886	0.998676	0.000993	0.002583	0.051350	
20392	    0	8.039165	-3.631251	-9.265638	0.786387	0.125944	10.578347	0.082089	-0.031634	-0.092838	0.998593	0.003930	0.000629	0.052867	
20393	    0	11.077964	-3.762476	-8.639511	1.172654	-0.183961	10.906347	0.112671	-0.031006	-0.086487	0.998495	0.005860	-0.000919	0.054504	
20394	    0	14.083421	-2.344303	-7.515708	1.397307	-0.464879	11.228648	0.142008	-0.014965	-0.074952	0.998397	0.006983	-0.002323	0.056113	
20395	    0	16.379667	1.271765	-7.410741	1.600800	-0.794484	11.585001	0.162964	0.022766	-0.073303	0.998282	0.007999	-0.003970	0.057892	
20396	    0	18.904769	4.377196	-8.453065	1.775296	-1.107890	11.901275	0.186433	0.055664	-0.083034	0.998175	0.008871	-0.005536	0.059470	
20397	    0	21.715481	7.962039	-8.309493	1.941568	-1.329114	12.063561	0.212341	0.093323	-0.080811	0.998112	0.009702	-0.006641	0.060280	
20398	    0	26.193490	13.150511	-6.505387	2.139285	-1.319375	11.991943	0.253819	0.147566	-0.061839	0.998123	0.010690	-0.006593	0.059922	
20399	    0	28.549873	18.326519	-5.921057	2.741555	-1.420685	11.612056	0.274597	0.200195	-0.054565	0.998196	0.013700	-0.007099	0.058025	
20400	    0	28.983898	25.202831	-5.929299	3.477324	-1.577114	10.936175	0.275890	0.268327	-0.052507	0.998322	0.017377	-0.007881	0.054650	
20401	    0	29.793508	33.045604	-3.626213	3.892135	-1.512696	10.006274	0.281128	0.345398	-0.027466	0.998530	0.019451	-0.007560	0.050007	
20402	    0	32.461263	43.679046	-3.487902	3.596741	-1.170038	8.852180	0.305018	0.451093	-0.025027	0.998841	0.017977	-0.005848	0.044244	
20403	    0	34.111527	52.381767	-3.956243	2.076652	-0.879882	7.280204	0.321899	0.536133	-0.032593	0.999273	0.010381	-0.004398	0.036392	
20404	    0	26.257540	57.576445	-4.773180	0.100912	-0.892753	5.457429	0.246946	0.582669	-0.046313	0.999618	0.000504	-0.004463	0.027284	
20405	    0	15.344194	55.618573	-7.999513	-1.347254	-0.765282	3.789785	0.143188	0.558411	-0.083191	0.999790	-0.006736	-0.003826	0.018948	
20406	    0	11.337981	52.490807	-8.250694	-1.983137	-0.652526	1.921909	0.108614	0.525117	-0.087354	0.999899	-0.009915	-0.003263	0.009609	
20407	    0	6.395852	50.004253	-2.599774	-1.983678	-0.605594	0.008392	0.064026	0.499756	-0.030762	0.999946	-0.009918	-0.003028	0.000042	
20408	    0	2.477442	43.405943	1.691870	-1.919992	-0.599115	-1.665926	0.028347	0.433969	0.012834	0.999914	-0.009600	-0.002995	-0.008329	
20409	    0	4.265294	36.102559	2.466492	-1.995010	-0.485257	-3.081689	0.048157	0.360535	0.021179	0.999828	-0.009974	-0.002426	-0.015408	
20410	    0	7.414719	27.403399	2.605310	-2.119249	-0.582937	-4.013412	0.079558	0.272731	0.023385	0.999738	-0.010595	-0.002914	-0.020065	
20411	    0	9.276389	16.957882	5.638418	-2.478872	-0.698929	-4.438506	0.096313	0.168152	0.054626	0.999670	-0.012393	-0.003494	-0.022190	
20412	    0	11.135586	-8.679097	-7.337333	-2.385153	-1.395345	-3.597568	0.110264	-0.089642	-0.071544	0.999743	-0.011925	-0.006976	-0.017986	
20413	    0	10.837600	-66.251809	-33.905514	-1.627404	-1.974362	-1.207773	0.107666	-0.665894	-0.332581	0.999900	-0.008137	-0.009871	-0.006039	
20414	    0	22.021650	0.159134	-66.748391	5.006949	-1.823882	-2.577204	0.226429	0.015373	-0.665168	0.999561	0.025031	-0.009118	-0.012884	
20415	    0	121.593812	153.443908	62.174078	-1.466283	4.927962	-15.504138	1.344604	1.437805	0.578857	0.996666	-0.007323	0.024612	-0.077435	
20416	    0	52.472191	-50.779317	6.602004	-3.778855	-5.232055	-4.462815	0.511108	-0.517761	0.089233	0.999230	-0.018889	-0.026154	-0.022308	
20417	    0	-19.458753	-0.368576	32.948037	-0.111411	-2.242534	-6.529007	-0.198242	0.002930	0.327271	0.999404	-0.000557	-0.011210	-0.032639	
20418	    0	-14.032610	5.200424	7.891881	0.727967	-1.335369	-6.178563	-0.139160	0.056030	0.078186	0.999494	0.003639	-0.006676	-0.030888	
20419	    0	15.960953	18.900965	-1.231850	0.678699	-0.774648	-4.670970	0.164010	0.185252	-0.011056	0.999713	0.003393	-0.003873	-0.023353	
20420	    0	9.375333	9.644956	-5.499320	-1.116068	-1.400474	-3.691932	0.095893	0.094386	-0.054857	0.999789	-0.005580	-0.007002	-0.018458	
20421	    0	1.901454	0.882212	-3.612717	-1.232974	-1.119099	-3.106850	0.019348	0.008301	-0.036072	0.999845	-0.006165	-0.005595	-0.015533	
20422	    0	13.906385	10.210303	-10.093827	-1.007895	-0.893829	-3.242659	0.141140	0.099318	-0.100816	0.999845	-0.005039	-0.004469	-0.016212	
