// Start Time: Unknown
// Update Rate: 100.0Hz
// Filter Profile: human (34.3)
// Firmware Version: 2.1.4
PacketCounter	SampleTimeFine	Acc_X	Acc_Y	Acc_Z	Gyr_X	Gyr_Y	Gyr_Z	VelInc_X	VelInc_Y	VelInc_Z	OriInc_q0	OriInc_q1	OriInc_q2	OriInc_q3	
42932	    0	19.358472	-7.878888	1.881797	-1.483164	1.030107	-5.394137	0.191464	-0.083835	0.018437	0.999595	-0.007415	0.005150	-0.026967	
42933	    0	18.904425	-8.290462	1.156903	-0.650109	1.115753	-5.420623	0.186768	-0.087952	0.010803	0.999612	-0.003250	0.005578	-0.027100	
42934	    0	18.889708	-7.276436	1.540503	-0.081264	1.234217	-5.483968	0.186898	-0.077902	0.014278	0.999604	-0.000406	0.006170	-0.027416	
42935	    0	18.221030	-4.326725	0.775201	0.505896	1.216479	-5.506106	0.180969	-0.048279	0.006531	0.999599	0.002529	0.006082	-0.027527	
42936	    0	18.194211	-2.379782	0.084534	1.102979	1.189394	-5.487809	0.181198	-0.028777	-0.000383	0.999590	0.005514	0.005946	-0.027435	
42937	    0	18.083211	-1.426761	-1.351566	1.532377	0.972114	-5.344337	0.180298	-0.018982	-0.014526	0.999601	0.007661	0.004860	-0.026718	
42938	    0	18.334030	-0.854991	-2.362183	1.623543	0.729650	-5.120141	0.182957	-0.013041	-0.024384	0.999632	0.008117	0.003648	-0.025598	
42939	    0	18.197766	-0.606182	-2.041046	1.163800	0.519618	-4.945911	0.181702	-0.010437	-0.020935	0.999674	0.005818	0.002598	-0.024727	
42940	    0	17.461758	-0.953176	-1.281023	0.701019	0.434537	-4.782574	0.174295	-0.013657	-0.013232	0.999705	0.003505	0.002172	-0.023911	
42941	    0	16.167055	-2.069235	-0.563002	0.461619	0.369486	-4.555149	0.161133	-0.024353	-0.005981	0.999736	0.002308	0.001847	-0.022774	
42942	    0	14.642403	-3.407596	-0.448038	0.459133	0.286314	-4.202394	0.145658	-0.037131	-0.004772	0.999775	0.002295	0.001431	-0.021010	
42943	    0	13.258173	-3.461926	-0.963811	0.483732	0.245109	-3.712681	0.131897	-0.037048	-0.009888	0.999824	0.002419	0.001225	-0.018562	
42944	    0	12.448141	-2.616260	-1.953305	0.593781	0.323881	-3.028610	0.124035	-0.027985	-0.019815	0.999879	0.002969	0.001619	-0.015142	
42945	    0	11.581331	-0.735322	-2.656236	0.495921	0.471698	-2.174425	0.115662	-0.008545	-0.026855	0.999934	0.002480	0.002358	-0.010872	
42946	    0	8.594286	1.140879	-4.078703	0.369074	0.466731	-1.121338	0.085910	0.011003	-0.040967	0.999979	0.001845	0.002334	-0.005607	
42947	    0	3.501191	2.614337	-4.715610	-0.090027	0.419808	0.005341	0.034912	0.026123	-0.047241	0.999997	-0.000450	0.002099	0.000027	
42948	    0	-1.636674	2.602062	-4.380150	-0.309946	0.384524	1.147659	-0.016600	0.025858	-0.043810	0.999980	-0.001550	0.001923	0.005738	
42949	    0	-3.862377	1.456696	-4.072926	-0.254827	0.505267	2.144667	-0.038879	0.014099	-0.040649	0.999938	-0.001274	0.002526	0.010723	
42950	    0	-4.396939	0.565548	-3.387276	-0.127226	0.703270	3.138296	-0.044169	0.004942	-0.033721	0.999870	-0.000636	0.003516	0.015691	
42951	    0	-3.575180	0.991596	-3.053842	-0.194564	0.845589	4.065234	-0.036072	0.009155	-0.030396	0.999784	-0.000973	0.004228	0.020325	
42952	    0	-2.434680	0.886477	-2.689743	-0.345839	0.848479	4.982718	-0.024671	0.008206	-0.026808	0.999679	-0.001729	0.004242	0.024911	
42953	    0	-1.858991	-0.447423	-2.754682	-0.349477	0.780792	5.855652	-0.018555	-0.005066	-0.027466	0.999562	-0.001747	0.003903	0.029274	
42954	    0	-1.733565	-1.194390	-2.808023	-0.106832	0.749730	6.693198	-0.017028	-0.012532	-0.028009	0.999433	-0.000534	0.003748	0.033460	
42955	    0	-0.541565	-0.686093	-2.698560	0.293228	0.689095	7.451845	-0.005249	-0.007019	-0.026978	0.999298	0.001466	0.003445	0.037251	
42956	    0	1.411443	0.158221	-2.752793	0.770397	0.613761	8.029457	0.013948	0.002251	-0.027563	0.999182	0.003851	0.003068	0.040136	
42957	    0	3.245592	0.128257	-2.611002	1.172997	0.541281	8.479619	0.032288	0.002808	-0.026184	0.999080	0.005863	0.002706	0.042385	
42958	    0	4.761718	-0.678288	-2.477021	1.515712	0.470893	8.879429	0.047791	-0.004475	-0.024922	0.998982	0.007576	0.002354	0.044382	
42959	    0	6.519806	-0.957899	-2.359923	1.801202	0.420726	9.226579	0.065491	-0.006348	-0.023804	0.998893	0.009003	0.002103	0.046116	
42960	    0	8.799193	-0.637185	-1.886293	1.854290	0.420354	9.522937	0.088117	-0.002001	-0.019080	0.998821	0.009268	0.002101	0.047596	
42961	    0	10.862642	-0.198956	-1.278699	1.835050	0.420552	9.741391	0.108521	0.003418	-0.013000	0.998770	0.009171	0.002102	0.048687	
42962	    0	12.958553	-0.010466	-1.129297	2.013694	0.347096	9.969626	0.129353	0.006464	-0.011475	0.998705	0.010064	0.001735	0.049827	
42963	    0	15.159056	1.422091	-2.192156	2.298460	0.122890	10.260922	0.150574	0.022217	-0.021790	0.998617	0.011487	0.000614	0.051281	
42964	    0	17.139739	2.526400	-1.938220	2.155004	-0.005725	10.518357	0.169747	0.034430	-0.019039	0.998559	0.010770	-0.000029	0.052567	
42965	    0	19.350307	3.913908	-0.288019	1.939777	-0.055722	10.707033	0.191040	0.049438	-0.002380	0.998520	0.009694	-0.000278	0.053509	
42966	    0	22.122602	5.986409	0.560084	1.947020	-0.064309	10.656799	0.217621	0.071468	0.006330	0.998533	0.009730	-0.000321	0.053258	
42967	    0	25.835816	7.235151	-0.436755	2.522741	-0.131099	10.500097	0.254089	0.085815	-0.003174	0.998542	0.012608	-0.000655	0.052475	
42968	    0	30.239723	9.457391	-3.188105	3.412192	-0.144266	10.259667	0.297024	0.110429	-0.029871	0.998538	0.017053	-0.000721	0.051273	
42969	    0	33.387002	13.307315	-4.809972	4.138822	0.072514	9.865697	0.326721	0.150269	-0.045227	0.998569	0.020684	0.000362	0.049305	
42970	    0	33.586906	18.722352	-5.535044	4.707585	0.352639	9.360785	0.326490	0.203895	-0.051262	0.998626	0.023527	0.001762	0.046782	
42971	    0	33.022236	24.408865	-6.650650	4.754535	0.436585	8.825571	0.318848	0.259827	-0.061157	0.998741	0.023763	0.002182	0.044109	
42972	    0	33.869104	28.891269	-7.272091	4.234258	0.461548	8.072412	0.326469	0.303719	-0.067157	0.998959	0.021164	0.002307	0.040348	
42973	    0	32.291752	36.234335	-11.118814	3.261605	0.442041	6.938350	0.309814	0.375000	-0.105835	0.999263	0.016304	0.002210	0.034683	
42974	    0	23.655298	40.039573	-19.508607	1.775827	0.142501	5.844071	0.224551	0.408787	-0.191644	0.999533	0.008878	0.000712	0.029216	
42975	    0	16.566005	37.684606	-24.967733	0.132954	-0.273157	4.656642	0.157166	0.380737	-0.249207	0.999727	0.000665	-0.001366	0.023281	
42976	    0	13.606897	44.120986	-14.499030	-2.086379	-0.551447	3.053652	0.129735	0.441681	-0.149233	0.999825	-0.010431	-0.002757	0.015267	
42977	    0	9.832695	45.423656	-2.309347	-4.207002	-0.621847	1.249034	0.095581	0.454224	-0.032349	0.999754	-0.021033	-0.003109	0.006245	
42978	    0	4.890614	36.042790	-1.195010	-4.811955	-0.414317	-0.707124	0.050216	0.359827	-0.020510	0.999701	-0.024057	-0.002071	-0.003535	
42979	    0	3.633071	26.231518	-3.248998	-4.056716	-0.077064	-2.171517	0.039185	0.261169	-0.037781	0.999735	-0.020282	-0.000385	-0.010857	
42980	    0	10.873267	20.216823	-1.725786	-2.692621	0.282882	-3.348800	0.112067	0.200052	-0.020118	0.999767	-0.013462	0.001414	-0.016743	
42981	    0	12.022790	21.187676	0.633908	-1.522009	0.362429	-4.359063	0.124817	0.209229	0.004517	0.999731	-0.007609	0.001812	-0.021793	
42982	    0	10.863724	18.847592	-0.393391	-1.324803	0.074967	-5.022423	0.113321	0.185637	-0.005212	0.999662	-0.006623	0.000375	-0.025109	
42983	    0	11.015440	13.368343	-0.234060	-1.783222	-0.280608	-5.298543	0.113647	0.130676	-0.003357	0.999608	-0.008915	-0.001403	-0.026489	
42984	    0	10.995635	9.453429	2.408303	-2.341410	-0.541573	-5.297645	0.112350	0.091855	0.023299	0.999577	-0.011705	-0.002707	-0.026484	
42985	    0	6.498433	8.230797	5.070352	-3.139009	-0.605864	-5.045306	0.066895	0.081421	0.049622	0.999554	-0.015693	-0.003029	-0.025223	
42986	    0	11.055081	3.047223	1.028600	-4.016712	-0.890865	-4.338720	0.111135	0.028271	0.010198	0.999553	-0.020081	-0.004454	-0.021690	
42987	    0	-6.927284	2.738622	-40.791649	-1.924895	-3.146672	-3.161932	-0.062439	0.024475	-0.409180	0.999704	-0.009624	-0.015732	-0.015808	
42988	    0	16.702654	59.061108	-83.260500	0.086223	-1.103544	-5.455149	0.187644	0.586039	-0.831354	0.999611	0.000431	-0.005517	-0.027272	
42989	    0	87.828040	12.223234	54.195068	-2.589377	2.440753	-7.375107	0.888672	0.096497	0.529785	0.999162	-0.012943	0.012200	-0.036865	
42990	    0	41.948723	-27.643350	8.550710	0.632560	-1.214760	-5.455355	0.411210	-0.288000	0.087123	0.999604	0.003162	-0.006073	-0.027273	
42991	    0	17.807334	33.490460	22.939962	2.430455	-1.793081	-6.292476	0.186340	0.326294	0.235046	0.999391	0.012150	-0.008964	-0.031456	
42992	    0	-9.091485	-3.505933	-7.991543	0.721451	-1.269502	-5.322750	-0.091290	-0.032343	-0.080614	0.999619	0.003607	-0.006347	-0.026610	
42993	    0	5.751422	12.681928	3.722759	0.596684	0.016977	-5.109969	0.060730	0.125183	0.037598	0.999669	0.002983	0.000085	-0.025547	
42994	    0	13.281969	8.543598	-4.573434	0.131043	-0.091749	-3.955146	0.134496	0.082817	-0.045618	0.999804	0.000655	-0.000459	-0.019774	
42995	    0	15.294940	7.730918	-8.696235	-1.042801	0.220501	-3.348714	0.154114	0.074280	-0.087524	0.999846	-0.005214	0.001102	-0.016743	
42996	    0	13.950036	6.845116	-3.578540	-1.262523	0.154883	-2.777208	0.140403	0.066278	-0.036317	0.999883	-0.006312	0.000774	-0.013885	
42997	    0	20.642228	7.907545	-1.355751	-1.405958	0.352491	-2.590275	0.207397	0.076294	-0.014465	0.999889	-0.007030	0.001762	-0.012951	
42998	    0	20.980789	7.759019	3.264772	-1.294553	0.393878	-2.198853	0.210709	0.075484	0.031740	0.999916	-0.006473	0.001969	-0.010994	
42999	    0	25.663803	4.990163	1.861721	-1.297790	0.422106	-1.924178	0.257141	0.047546	0.017761	0.999930	-0.006489	0.002110	-0.009621	
43000	    0	29.136603	1.557644	2.107865	-1.350430	0.352294	-1.706921	0.291522	0.013228	0.020471	0.999939	-0.006752	0.001761	-0.008534	
43001	    0	27.496225	-6.546342	0.925531	-2.049878	0.080874	-1.291688	0.274536	-0.067139	0.009827	0.999926	-0.010249	0.000404	-0.006458	
43002	    0	25.100667	-8.835131	3.900337	-2.319590	-0.049020	-1.064520	0.250524	-0.089225	0.040096	0.999918	-0.011598	-0.000245	-0.005322	
43003	    0	22.695319	-9.180167	2.646475	-2.702233	-0.214393	-0.915559	0.226501	-0.092468	0.027954	0.999897	-0.013511	-0.001072	-0.004578	
43004	    0	20.345401	-11.638793	0.460931	-2.514531	-0.365459	-0.757049	0.203001	-0.117084	0.006450	0.999911	-0.012572	-0.001827	-0.003785	
43005	    0	18.081354	-13.216086	-4.418963	-2.417054	-0.386629	-0.350198	0.180664	-0.132996	-0.042236	0.999923	-0.012085	-0.001933	-0.001751	
43006	    0	16.013013	-11.498184	-0.905038	-1.534098	0.092507	-0.559813	0.159803	-0.115495	-0.008240	0.999966	-0.007670	0.000463	-0.002799	
43007	    0	18.111026	-0.255191	-0.028788	-0.549320	0.500683	-1.089485	0.181091	-0.003540	-0.000732	0.999978	-0.002747	0.002503	-0.005447	
43008	    0	18.790592	6.730002	-1.196357	-0.288014	0.722706	-1.780347	0.188450	0.065606	-0.012739	0.999952	-0.001440	0.003613	-0.008902	
43009	    0	7.171866	8.613597	-6.216601	-1.374685	0.992627	-2.732204	0.072571	0.084717	-0.063110	0.999870	-0.006873	0.004963	-0.013660	
43010	    0	9.593700	13.314712	-7.155948	-1.686224	1.030046	-3.780842	0.098049	0.130694	-0.073170	0.999772	-0.008430	0.005150	-0.018903	
43011	    0	14.619224	22.479476	-7.285937	-1.866940	0.924791	-4.865070	0.151245	0.220459	-0.075623	0.999649	-0.009334	0.004623	-0.024323	
43012	    0	16.269755	8.320960	-5.941316	-1.736054	0.541742	-4.583442	0.164376	0.078933	-0.060555	0.999696	-0.008679	0.002708	-0.022915	
43013	    0	19.527791	2.811493	-5.012533	-1.523715	0.474778	-4.140049	0.195679	0.023682	-0.050781	0.999753	-0.007618	0.002374	-0.020699	
43014	    0	21.182480	-3.134914	-2.086820	-1.005630	0.614594	-4.082605	0.211060	-0.035769	-0.021345	0.999774	-0.005028	0.003073	-0.020411	
43015	    0	20.474899	-5.499849	0.329748	-0.747744	0.692998	-4.375063	0.203491	-0.059448	0.002808	0.999747	-0.003738	0.003465	-0.021873	
43016	    0	19.495971	-6.152941	2.132144	-0.917146	0.691866	-4.804146	0.193481	-0.066092	0.020947	0.999695	-0.004585	0.003459	-0.024018	
43017	    0	19.070923	-6.728286	3.568681	-1.163621	0.734225	-5.151978	0.189026	-0.071960	0.035400	0.999644	-0.005817	0.003671	-0.025757	
43018	    0	20.065045	-6.363866	3.689151	-1.461990	0.783645	-5.455375	0.198964	-0.068813	0.036600	0.999593	-0.007309	0.003918	-0.027273	
43019	    0	21.722142	-4.574199	1.633707	-1.935878	0.990640	-5.703858	0.215881	-0.051758	0.015747	0.999534	-0.009678	0.004952	-0.028515	
43020	    0	22.629543	-3.794481	1.016996	-1.987391	1.256951	-5.705404	0.225152	-0.044285	0.009171	0.999523	-0.009935	0.006284	-0.028522	
43021	    0	22.566452	-5.895921	0.570309	-1.608325	1.400202	-5.581732	0.223938	-0.065186	0.004639	0.999554	-0.008040	0.007000	-0.027905	
43022	    0	22.302616	-5.811522	-0.641583	-1.194937	1.336865	-5.633984	0.221223	-0.064407	-0.007526	0.999562	-0.005974	0.006683	-0.028166	
43023	    0	21.837546	-4.942146	-2.080114	-0.746069	1.262079	-5.615259	0.216736	-0.055603	-0.021973	0.999578	-0.003730	0.006310	-0.028072	
43024	    0	21.334643	-3.804550	-2.650271	-0.413949	1.194730	-5.489121	0.212031	-0.043934	-0.027685	0.999603	-0.002069	0.005973	-0.027442	
43025	    0	21.026026	-3.601464	-3.296938	-0.122848	1.062328	-5.221413	0.209045	-0.041504	-0.034058	0.999644	-0.000614	0.005311	-0.026104	
43026	    0	20.083009	-4.273404	-2.843366	0.042538	0.951677	-4.937883	0.199555	-0.047666	-0.029395	0.999683	0.000213	0.004758	-0.024687	
43027	    0	17.935258	-4.182018	-1.916559	0.061232	0.804215	-4.710073	0.178223	-0.046021	-0.019897	0.999714	0.000306	0.004021	-0.023548	
43028	    0	15.527960	-3.449719	-1.287207	0.114069	0.641877	-4.472732	0.154414	-0.037950	-0.013390	0.999744	0.000570	0.003209	-0.022362	
43029	    0	13.284198	-2.796643	-0.841135	0.147258	0.537339	-4.139247	0.132202	-0.030701	-0.008789	0.999782	0.000736	0.002687	-0.020695	
43030	    0	11.232897	-2.124147	-1.157004	0.188266	0.401137	-3.588872	0.111900	-0.023241	-0.011816	0.999836	0.000941	0.002006	-0.017943	
43031	    0	9.642953	-1.342152	-2.070081	0.059702	0.350964	-2.815341	0.096191	-0.014771	-0.020874	0.999899	0.000299	0.001755	-0.014076	
43032	    0	7.973339	-0.746015	-3.257916	-0.077439	0.401121	-1.727127	0.079599	-0.008161	-0.032736	0.999960	-0.000387	0.002006	-0.008636	
43033	    0	4.671888	-0.410595	-4.527400	-0.193596	0.339509	-0.525666	0.046631	-0.004272	-0.045349	0.999994	-0.000968	0.001698	-0.002628	
43034	    0	-0.460403	0.714906	-5.224020	-0.385476	0.209618	0.644876	-0.004682	0.007033	-0.052249	0.999992	-0.001927	0.001048	0.003224	
43035	    0	-6.110568	1.664096	-5.243107	-0.360876	0.101663	1.813533	-0.061279	0.015991	-0.052429	0.999957	-0.001804	0.000508	0.009068	
43036	    0	-9.108199	2.261341	-4.787461	-0.087169	0.160986	2.955354	-0.091441	0.021243	-0.047811	0.999890	-0.000436	0.000805	0.014776	
43037	    0	-7.820843	1.818139	-3.808786	-0.021364	0.320647	4.015622	-0.078613	0.016602	-0.037964	0.999797	-0.000107	0.001603	0.020077	
43038	    0	-4.238555	0.722815	-3.163317	-0.010873	0.301201	4.926609	-0.042594	0.006179	-0.031569	0.999695	-0.000054	0.001506	0.024631	
43039	    0	-2.401068	-1.431015	-3.351485	0.227387	0.196293	5.738857	-0.023621	-0.014954	-0.033508	0.999587	0.001137	0.000981	0.028690	
43040	    0	-1.856986	-1.885209	-3.388391	0.568107	0.146701	6.434034	-0.017978	-0.019341	-0.033925	0.999477	0.002840	0.000733	0.032165	
43041	    0	-0.898325	-1.102874	-3.565711	0.939568	0.086993	7.062499	-0.008606	-0.011169	-0.035706	0.999365	0.004697	0.000435	0.035305	
43042	    0	0.862930	-0.835063	-3.734552	1.278816	0.085661	7.643896	0.008918	-0.007774	-0.037400	0.999249	0.006392	0.000428	0.038210	
43043	    0	2.873251	-0.608389	-3.461947	1.587365	0.054375	8.106247	0.028931	-0.004639	-0.034668	0.999146	0.007935	0.000272	0.040520	
43044	    0	4.725771	-0.586300	-2.486304	1.742906	0.053041	8.473750	0.047437	-0.003638	-0.024914	0.999064	0.008712	0.000265	0.042356	
43045	    0	6.020337	-0.270930	-1.940828	1.898260	-0.022896	8.788208	0.060242	0.000122	-0.019409	0.998989	0.009488	-0.000114	0.043926	
43046	    0	7.295232	0.503671	-1.681929	1.840672	-0.085289	9.039269	0.072628	0.008479	-0.016721	0.998936	0.009200	-0.000426	0.045180	
43047	    0	8.803665	1.101811	-1.497436	1.676223	-0.061821	9.254051	0.087402	0.015198	-0.014832	0.998894	0.008378	-0.000309	0.046253	
43048	    0	10.748154	0.520119	-1.255202	1.594396	-0.021943	9.490241	0.107072	0.010389	-0.012471	0.998842	0.007969	-0.000110	0.047433	
43049	    0	12.761065	0.326707	-1.811429	1.885234	-0.155513	9.742920	0.127258	0.009644	-0.017944	0.998769	0.009422	-0.000777	0.048695	
43050	    0	15.357388	1.831476	-2.151269	1.935462	-0.275350	10.004178	0.152425	0.026166	-0.021074	0.998701	0.009673	-0.001376	0.049999	
43051	    0	17.373303	3.212757	-0.810282	1.741036	-0.306647	10.156169	0.171814	0.040955	-0.007507	0.998672	0.008701	-0.001533	0.050758	
43052	    0	19.350530	3.699446	0.978076	1.653637	-0.276497	10.146225	0.191287	0.046655	0.010406	0.998678	0.008265	-0.001382	0.050709	
43053	    0	21.837441	4.469428	0.933440	2.199754	-0.434875	10.001173	0.215759	0.055420	0.010376	0.998687	0.010994	-0.002173	0.049984	
43054	    0	26.006652	6.253102	-1.294939	2.926979	-0.535248	9.874332	0.256585	0.075433	-0.011218	0.998671	0.014628	-0.002675	0.049350	
43055	    0	30.102349	9.590108	-2.358813	3.504388	-0.373242	9.653142	0.295959	0.110657	-0.021179	0.998680	0.017514	-0.001865	0.048244	
43056	    0	31.743251	13.672524	-3.189664	4.122999	-0.174407	9.339765	0.310597	0.151953	-0.028595	0.998696	0.020606	-0.000872	0.046679	
43057	    0	32.061976	19.252412	-4.531292	4.607034	0.040644	8.911818	0.311584	0.207520	-0.040710	0.998742	0.023026	0.000203	0.044540	
43058	    0	32.309727	25.369563	-3.432277	4.345015	0.265601	8.335705	0.312096	0.267529	-0.029029	0.998895	0.021717	0.001328	0.041663	
43059	    0	31.914885	29.831575	-1.141516	3.683960	0.406764	7.441565	0.307739	0.310059	-0.006409	0.999136	0.018414	0.002033	0.037197	
43060	    0	28.771190	33.640217	-5.050232	2.654979	0.514704	6.314184	0.276767	0.345893	-0.046674	0.999410	0.013272	0.002573	0.031565	
43061	    0	20.421300	32.100169	-16.612820	1.867167	0.367215	5.393954	0.195129	0.327881	-0.163452	0.999591	0.009335	0.001836	0.026966	
43062	    0	14.145340	32.749109	-24.213564	0.739158	0.039867	4.350061	0.134226	0.331355	-0.240943	0.999756	0.003695	0.000199	0.021749	
43063	    0	11.034978	40.469573	-15.282788	-1.161050	-0.282299	2.878687	0.104736	0.405334	-0.155029	0.999878	-0.005805	-0.001411	0.014393	
43064	    0	8.169689	43.207062	-2.821955	-3.175701	-0.418111	1.248421	0.079068	0.432051	-0.034913	0.999852	-0.015878	-0.002090	0.006242	
43065	    0	5.168040	37.665554	0.904614	-4.388596	-0.277733	-0.562332	0.052734	0.376587	0.000854	0.999754	-0.021941	-0.001389	-0.002811	
43066	    0	4.695890	28.104831	-1.916002	-4.503892	0.031474	-1.937870	0.049672	0.280049	-0.025482	0.999699	-0.022517	0.000157	-0.009688	
43067	    0	10.067766	22.290391	-2.767241	-3.741057	0.324472	-3.048240	0.104004	0.220764	-0.031982	0.999707	-0.018703	0.001622	-0.015240	
43068	    0	11.945345	21.690490	-2.214794	-2.938948	0.285750	-3.932586	0.123648	0.214143	-0.025483	0.999698	-0.014693	0.001429	-0.019661	
43069	    0	11.917530	17.289427	-0.990666	-2.623095	0.095378	-4.535431	0.123047	0.169983	-0.012207	0.999657	-0.013114	0.000477	-0.022675	
43070	    0	11.266898	10.965452	1.757265	-2.446289	-0.161763	-4.895440	0.115297	0.107059	0.016345	0.999625	-0.012230	-0.000809	-0.024474	
43071	    0	9.271410	9.499568	3.873908	-2.452220	-0.275457	-5.057430	0.095032	0.093079	0.037720	0.999603	-0.012259	-0.001377	-0.025284	
43072	    0	5.591814	9.541886	3.912809	-2.616845	-0.438557	-4.950411	0.058181	0.094500	0.038013	0.999605	-0.013083	-0.002192	-0.024749	
43073	    0	12.798580	4.930948	-3.570319	-3.087784	-1.032377	-4.156214	0.129150	0.046082	-0.035767	0.999651	-0.015437	-0.005161	-0.020779	
43074	    0	-3.979570	-7.333705	-44.877400	-1.555382	-3.053539	-2.881100	-0.034029	-0.076309	-0.448737	0.999749	-0.007776	-0.015266	-0.014404	
43075	    0	22.972412	47.331047	-80.189653	0.275638	-0.238823	-4.763484	0.241882	0.468750	-0.800964	0.999714	0.001378	-0.001194	-0.023815	
43076	    0	104.663749	41.559389	66.383992	-2.104813	2.825116	-8.983664	1.073282	0.374624	0.644713	0.998836	-0.010520	0.014120	-0.044901	
43077	    0	50.306455	-23.972186	10.120450	0.264207	-2.286865	-5.471842	0.495056	-0.253479	0.106567	0.999559	0.001321	-0.011433	-0.027355	
43078	    0	8.250514	12.878532	23.158340	2.996000	-2.393519	-6.431938	0.083720	0.122607	0.234448	0.999299	0.014977	-0.011965	-0.032152	
43079	    0	-16.845915	-7.737748	-7.898895	0.758473	-0.953624	-5.813690	-0.170227	-0.072144	-0.080078	0.999558	0.003792	-0.004767	-0.029064	
43080	    0	9.196582	17.262163	3.369304	0.665370	-0.008966	-5.565227	0.096717	0.169861	0.034266	0.999607	0.003326	-0.000045	-0.027822	
43081	    0	11.087754	9.181828	-4.554932	0.061230	-0.090033	-4.198764	0.112793	0.089478	-0.045471	0.999779	0.000306	-0.000450	-0.020992	
43082	    0	11.466531	7.504492	-12.775177	-1.344568	0.137146	-3.483975	0.115851	0.072172	-0.128323	0.999825	-0.006722	0.000686	-0.017419	
43083	    0	11.990915	6.756299	-4.820675	-1.357324	0.184067	-2.790945	0.120789	0.065552	-0.048767	0.999879	-0.006786	0.000920	-0.013954	
43084	    0	20.836502	7.201912	-3.295375	-1.625128	0.395410	-2.657427	0.209229	0.068970	-0.033936	0.999876	-0.008125	0.001977	-0.013287	
43085	    0	21.081413	8.288214	1.793225	-1.416826	0.483910	-2.395328	0.211829	0.080471	0.016845	0.999898	-0.007084	0.002419	-0.011976	
43086	    0	23.711219	5.282166	2.464129	-1.117735	0.470746	-2.162226	0.237722	0.050388	0.023796	0.999923	-0.005589	0.002354	-0.010811	
43087	    0	27.721140	2.740466	2.647348	-0.988600	0.469218	-1.984448	0.277527	0.024780	0.025696	0.999935	-0.004943	0.002346	-0.009922	
43088	    0	25.112365	-5.487259	2.042513	-1.436452	0.271993	-1.572448	0.250710	-0.056698	0.020487	0.999942	-0.007182	0.001360	-0.007862	
43089	    0	22.886675	-6.834774	3.594992	-1.695284	0.192455	-1.293207	0.228455	-0.069519	0.036316	0.999942	-0.008476	0.000962	-0.006466	
43090	    0	22.389660	-5.832965	2.781732	-2.178438	0.058176	-1.148634	0.223566	-0.059307	0.028395	0.999924	-0.010892	0.000291	-0.005743	
43091	    0	22.746122	-6.154919	1.872837	-2.218681	-0.208097	-0.864431	0.227173	-0.062317	0.019653	0.999928	-0.011093	-0.001040	-0.004322	
43092	    0	19.826350	-9.455493	-3.710752	-2.623255	-0.473037	-0.288018	0.198212	-0.095312	-0.035392	0.999909	-0.013116	-0.002365	-0.001440	
43093	    0	18.542322	-12.849988	-0.930709	-2.287343	-0.157741	-0.007630	0.185425	-0.128601	-0.007690	0.999934	-0.011436	-0.000789	-0.000038	
43094	    0	14.504688	-4.607499	0.576796	-1.758409	0.272564	-0.359540	0.144972	-0.046284	0.005977	0.999958	-0.008792	0.001363	-0.001798	
43095	    0	20.029010	2.856525	1.360217	-1.262679	0.667007	-0.753029	0.200439	0.027893	0.012756	0.999967	-0.006313	0.003335	-0.003765	
43096	    0	18.549754	7.506411	-2.535625	-1.747368	0.831244	-1.600689	0.185980	0.073347	-0.026774	0.999921	-0.008737	0.004156	-0.008003	
43097	    0	7.523594	9.865805	-5.963022	-2.114204	0.983666	-2.402609	0.076111	0.097107	-0.061035	0.999860	-0.010571	0.004918	-0.012012	
43098	    0	12.226225	22.892356	-9.073490	-2.165772	0.805345	-3.645798	0.126022	0.225645	-0.093693	0.999766	-0.010828	0.004026	-0.018228	
43099	    0	13.472225	12.407418	-7.092067	-1.909053	0.806693	-4.260652	0.137024	0.120483	-0.072632	0.999719	-0.009544	0.004033	-0.021301	
43100	    0	14.533498	5.058513	-6.400637	-1.378544	0.490225	-3.971396	0.146137	0.047244	-0.064697	0.999776	-0.006892	0.002451	-0.019855	
43101	    0	17.858206	-1.756416	-3.018279	-0.642244	0.721023	-3.740162	0.178101	-0.020996	-0.030762	0.999813	-0.003211	0.003605	-0.018700	
43102	    0	19.097685	-6.107028	-0.688001	0.251407	0.766429	-4.129905	0.189633	-0.064986	-0.007689	0.999778	0.001257	0.003832	-0.020648	
43103	    0	18.465660	-7.322950	0.756255	0.692245	0.704263	-4.778001	0.182861	-0.077637	0.006653	0.999702	0.003461	0.003521	-0.023888	
43104	    0	17.897700	-8.069688	1.455450	0.402115	0.576657	-5.162632	0.176855	-0.085309	0.013874	0.999660	0.002010	0.002883	-0.025810	
43105	    0	18.393849	-6.644766	3.018478	-0.041967	0.586964	-5.438911	0.182129	-0.071411	0.029663	0.999625	-0.000210	0.002934	-0.027191	
43106	    0	19.917510	-3.876113	3.229879	-0.891809	0.596892	-5.663511	0.198070	-0.044238	0.031896	0.999584	-0.004458	0.002984	-0.028314	
43107	    0	20.903813	-3.876720	1.831694	-1.794706	0.725093	-5.713757	0.207886	-0.044556	0.017944	0.999545	-0.008972	0.003625	-0.028564	
43108	    0	20.152658	-7.066537	1.051303	-1.824841	0.852902	-5.621028	0.199481	-0.076197	0.010338	0.999554	-0.009123	0.004264	-0.028101	
43109	    0	19.960496	-7.264618	0.292539	-1.656587	0.818946	-5.675586	0.197449	-0.078247	0.002747	0.999555	-0.008282	0.004094	-0.028374	
43110	    0	20.265097	-5.561036	-1.071884	-1.646475	0.844126	-5.649254	0.200925	-0.061393	-0.011080	0.999557	-0.008231	0.004220	-0.028242	
43111	    0	20.220755	-3.757112	-1.526189	-1.630634	0.937977	-5.535914	0.200989	-0.043274	-0.015869	0.999572	-0.008152	0.004689	-0.027676	
43112	    0	20.000869	-2.280771	-2.285644	-1.388350	0.928428	-5.350050	0.199192	-0.028306	-0.023599	0.999607	-0.006941	0.004642	-0.026747	
43113	    0	19.840343	-1.609843	-3.218306	-1.117076	0.894462	-5.132901	0.197754	-0.021362	-0.032959	0.999644	-0.005585	0.004472	-0.025661	
43114	    0	19.003317	-1.886484	-3.345896	-1.075288	0.862405	-4.895929	0.189346	-0.023688	-0.034158	0.999676	-0.005376	0.004312	-0.024477	
43115	    0	17.302078	-2.326420	-3.246350	-1.036745	0.806124	-4.666404	0.172280	-0.027460	-0.033024	0.999706	-0.005183	0.004030	-0.023330	
43116	    0	15.560258	-3.039350	-3.062062	-0.992290	0.755949	-4.425248	0.154760	-0.033978	-0.031044	0.999735	-0.004961	0.003779	-0.022124	
43117	    0	13.653709	-3.197723	-2.232772	-0.740109	0.739537	-4.192678	0.135742	-0.034912	-0.022705	0.999766	-0.003700	0.003697	-0.020962	
43118	    0	11.271994	-4.054158	-2.841502	-0.256745	0.587117	-3.759803	0.111847	-0.042686	-0.028690	0.999818	-0.001284	0.002935	-0.018798	
43119	    0	9.188677	-5.096794	-3.600671	0.398271	0.451107	-3.091558	0.091003	-0.052307	-0.036316	0.999875	0.001991	0.002255	-0.015457	
43120	    0	7.941103	-4.723683	-3.738739	0.988606	0.405895	-2.339237	0.078776	-0.047975	-0.037784	0.999917	0.004943	0.002029	-0.011696	
43121	    0	6.916966	-2.626175	-2.894139	1.394106	0.495919	-1.425959	0.068909	-0.026550	-0.029297	0.999947	0.006970	0.002480	-0.007130	
43122	    0	4.171033	1.070962	-2.678448	1.523988	0.465398	-0.352100	0.041667	0.010840	-0.026799	0.999967	0.007620	0.002327	-0.001760	
43123	    0	-0.027979	4.393491	-2.598597	1.036842	0.433543	0.692754	-0.000488	0.044067	-0.025757	0.999978	0.005184	0.002168	0.003464	
43124	    0	-4.602054	5.348382	-2.376546	0.428015	0.306134	1.776911	-0.046530	0.053123	-0.023581	0.999956	0.002140	0.001531	0.008884	
43125	    0	-6.900670	3.758362	-3.424243	0.160986	0.271044	2.853492	-0.069580	0.036621	-0.034119	0.999896	0.000805	0.001355	0.014267	
43126	    0	-6.119456	1.264449	-3.606795	0.090605	0.361466	3.885897	-0.061490	0.011468	-0.035952	0.999809	0.000453	0.001807	0.019428	
43127	    0	-3.886735	0.081913	-3.462225	0.281742	0.390662	4.773407	-0.038940	-0.000061	-0.034546	0.999712	0.001409	0.001953	0.023865	
43128	    0	-1.891170	-0.884979	-3.123860	0.623212	0.344131	5.549201	-0.018712	-0.009274	-0.031235	0.999608	0.003116	0.001720	0.027742	
43129	    0	-0.473035	-2.010729	-2.870238	1.127241	0.323541	6.236551	-0.004150	-0.020081	-0.028809	0.999496	0.005635	0.001617	0.031178	
43130	    0	1.202863	-1.758797	-2.805443	1.592583	0.408638	6.840972	0.012558	-0.016940	-0.028216	0.999381	0.007961	0.002043	0.034198	
43131	    0	3.127248	-0.378547	-2.711883	1.859732	0.487827	7.361853	0.031311	-0.002380	-0.027222	0.999276	0.009296	0.002439	0.036800	
43132	    0	4.764852	0.690073	-2.637118	1.901567	0.473150	7.802015	0.047262	0.009001	-0.026404	0.999190	0.009505	0.002365	0.039000	
43133	    0	5.833343	0.991725	-2.856910	2.041465	0.395510	8.154414	0.057800	0.012573	-0.028564	0.999114	0.010204	0.001977	0.040760	
43134	    0	6.805614	1.499839	-3.034189	2.204267	0.322636	8.490045	0.067280	0.018200	-0.030262	0.999037	0.011018	0.001613	0.042437	
43135	    0	7.928342	2.417486	-2.497845	2.065221	0.352026	8.819548	0.078064	0.027893	-0.024841	0.998973	0.010323	0.001760	0.044083	
43136	    0	8.868555	3.086238	-1.754475	1.854612	0.409274	9.111641	0.087117	0.035018	-0.017412	0.998917	0.009270	0.002046	0.045542	
43137	    0	10.490171	2.913666	-2.030922	1.614992	0.417677	9.393821	0.103333	0.034180	-0.020264	0.998862	0.008072	0.002088	0.046951	
43138	    0	12.836600	1.946699	-1.611390	1.475151	0.445541	9.586285	0.127197	0.025703	-0.016224	0.998821	0.007373	0.002227	0.047913	
43139	    0	15.260521	2.115442	-1.806879	1.638696	0.279540	9.729902	0.151306	0.028687	-0.018066	0.998782	0.008190	0.001397	0.048630	
43140	    0	17.198124	2.655497	-1.219510	1.756061	0.127464	9.819478	0.170391	0.035055	-0.012021	0.998755	0.008777	0.000637	0.049077	
43141	    0	19.327303	4.130639	-0.586451	1.908346	-0.103804	9.891114	0.190918	0.050842	-0.005310	0.998732	0.009538	-0.000519	0.049435	
43142	    0	22.221844	6.108166	0.153116	2.035826	-0.221538	9.952630	0.218813	0.072008	0.002471	0.998709	0.010175	-0.001107	0.049742	
43143	    0	25.220061	8.230140	0.165535	2.441119	-0.283172	9.846907	0.247742	0.094543	0.003113	0.998713	0.012200	-0.001415	0.049213	
43144	    0	27.589462	9.885677	-1.179791	3.291589	-0.305879	9.595411	0.270742	0.112103	-0.009608	0.998713	0.016451	-0.001529	0.047956	
43145	    0	29.988917	12.458024	-3.241251	4.125648	-0.193870	9.267586	0.293701	0.138916	-0.029358	0.998713	0.020619	-0.000969	0.046318	
43146	    0	31.266659	16.432380	-3.832361	4.605105	0.032057	8.849380	0.304962	0.178757	-0.034367	0.998755	0.023016	0.000160	0.044229	
43147	    0	31.628858	20.671648	-3.735234	4.647496	0.166384	8.344389	0.307251	0.220459	-0.032593	0.998859	0.023229	0.000832	0.041706	
43148	    0	31.949870	23.864105	-2.638063	4.145605	0.299740	7.682381	0.309975	0.251155	-0.021729	0.999046	0.020721	0.001498	0.038400	
43149	    0	30.749042	27.035391	-4.185898	3.369371	0.397586	6.755912	0.298035	0.281189	-0.037781	0.999285	0.016843	0.001987	0.033772	
43150	    0	25.364683	29.728383	-10.097349	2.289754	0.353106	5.725054	0.244804	0.305510	-0.097944	0.999523	0.011447	0.001765	0.028621	
43151	    0	16.928390	29.982138	-18.951149	1.128504	0.005532	4.849744	0.161926	0.304871	-0.187805	0.999690	0.005642	0.000028	0.024246	
43152	    0	12.650652	33.604147	-17.100408	-0.609816	-0.250640	3.716689	0.120455	0.337794	-0.171879	0.999822	-0.003049	-0.001253	0.018582	
43153	    0	9.520872	39.116901	-6.885732	-2.635331	-0.347728	2.338532	0.090759	0.391296	-0.073853	0.999843	-0.013176	-0.001739	0.011692	
43154	    0	5.580341	37.376086	-2.417897	-4.010480	-0.282880	0.749259	0.054445	0.373383	-0.031591	0.999790	-0.020051	-0.001414	0.003746	
43155	    0	2.011012	30.304369	-3.594335	-4.445072	-0.008393	-0.786657	0.021301	0.302063	-0.042664	0.999744	-0.022223	-0.000042	-0.003933	
43156	    0	7.048911	22.018164	-4.594869	-4.107636	0.258849	-1.900073	0.072507	0.218493	-0.050541	0.999743	-0.020536	0.001294	-0.009500	
43157	    0	11.214309	19.679174	-3.191931	-3.390783	0.404582	-2.861260	0.114868	0.194580	-0.035461	0.999751	-0.016953	0.002023	-0.014305	
43158	    0	11.014451	19.098160	-2.258585	-2.941974	0.330574	-3.645469	0.113556	0.188571	-0.025558	0.999723	-0.014709	0.001653	-0.018226	
43159	    0	9.057120	18.560638	-2.375416	-3.067941	0.073251	-4.260743	0.094482	0.183228	-0.026611	0.999655	-0.015338	0.000366	-0.021301	
43160	    0	8.803315	16.358655	-2.194546	-3.619900	-0.197439	-4.585347	0.091769	0.161079	-0.024787	0.999573	-0.018097	-0.000987	-0.022923	
43161	    0	9.044810	10.808610	-0.584787	-4.120334	-0.370084	-4.566915	0.092896	0.105835	-0.007874	0.999525	-0.020598	-0.001850	-0.022831	
43162	    0	6.804749	5.802053	0.822398	-4.408977	-0.510108	-4.373686	0.069278	0.056680	0.007140	0.999515	-0.022041	-0.002550	-0.021865	
43163	    0	11.991052	1.455477	-2.938256	-4.937028	-1.065811	-3.724519	0.120300	0.011597	-0.029053	0.999507	-0.024681	-0.005328	-0.018620	
43164	    0	-0.510348	-7.481198	-30.644368	-4.082787	-2.034622	-2.816347	-0.003108	-0.080994	-0.304871	0.999640	-0.020411	-0.010172	-0.014080	
43165	    0	9.595578	25.891892	-74.838388	0.313012	-1.993663	-2.868036	0.107117	0.258606	-0.746948	0.999846	0.001565	-0.009968	-0.014339	
43166	    0	105.037171	93.250187	58.916623	-2.984903	5.606380	-11.656544	1.118287	0.876971	0.545067	0.997798	-0.014914	0.028011	-0.058240	
43167	    0	49.407588	-41.447887	13.794451	-1.684654	-2.732531	-5.362048	0.480774	-0.426270	0.148132	0.999512	-0.008422	-0.013660	-0.026806	
43168	    0	16.512869	6.176799	33.224675	3.255964	-2.000853	-6.035181	0.163443	0.051381	0.334781	0.999362	0.016276	-0.010002	-0.030169	
43169	    0	-17.536883	6.622459	-10.613058	1.680292	-1.467203	-6.145046	-0.172424	0.072449	-0.106812	0.999465	0.008400	-0.007335	-0.030720	
43170	    0	0.739054	14.542106	-4.360010	0.059135	0.192283	-5.324803	0.011216	0.145169	-0.043567	0.999644	0.000296	0.000961	-0.026621	
43171	    0	15.296337	8.802273	-4.472511	0.029757	0.351168	-4.140770	0.154663	0.084839	-0.044983	0.999784	0.000149	0.001756	-0.020702	
43172	    0	6.830300	3.660937	-8.693639	-0.528741	0.226794	-3.277739	0.068789	0.035254	-0.087109	0.999861	-0.002644	0.001134	-0.016388	
43173	    0	9.415346	15.108111	-11.309797	-1.448117	0.672367	-2.664292	0.095764	0.148987	-0.114502	0.999879	-0.007240	0.003362	-0.013321	
43174	    0	15.137488	6.696746	-1.906805	-1.464702	0.880652	-2.259139	0.152030	0.065107	-0.020218	0.999899	-0.007323	0.004403	-0.011295	
43175	    0	20.903215	7.117638	-3.400803	-1.305424	1.128608	-1.831103	0.209473	0.069031	-0.035645	0.999921	-0.006527	0.005643	-0.009155	
43176	    0	23.695944	8.832558	-1.348010	-1.287490	1.231604	-1.562155	0.237548	0.086376	-0.015502	0.999929	-0.006437	0.006158	-0.007811	
43177	    0	28.858956	3.385875	0.917360	-1.027508	0.996417	-1.539640	0.288879	0.031677	0.007568	0.999945	-0.005137	0.004982	-0.007698	
43178	    0	29.981724	-0.777744	2.377134	-1.172846	0.667010	-1.334020	0.299834	-0.009642	0.022824	0.999954	-0.005864	0.003335	-0.006670	
43179	    0	27.272192	-4.161388	4.871856	-1.773867	0.374038	-1.086446	0.272583	-0.042664	0.048584	0.999944	-0.008869	0.001870	-0.005432	
43180	    0	26.051131	-6.304672	6.799830	-1.995509	0.200085	-0.975629	0.260270	-0.063636	0.068371	0.999937	-0.009977	0.001000	-0.004878	
43181	    0	26.372383	-7.738191	5.761349	-2.302608	-0.019646	-0.748462	0.263428	-0.077698	0.058533	0.999927	-0.011513	-0.000098	-0.003742	
43182	    0	23.021549	-12.435330	2.819543	-2.670942	-0.375950	-0.153737	0.230064	-0.124135	0.030287	0.999908	-0.013354	-0.001880	-0.000769	
43183	    0	17.922203	-12.609448	-0.075509	-2.957263	-0.330937	0.256357	0.179382	-0.125854	0.001404	0.999888	-0.014786	-0.001655	0.001282	
43184	    0	17.713362	-8.825659	0.698445	-2.600362	0.091937	0.084879	0.177175	-0.088081	0.008049	0.999915	-0.013001	0.000460	0.000424	
43185	    0	18.396373	-2.174375	-0.858783	-1.518076	0.533301	-0.375370	0.183899	-0.022156	-0.008911	0.999966	-0.007590	0.002666	-0.001877	
43186	    0	20.612357	7.894415	-2.968056	-0.722513	0.943005	-1.297967	0.206486	0.077495	-0.030935	0.999961	-0.003613	0.004715	-0.006490	
43187	    0	5.880800	11.162916	-8.872746	-1.645732	1.310977	-2.439223	0.059570	0.110168	-0.090027	0.999869	-0.008228	0.006555	-0.012196	
43188	    0	8.596993	17.838237	-11.089192	-1.509964	1.266759	-3.608004	0.088449	0.175955	-0.112782	0.999788	-0.007549	0.006333	-0.018039	
43189	    0	12.060910	20.402017	-7.471497	-1.555619	1.500109	-4.740679	0.124817	0.200500	-0.077209	0.999660	-0.007777	0.007500	-0.023701	
43190	    0	14.067990	6.623941	-6.744502	-1.190877	1.274045	-4.571799	0.141704	0.062601	-0.068726	0.999701	-0.005954	0.006370	-0.022857	
43191	    0	19.080195	-0.195472	-4.537094	-0.533344	1.400315	-4.481923	0.190369	-0.006348	-0.046692	0.999721	-0.002666	0.007001	-0.022408	
43192	    0	20.135301	-4.017837	-2.453260	0.372164	1.427614	-4.876092	0.200112	-0.045020	-0.026045	0.999675	0.001861	0.007137	-0.024378	
43193	    0	19.700598	-4.535993	-1.205474	0.687687	1.353628	-5.325998	0.195618	-0.050537	-0.013550	0.999617	0.003438	0.006767	-0.026627	
43194	    0	19.939825	-4.385740	0.535750	0.180842	1.247582	-5.685465	0.198072	-0.049505	0.004076	0.999576	0.000904	0.006237	-0.028423	
43195	    0	19.901353	-4.170727	1.862418	-0.301979	1.001890	-5.919776	0.197754	-0.047546	0.017700	0.999548	-0.001510	0.005009	-0.029594	
43196	    0	19.471637	-2.673504	2.808162	-0.980346	0.803506	-6.121679	0.193891	-0.032543	0.027452	0.999511	-0.004901	0.004017	-0.030603	
43197	    0	19.557397	-2.406953	1.103493	-1.802179	0.746282	-6.084714	0.194763	-0.029907	0.010559	0.999489	-0.009009	0.003731	-0.030418	
43198	    0	19.132640	-3.564611	0.194349	-2.162535	0.873332	-5.920264	0.190167	-0.041269	0.001537	0.999494	-0.010811	0.004366	-0.029596	
43199	    0	18.425611	-4.642937	-0.146760	-2.173015	0.922544	-5.793944	0.182800	-0.051758	-0.001770	0.999510	-0.010863	0.004612	-0.028965	
43200	    0	18.219980	-3.942497	-0.979879	-1.829432	0.982628	-5.749262	0.180915	-0.044731	-0.010297	0.999533	-0.009146	0.004912	-0.028742	
43201	    0	18.533515	-2.547342	-1.097717	-1.567885	1.049199	-5.693145	0.184448	-0.030823	-0.011719	0.999550	-0.007838	0.005245	-0.028461	
43202	    0	18.861343	-1.783295	-1.280948	-1.298708	1.142283	-5.589138	0.187939	-0.023179	-0.013745	0.999572	-0.006493	0.005711	-0.027942	
43203	    0	18.824877	-1.686330	-2.239225	-0.995578	1.156007	-5.448878	0.187561	-0.022095	-0.023376	0.999599	-0.004977	0.005779	-0.027241	
43204	    0	18.676387	-2.262787	-3.172976	-0.593449	1.164388	-5.256151	0.185893	-0.027617	-0.032737	0.999633	-0.002967	0.005821	-0.026278	
43205	    0	18.551070	-3.016196	-3.701591	-0.253897	1.137672	-5.088621	0.184448	-0.034912	-0.038025	0.999659	-0.001269	0.005688	-0.025440	
43206	    0	17.998735	-4.016582	-2.885969	-0.123228	1.130797	-4.937128	0.178756	-0.044607	-0.029846	0.999679	-0.000616	0.005653	-0.024683	
43207	    0	16.579986	-4.823297	-1.864283	0.132765	1.110377	-4.733743	0.164490	-0.052124	-0.019592	0.999703	0.000664	0.005551	-0.023666	
43208	    0	14.950413	-5.165219	-1.599145	0.663625	0.994961	-4.450238	0.148224	-0.054905	-0.016910	0.999734	0.003318	0.004974	-0.022249	
43209	    0	13.579404	-4.734516	-1.611237	1.175784	0.838729	-4.148435	0.134705	-0.050049	-0.016968	0.999759	0.005878	0.004193	-0.020741	
43210	    0	12.194598	-3.706839	-1.783010	1.451405	0.679637	-3.804859	0.121151	-0.039246	-0.018522	0.999786	0.007257	0.003398	-0.019023	
43211	    0	10.641987	-2.707388	-2.069517	1.532070	0.506049	-3.344156	0.105896	-0.028687	-0.021179	0.999827	0.007660	0.002530	-0.016720	
43212	    0	9.506003	-1.699187	-2.366377	1.483023	0.442141	-2.693094	0.094769	-0.018092	-0.024005	0.999879	0.007415	0.002211	-0.013465	
43213	    0	8.356175	-0.496843	-2.853752	1.320103	0.565350	-1.711309	0.083435	-0.005493	-0.028809	0.999937	0.006600	0.002827	-0.008556	
43214	    0	5.688174	1.026678	-4.512600	1.135644	0.552372	-0.498775	0.056783	0.010382	-0.045224	0.999976	0.005678	0.002762	-0.002494	
43215	    0	2.298896	2.435010	-4.552044	0.495341	0.634005	0.641635	0.022766	0.024536	-0.045532	0.999987	0.002477	0.003170	0.003208	
43216	    0	-1.033610	3.460198	-3.565893	-0.082780	0.595672	1.626417	-0.010723	0.034501	-0.035642	0.999962	-0.000414	0.002978	0.008132	
43217	    0	-3.548380	2.709022	-3.534190	-0.440992	0.684568	2.581866	-0.035950	0.026550	-0.035278	0.999907	-0.002205	0.003423	0.012909	
43218	    0	-4.328644	1.370116	-3.110141	-0.752303	0.928171	3.580878	-0.043665	0.012805	-0.030949	0.999822	-0.003761	0.004641	0.017903	
43219	    0	-3.635697	0.247197	-3.173450	-0.710935	1.018619	4.568908	-0.036560	0.001526	-0.031555	0.999720	-0.003554	0.005093	0.022842	
43220	    0	-2.809138	-0.959849	-3.935166	-0.528786	1.006639	5.472132	-0.028010	-0.010469	-0.039184	0.999609	-0.002644	0.005033	0.027357	
43221	    0	-1.817355	-2.543873	-4.251199	-0.027470	1.001335	6.259440	-0.017578	-0.026001	-0.042419	0.999497	-0.000137	0.005006	0.031292	
43222	    0	-0.475886	-2.195724	-4.559147	0.620591	1.022363	7.002968	-0.004223	-0.021970	-0.045637	0.999369	0.003102	0.005111	0.035007	
43223	    0	1.255435	0.244853	-4.609590	1.088421	1.016496	7.695451	0.012207	0.003174	-0.046143	0.999231	0.005441	0.005081	0.038467	
43224	    0	3.106468	1.418181	-4.110298	1.332490	0.954150	8.298868	0.030237	0.015722	-0.041147	0.999105	0.006660	0.004769	0.041482	
43225	    0	4.637680	1.285361	-3.519017	1.517994	0.860311	8.788951	0.045593	0.015137	-0.035278	0.998996	0.007587	0.004300	0.043930	
43226	    0	6.090548	1.203114	-3.137597	1.709415	0.811109	9.148682	0.060135	0.015063	-0.031501	0.998909	0.008544	0.004054	0.045727	
43227	    0	7.735078	1.350914	-2.822206	1.788453	0.789950	9.461076	0.076477	0.017395	-0.028381	0.998833	0.008939	0.003948	0.047287	
43228	    0	9.677293	1.560786	-2.733975	1.751283	0.755429	9.740822	0.095749	0.020530	-0.027537	0.998768	0.008753	0.003776	0.048684	
43229	    0	12.232862	1.510330	-2.250703	1.587023	0.777769	9.992690	0.121277	0.021362	-0.022827	0.998713	0.007932	0.003887	0.049942	
43230	    0	14.567464	1.599781	-1.930745	1.642767	0.699736	10.178708	0.144536	0.023536	-0.019642	0.998665	0.008210	0.003497	0.050871	
43231	    0	16.486976	2.501839	-2.196957	1.945642	0.519232	10.401440	0.163208	0.033752	-0.022095	0.998597	0.009724	0.002595	0.051983	
43232	    0	18.255871	4.315087	-1.850527	1.981348	0.384324	10.524062	0.179912	0.052850	-0.018361	0.998565	0.009902	0.001921	0.052595	
43233	    0	19.589226	5.230048	-0.643683	1.904644	0.300743	10.587078	0.192749	0.062622	-0.006165	0.998552	0.009519	0.001503	0.052910	
43234	    0	21.212976	5.061540	0.301617	2.065312	0.217351	10.516815	0.209085	0.061633	0.003386	0.998564	0.010322	0.001086	0.052559	
43235	    0	24.241185	5.843183	-0.431167	2.841217	0.045798	10.357303	0.238953	0.070923	-0.003418	0.998558	0.014199	0.000229	0.051762	
43236	    0	28.445162	8.399994	-2.459462	3.715028	0.099039	10.129883	0.279688	0.098688	-0.022991	0.998545	0.018566	0.000495	0.050625	
43237	    0	31.755737	12.123191	-3.463412	4.557158	0.344253	9.795570	0.311035	0.137329	-0.032166	0.998539	0.022775	0.001720	0.048954	
43238	    0	32.609268	16.978361	-5.060390	5.295257	0.569618	9.351474	0.317508	0.186040	-0.046733	0.998552	0.026464	0.002847	0.046735	
43239	    0	32.309571	22.278682	-7.547875	5.758282	0.714633	8.803058	0.312561	0.238770	-0.069885	0.998610	0.028778	0.003572	0.043995	
43240	    0	31.817122	26.351624	-9.105310	5.676161	0.770891	8.213232	0.306596	0.278729	-0.084481	0.998746	0.028369	0.003853	0.041049	
43241	    0	30.021763	30.119158	-11.232678	5.103464	0.680958	7.270929	0.288574	0.314575	-0.105408	0.999007	0.025509	0.003404	0.036343	
43242	    0	25.979703	35.200185	-16.109856	3.674510	0.485903	6.024472	0.248600	0.362491	-0.155115	0.999374	0.018369	0.002429	0.030116	
43243	    0	18.955936	37.075636	-21.779853	1.555997	0.025180	4.926085	0.180298	0.376953	-0.214905	0.999666	0.007779	0.000126	0.024628	
43244	    0	12.513095	38.093538	-22.391307	-0.758027	-0.418308	3.762860	0.118416	0.382354	-0.225108	0.999813	-0.003790	-0.002091	0.018813	
43245	    0	8.459315	40.458043	-14.351867	-3.130542	-0.735330	2.263787	0.080566	0.403198	-0.149536	0.999806	-0.015652	-0.003676	0.011318	
43246	    0	7.342299	39.106139	-5.293662	-5.029277	-0.788012	0.673750	0.072342	0.389815	-0.062464	0.999670	-0.025144	-0.003940	0.003368	
43247	    0	6.574773	33.042678	-1.809884	-5.854699	-0.498272	-0.732529	0.067017	0.329468	-0.027588	0.999561	-0.029269	-0.002491	-0.003662	
43248	    0	5.802869	26.244750	-4.795964	-5.436885	-0.201825	-1.882050	0.060539	0.260454	-0.054998	0.999585	-0.027181	-0.001009	-0.009409	
43249	    0	10.157982	21.677696	-6.363793	-4.728340	-0.098432	-2.794999	0.104614	0.213745	-0.068665	0.999622	-0.023639	-0.000492	-0.013973	
43250	    0	12.011290	20.433020	-5.316859	-4.298391	-0.240167	-3.588574	0.123806	0.200928	-0.057364	0.999607	-0.021489	-0.001201	-0.017941	
43251	    0	11.150959	17.583888	-3.947323	-4.538486	-0.460125	-4.108311	0.115173	0.172546	-0.043152	0.999529	-0.022689	-0.002300	-0.020538	
43252	    0	9.947723	11.498162	-2.023233	-4.995887	-0.650717	-4.353374	0.102012	0.112232	-0.022730	0.999445	-0.024975	-0.003253	-0.021763	
43253	    0	6.695643	7.071671	0.295830	-5.566060	-0.779699	-4.392411	0.068481	0.069275	0.001282	0.999364	-0.027824	-0.003898	-0.021957	
43254	    0	4.968348	3.701734	3.609606	-6.293861	-0.694442	-4.215494	0.050342	0.037076	0.035104	0.999276	-0.031462	-0.003471	-0.021072	
43255	    0	7.440418	-2.825304	-7.854184	-6.135117	-1.546800	-3.134806	0.074524	-0.031799	-0.077026	0.999376	-0.030669	-0.007732	-0.015671	
43256	    0	-9.856905	5.687411	-55.437924	-1.678468	-4.411058	-2.285838	-0.085683	0.053236	-0.556821	0.999656	-0.008391	-0.022053	-0.011428	
43257	    0	48.357908	83.929298	-54.720892	-1.810055	3.191588	-7.737807	0.506531	0.814941	-0.562622	0.999083	-0.009048	0.015953	-0.038677	
43258	    0	86.949853	-15.346024	70.651331	-1.678842	0.679549	-7.095778	0.865863	-0.178305	0.704994	0.999330	-0.008392	0.003397	-0.035471	
43259	    0	45.467920	2.856103	29.768523	2.298535	-1.409377	-5.609273	0.453064	0.012390	0.301086	0.999516	0.011491	-0.007046	-0.028042	
43260	    0	5.655319	19.964910	16.937643	2.625475	-2.560420	-6.303849	0.060563	0.195529	0.172720	0.999334	0.013124	-0.012799	-0.031512	
43261	    0	-16.529636	-1.370151	-11.258557	0.265720	-0.602783	-4.877201	-0.165222	-0.009521	-0.113098	0.999697	0.001328	-0.003014	-0.024384	
43262	    0	12.598721	11.514368	-2.095359	-0.109492	0.420420	-4.798781	0.128656	0.112066	-0.021284	0.999709	-0.000547	0.002102	-0.023992	
43263	    0	8.624204	5.598074	-7.907851	-0.237859	0.183878	-3.604322	0.087158	0.054321	-0.079224	0.999836	-0.001189	0.000919	-0.018021	
43264	    0	10.393037	10.623926	-12.431815	-1.259288	0.370996	-2.990283	0.105264	0.103886	-0.125172	0.999866	-0.006296	0.001855	-0.014951	
43265	    0	13.432847	8.946959	-0.856290	-1.301427	0.568409	-2.430805	0.135376	0.087769	-0.009521	0.999901	-0.006507	0.002842	-0.012154	
43266	    0	20.266174	6.568532	-2.797542	-1.395076	0.805688	-2.119508	0.203225	0.063333	-0.029241	0.999911	-0.006975	0.004028	-0.010597	
43267	    0	21.377903	8.285267	0.804773	-1.071954	1.064515	-1.770059	0.214539	0.080994	0.006470	0.999932	-0.005360	0.005322	-0.008850	
43268	    0	24.829650	6.328640	0.305659	-0.831047	0.934618	-1.704248	0.248834	0.061176	0.001637	0.999944	-0.004155	0.004673	-0.008521	
43269	    0	29.580601	0.330820	0.544542	-0.866712	0.746357	-1.507591	0.295837	0.001099	0.004333	0.999955	-0.004333	0.003732	-0.007538	
43270	    0	27.783943	-2.580698	2.586951	-1.056874	0.414090	-1.244369	0.277725	-0.027400	0.025436	0.999964	-0.005284	0.002070	-0.006222	
43271	    0	26.283231	-6.047987	4.482170	-1.873814	0.173381	-0.976581	0.262573	-0.061340	0.045166	0.999944	-0.009369	0.000867	-0.004883	
43272	    0	24.390795	-7.145512	6.216155	-2.164127	-0.023461	-0.899526	0.243578	-0.071873	0.062966	0.999931	-0.010820	-0.000117	-0.004498	
43273	    0	23.656896	-9.396367	4.003657	-2.409425	-0.334748	-0.495923	0.236267	-0.094055	0.041565	0.999923	-0.012047	-0.001674	-0.002480	
43274	    0	19.342520	-12.733177	-1.292761	-2.811910	-0.589391	0.122647	0.193537	-0.127373	-0.010567	0.999896	-0.014059	-0.002947	0.000613	
43275	    0	18.058970	-11.185473	0.307524	-2.685438	-0.206000	0.250252	0.180725	-0.111572	0.004761	0.999908	-0.013427	-0.001030	0.001251	
43276	    0	16.320719	-4.643921	0.582833	-1.969370	0.289540	-0.210003	0.163167	-0.046552	0.006050	0.999949	-0.009847	0.001448	-0.001050	
43277	    0	22.588929	3.755079	-0.360936	-1.081858	0.679976	-0.748450	0.226013	0.036682	-0.004578	0.999972	-0.005409	0.003400	-0.003742	
43278	    0	12.653726	11.042827	-5.271810	-1.536223	1.072342	-1.833015	0.127252	0.108851	-0.054239	0.999913	-0.007681	0.005362	-0.009165	
43279	    0	4.221280	13.447962	-10.292674	-1.771642	1.212567	-2.900090	0.043518	0.132935	-0.104370	0.999837	-0.008858	0.006063	-0.014500	
43280	    0	11.640555	25.792058	-11.021201	-1.964964	1.069752	-4.460988	0.121502	0.254145	-0.113362	0.999688	-0.009824	0.005348	-0.022303	
43281	    0	13.778196	11.572005	-7.306969	-1.879894	0.999558	-4.603307	0.140015	0.111816	-0.074829	0.999678	-0.009398	0.004997	-0.023014	
43282	    0	18.071150	4.507848	-6.012105	-1.264301	0.925145	-4.302210	0.181338	0.040797	-0.061226	0.999738	-0.006321	0.004625	-0.021509	
43283	    0	20.336679	-1.885121	-3.717394	-0.463144	1.008882	-4.373540	0.202698	-0.023376	-0.038147	0.999745	-0.002316	0.005044	-0.021866	
43284	    0	20.470240	-4.202120	-2.468292	0.164240	0.986968	-4.966122	0.203450	-0.047063	-0.025726	0.999679	0.000821	0.004934	-0.024828	
43285	    0	19.811119	-3.809326	-0.321573	0.057991	0.934910	-5.436633	0.196960	-0.043457	-0.004150	0.999619	0.000290	0.004674	-0.027180	
43286	    0	20.406467	-4.058867	1.275331	-0.371984	0.778306	-5.689643	0.202848	-0.046349	0.012045	0.999585	-0.001860	0.003891	-0.028444	
43287	    0	20.871344	-4.303436	2.323009	-0.859962	0.641156	-5.904511	0.207397	-0.049072	0.022766	0.999549	-0.004299	0.003205	-0.029518	
43288	    0	21.026968	-3.270191	2.336248	-1.693056	0.719954	-6.075353	0.209234	-0.038874	0.022920	0.999496	-0.008464	0.003599	-0.030372	
43289	    0	21.680622	-3.840274	1.390376	-2.362487	0.963957	-6.071043	0.215576	-0.044800	0.013367	0.999457	-0.011810	0.004819	-0.030350	
43290	    0	21.845410	-6.256920	1.028201	-2.186011	1.166547	-5.966652	0.216518	-0.068940	0.009746	0.999477	-0.010928	0.005832	-0.029828	
43291	    0	21.997815	-6.533000	0.498424	-2.032065	1.187533	-6.052699	0.217896	-0.071899	0.004395	0.999473	-0.010159	0.005937	-0.030258	
43292	    0	21.568009	-4.633267	-0.637250	-1.823747	1.233700	-6.124624	0.214083	-0.052969	-0.007234	0.999470	-0.009117	0.006167	-0.030618	
43293	    0	20.767825	-2.354633	-1.663750	-1.645751	1.247619	-6.064880	0.206726	-0.029968	-0.017700	0.999487	-0.008227	0.006237	-0.030319	
43294	    0	20.510908	-1.277796	-3.144477	-1.329823	1.189038	-5.896165	0.204418	-0.019026	-0.032549	0.999525	-0.006648	0.005944	-0.029476	
43295	    0	20.365447	-1.609339	-3.620060	-1.138469	1.127214	-5.641220	0.202881	-0.022034	-0.037231	0.999570	-0.005692	0.005635	-0.028202	
43296	    0	19.399055	-1.989536	-4.030027	-0.888558	1.056617	-5.405936	0.193139	-0.025306	-0.041218	0.999611	-0.004442	0.005282	-0.027026	
43297	    0	17.795268	-2.842804	-3.590195	-0.815490	1.025514	-5.219136	0.176941	-0.033203	-0.036682	0.999638	-0.004077	0.005127	-0.026093	
43298	    0	16.603873	-3.508199	-2.317931	-0.737465	1.097613	-5.058102	0.164949	-0.039351	-0.023947	0.999658	-0.003687	0.005487	-0.025288	
43299	    0	15.428569	-4.036438	-1.862918	-0.459910	1.144528	-4.845933	0.153137	-0.044128	-0.019409	0.999687	-0.002299	0.005722	-0.024227	
43300	    0	13.995009	-4.771141	-1.607264	-0.104150	1.089382	-4.454431	0.138751	-0.050819	-0.016805	0.999737	-0.000521	0.005446	-0.022270	
43301	    0	12.122585	-5.217658	-1.989517	0.219170	0.919407	-4.003426	0.120056	-0.054565	-0.020508	0.999788	0.001096	0.004597	-0.020016	
43302	    0	10.525655	-5.197401	-2.734527	0.658070	0.771754	-3.434174	0.104238	-0.053679	-0.027924	0.999839	0.003290	0.003859	-0.017170	
43303	    0	9.555645	-4.249074	-3.289978	1.168868	0.748663	-2.698620	0.094849	-0.043579	-0.033508	0.999885	0.005844	0.003743	-0.013493	
43304	    0	7.978943	-2.771894	-3.431166	1.399834	0.830097	-1.644934	0.079415	-0.028131	-0.034838	0.999932	0.006999	0.004150	-0.008224	
43305	    0	4.148952	-0.473143	-4.327345	1.422898	0.729569	-0.453954	0.041321	-0.004517	-0.043457	0.999965	0.007114	0.003648	-0.002270	
43306	    0	-0.881764	1.856779	-4.061673	0.949104	0.656514	0.628094	-0.009009	0.018732	-0.040499	0.999978	0.004745	0.003283	0.003140	
43307	    0	-5.519172	3.403926	-4.249750	0.589952	0.582132	1.704432	-0.055603	0.033691	-0.042236	0.999954	0.002950	0.002911	0.008522	
43308	    0	-6.522012	2.397828	-4.431222	0.311671	0.728823	2.753352	-0.065703	0.023145	-0.044037	0.999897	0.001558	0.003644	0.013766	
43309	    0	-4.876953	0.169627	-3.695625	0.177013	0.867709	3.826387	-0.048950	0.000793	-0.036743	0.999806	0.000885	0.004338	0.019131	
43310	    0	-3.687836	-1.351026	-4.163384	0.207541	0.858775	4.848017	-0.036716	-0.014359	-0.041491	0.999696	0.001038	0.004293	0.024238	
43311	    0	-3.462732	-3.062659	-4.780146	0.464695	0.845647	5.727429	-0.033936	-0.031494	-0.047729	0.999578	0.002323	0.004228	0.028633	
43312	    0	-2.499558	-3.385845	-4.942247	0.939159	0.896999	6.481588	-0.024108	-0.034417	-0.049474	0.999454	0.004695	0.004484	0.032402	
43313	    0	-0.677559	-1.187125	-5.336263	1.234712	0.895319	7.159496	-0.006592	-0.011780	-0.053406	0.999330	0.006172	0.004476	0.035789	
43314	    0	1.183156	0.525296	-5.258442	1.188015	0.828577	7.772754	0.011390	0.006014	-0.052598	0.999218	0.005939	0.004142	0.038854	
43315	    0	2.769297	0.336743	-4.441359	1.131774	0.767172	8.313158	0.027344	0.004761	-0.044495	0.999112	0.005657	0.003835	0.041553	
43316	    0	4.282992	-0.455400	-3.680162	1.236367	0.646612	8.759318	0.042849	-0.002449	-0.036960	0.999016	0.006180	0.003232	0.043782	
43317	    0	5.770778	-0.735075	-3.440958	1.451822	0.546461	9.146346	0.057861	-0.004456	-0.034607	0.998924	0.007257	0.002731	0.045715	
43318	    0	7.612082	0.047580	-3.044367	1.448617	0.435425	9.491759	0.075911	0.004304	-0.030587	0.998845	0.007240	0.002176	0.047441	
43319	    0	9.689706	0.654649	-2.515776	1.261648	0.357390	9.749720	0.096375	0.011414	-0.025269	0.998790	0.006306	0.001786	0.048729	
43320	    0	11.656581	0.968517	-2.145629	1.154044	0.255882	9.912410	0.115864	0.015565	-0.021526	0.998755	0.005768	0.001279	0.049541	
43321	    0	13.474993	0.452785	-2.199991	1.194700	0.131282	10.045330	0.134277	0.011414	-0.022034	0.998720	0.005971	0.000656	0.050205	
43322	    0	15.324681	0.490990	-2.108083	1.556516	-0.103997	10.208660	0.152736	0.012880	-0.020922	0.998667	0.007779	-0.000520	0.051021	
43323	    0	17.387854	2.376633	-2.326751	1.788588	-0.341192	10.395296	0.172363	0.032959	-0.022705	0.998608	0.008939	-0.001705	0.051952	
43324	    0	18.958465	4.120496	-0.214303	1.588417	-0.312760	10.450273	0.187091	0.051041	-0.001470	0.998602	0.007938	-0.001563	0.052227	
43325	    0	20.551455	4.825548	-0.013187	1.921216	-0.506638	10.397615	0.202637	0.058838	0.000916	0.998599	0.009602	-0.002532	0.051964	
43326	    0	24.177417	6.830580	-1.190043	2.453055	-0.657392	10.339088	0.237846	0.080805	-0.010174	0.998583	0.012259	-0.003285	0.051671	
43327	    0	28.369840	9.797898	-2.282452	3.056261	-0.608924	10.213745	0.278259	0.112610	-0.020325	0.998574	0.015274	-0.003043	0.051044	
43328	    0	30.760738	11.664925	-2.973135	3.762672	-0.466947	9.901106	0.301382	0.132197	-0.026632	0.998594	0.018805	-0.002334	0.049482	
43329	    0	32.238714	15.418553	-4.961091	4.617185	-0.284519	9.546559	0.314575	0.170410	-0.045349	0.998593	0.023075	-0.001422	0.047710	
43330	    0	33.923745	22.095563	-7.121380	4.882306	0.013357	9.085104	0.328686	0.237698	-0.065568	0.998670	0.024401	0.000067	0.045405	
43331	    0	36.012588	29.091212	-6.943446	4.312407	0.208360	8.420653	0.347351	0.307129	-0.063293	0.998880	0.021554	0.001041	0.042088	
43332	    0	36.817720	36.314636	-4.941046	3.205787	0.205668	7.398131	0.354349	0.377159	-0.043808	0.999187	0.016025	0.001028	0.036981	
43333	    0	29.134915	41.282517	-8.261484	1.560677	0.131249	6.306804	0.278076	0.422363	-0.079529	0.999472	0.007802	0.000656	0.031528	
43334	    0	18.194938	35.431545	-17.285319	0.229862	0.121894	5.285880	0.172394	0.359155	-0.172549	0.999649	0.001149	0.000609	0.026426	
43335	    0	14.884355	32.603893	-21.464097	-0.411060	0.024416	3.920237	0.142395	0.328430	-0.215332	0.999805	-0.002055	0.000122	0.019600	
43336	    0	11.903764	40.739990	-14.752611	-1.536418	-0.353252	2.278782	0.114658	0.407575	-0.150452	0.999904	-0.007682	-0.001766	0.011394	
43337	    0	8.483844	41.872490	-4.862107	-3.240165	-0.531031	0.679811	0.083557	0.418152	-0.055176	0.999859	-0.016200	-0.002655	0.003399	
43338	    0	6.048024	34.376989	0.300060	-4.019262	-0.404578	-0.941344	0.062100	0.343450	-0.003779	0.999784	-0.020095	-0.002023	-0.004706	
43339	    0	7.243147	25.818956	-0.645127	-3.740995	-0.100525	-2.332495	0.075439	0.257141	-0.011230	0.999757	-0.018703	-0.000503	-0.011662	
43340	    0	11.524539	21.965086	-1.485904	-3.065374	0.064665	-3.365235	0.118911	0.217408	-0.018241	0.999741	-0.015326	0.000323	-0.016825	
43341	    0	11.365947	22.463295	-1.463275	-2.845862	-0.179309	-4.027966	0.118164	0.222046	-0.017700	0.999695	-0.014228	-0.000896	-0.020138	
43342	    0	8.984687	19.189556	0.636342	-3.340572	-0.487962	-4.357699	0.093989	0.189951	0.003406	0.999619	-0.016701	-0.002439	-0.021786	
43343	    0	7.728803	11.668094	3.405420	-3.790068	-0.626273	-4.463841	0.079773	0.115540	0.032104	0.999566	-0.018948	-0.003131	-0.022316	
43344	    0	5.800599	7.153246	6.308178	-4.330946	-0.612357	-4.388748	0.059386	0.071586	0.061712	0.999518	-0.021651	-0.003061	-0.021940	
43345	    0	8.762334	3.209775	-4.846008	-5.150735	-1.343579	-3.651299	0.088501	0.029236	-0.048645	0.999478	-0.025749	-0.006717	-0.018253	
43346	    0	-6.380683	-13.883278	-52.714023	-2.339053	-4.040598	-2.253213	-0.054769	-0.144343	-0.526641	0.999663	-0.011694	-0.020201	-0.011265	
43347	    0	29.954321	56.743528	-73.375249	-1.403252	1.717820	-5.512285	0.308594	0.553833	-0.740295	0.999558	-0.007015	0.008588	-0.027557	
43348	    0	106.658468	30.946899	83.703724	-2.665340	2.969694	-9.388798	1.092103	0.269567	0.817172	0.998699	-0.013321	0.014842	-0.046924	
43349	    0	47.893210	-16.344743	14.644868	0.938551	-2.181368	-5.388657	0.472656	-0.176941	0.150818	0.999566	0.004692	-0.010905	-0.026939	
43350	    0	7.036746	9.892679	23.433641	2.870826	-2.655247	-6.236340	0.070205	0.093349	0.236636	0.999322	0.014351	-0.013273	-0.031175	
43351	    0	-19.810844	-2.932239	-8.904420	0.772966	-0.768960	-5.706827	-0.198486	-0.023315	-0.089905	0.999578	0.003864	-0.003844	-0.028530	
43352	    0	12.059556	17.428485	0.829839	0.111021	0.207735	-5.303243	0.125168	0.171001	0.008265	0.999647	0.000555	0.001039	-0.026513	
43353	    0	12.300423	3.731170	-4.547988	0.096900	0.013925	-4.020962	0.123718	0.034851	-0.045471	0.999797	0.000484	0.000070	-0.020103	
43354	    0	8.992511	8.156286	-15.253611	-1.009803	0.169381	-3.368552	0.091144	0.079263	-0.153017	0.999845	-0.005049	0.000847	-0.016842	
43355	    0	10.883985	9.146874	-7.066711	-1.471582	0.482198	-2.788662	0.109924	0.089417	-0.071594	0.999872	-0.007358	0.002411	-0.013943	
43356	    0	19.437284	4.839054	-2.462853	-1.416064	0.644897	-2.399717	0.194852	0.045876	-0.025587	0.999897	-0.007080	0.003224	-0.011998	
43357	    0	23.232710	9.201841	0.144848	-1.145780	1.061282	-2.234719	0.233337	0.089417	-0.000305	0.999907	-0.005729	0.005306	-0.011173	
43358	    0	23.124463	5.739378	1.674144	-0.828954	0.959038	-2.047970	0.231893	0.055087	0.015399	0.999927	-0.004145	0.004795	-0.010240	
43359	    0	27.238305	0.732246	0.650740	-0.659956	0.865381	-1.894416	0.272461	0.004761	0.005310	0.999940	-0.003300	0.004327	-0.009472	
43360	    0	24.712224	-3.616752	2.424854	-0.837338	0.555618	-1.531813	0.246902	-0.037959	0.023719	0.999958	-0.004187	0.002778	-0.007659	
43361	    0	22.672399	-4.806749	4.435421	-1.285380	0.368505	-1.245897	0.226501	-0.049194	0.044250	0.999958	-0.006427	0.001842	-0.006229	
43362	    0	21.986717	-5.556369	5.073178	-1.581409	0.185588	-1.178379	0.219584	-0.056456	0.050972	0.999950	-0.007907	0.000928	-0.005892	
43363	    0	23.012473	-7.303686	3.726253	-1.619552	-0.145723	-0.816356	0.229797	-0.073669	0.038025	0.999958	-0.008098	-0.000729	-0.004082	
43364	    0	19.627631	-7.788921	-1.092268	-2.017821	-0.519571	-0.290495	0.196189	-0.078276	-0.009624	0.999944	-0.010089	-0.002598	-0.001452	
43365	    0	17.594338	-9.794481	-1.297441	-2.364405	-0.317963	0.003815	0.175964	-0.098083	-0.011536	0.999928	-0.011822	-0.001590	0.000019	
43366	    0	15.502146	-4.348709	-0.562340	-2.170034	0.054742	-0.311095	0.154952	-0.043786	-0.005192	0.999939	-0.010850	0.000274	-0.001555	
43367	    0	18.769575	1.949465	-1.071364	-1.730183	0.440986	-0.769055	0.187744	0.018677	-0.011292	0.999952	-0.008651	0.002205	-0.003845	
43368	    0	17.133205	8.557320	-3.775110	-1.791814	0.797104	-1.723148	0.171905	0.083747	-0.039191	0.999914	-0.008959	0.003985	-0.008615	
43369	    0	7.463483	10.327541	-8.581994	-2.317761	1.066654	-2.848227	0.075623	0.101196	-0.087402	0.999817	-0.011588	0.005333	-0.014240	
43370	    0	13.625708	19.748230	-10.855693	-2.260973	0.730767	-3.842299	0.139598	0.193574	-0.111266	0.999744	-0.011304	0.003654	-0.019210	
43371	    0	14.373193	15.026694	-6.300308	-2.319583	0.812808	-4.414837	0.146729	0.146301	-0.065308	0.999681	-0.011597	0.004064	-0.022072	
43372	    0	15.192567	5.471928	-5.080344	-1.806988	0.682890	-4.129767	0.152830	0.051105	-0.051797	0.999740	-0.009034	0.003414	-0.020647	
43373	    0	17.881968	0.013469	-3.050286	-0.963666	0.780737	-4.082036	0.178650	-0.003662	-0.031189	0.999772	-0.004818	0.003903	-0.020409	
43374	    0	18.936317	-3.619579	-1.710773	-0.145543	0.790283	-4.494485	0.188416	-0.040450	-0.017825	0.999739	-0.000728	0.003951	-0.022470	
43375	    0	18.737544	-4.832128	-0.310060	-0.140395	0.771602	-4.925285	0.186096	-0.052917	-0.003784	0.999688	-0.000702	0.003858	-0.024624	
43376	    0	18.820551	-5.075475	0.730118	-0.462777	0.693402	-5.229989	0.186817	-0.055636	0.006777	0.999649	-0.002314	0.003467	-0.026147	
43377	    0	18.854809	-5.360537	2.068045	-0.900383	0.652587	-5.416797	0.187073	-0.058594	0.020325	0.999618	-0.004501	0.003263	-0.027081	
43378	    0	18.975088	-4.142495	1.638972	-1.508162	0.560839	-5.586266	0.188543	-0.046580	0.016198	0.999578	-0.007540	0.002804	-0.027927	
43379	    0	19.230022	-3.807007	0.448406	-2.230218	0.705063	-5.547408	0.191162	-0.043335	0.004272	0.999546	-0.011149	0.003525	-0.027733	
43380	    0	18.690785	-5.740639	0.394231	-2.462182	0.872933	-5.381242	0.185291	-0.062359	0.003879	0.999553	-0.012309	0.004364	-0.026902	
43381	    0	18.335596	-6.511094	0.173358	-2.345624	0.974609	-5.397834	0.181519	-0.070007	0.001648	0.999555	-0.011726	0.004872	-0.026985	
43382	    0	18.042754	-5.363038	-0.269064	-2.069011	0.996162	-5.439213	0.178865	-0.058539	-0.002995	0.999564	-0.010344	0.004980	-0.027192	
43383	    0	17.791690	-3.661752	-0.327233	-1.807658	1.121870	-5.408476	0.176819	-0.041443	-0.003906	0.999578	-0.009037	0.005609	-0.027039	
43384	    0	17.623048	-1.714144	-0.869744	-1.504718	1.165356	-5.343772	0.175633	-0.021910	-0.009569	0.999598	-0.007523	0.005826	-0.026715	
43385	    0	17.660252	-1.027298	-1.836308	-1.150654	1.135584	-5.185574	0.176147	-0.014954	-0.019287	0.999631	-0.005753	0.005677	-0.025925	
43386	    0	17.480489	-0.956262	-2.741740	-0.859738	1.111918	-4.984650	0.174336	-0.014032	-0.028334	0.999664	-0.004298	0.005559	-0.024920	
43387	    0	17.114086	-1.838104	-2.855038	-0.778279	1.114197	-4.790229	0.170471	-0.022583	-0.029419	0.999690	-0.003891	0.005570	-0.023949	
43388	    0	16.514653	-2.507341	-2.149617	-0.681753	1.166076	-4.649807	0.164374	-0.028976	-0.022362	0.999706	-0.003408	0.005830	-0.023247	
43389	    0	15.885416	-3.291092	-1.735110	-0.475926	1.164351	-4.480385	0.157959	-0.036499	-0.018188	0.999729	-0.002379	0.005821	-0.022400	
43390	    0	14.923752	-4.307125	-1.370089	-0.112352	1.131338	-4.195925	0.148210	-0.046196	-0.014516	0.999763	-0.000562	0.005656	-0.020978	
43391	    0	13.505739	-4.424901	-1.435835	0.394657	1.023170	-3.859970	0.134094	-0.046814	-0.015137	0.999798	0.001973	0.005116	-0.019299	
43392	    0	11.993158	-2.836348	-1.854114	0.877432	0.827266	-3.567906	0.119323	-0.030413	-0.019166	0.999823	0.004387	0.004136	-0.017838	
43393	    0	10.845864	-1.275584	-2.529112	1.281229	0.697361	-3.122866	0.108154	-0.014282	-0.025757	0.999851	0.006406	0.003487	-0.015614	
43394	    0	10.222390	-0.577114	-2.389934	1.403858	0.756481	-2.429285	0.102054	-0.006842	-0.024331	0.999894	0.007019	0.003782	-0.012146	
43395	    0	9.047667	0.290224	-2.399172	1.503213	0.842303	-1.422149	0.090393	0.002441	-0.024353	0.999937	0.007516	0.004211	-0.007111	
43396	    0	6.099292	1.729426	-3.376119	1.439302	0.754746	-0.308803	0.060892	0.017444	-0.033866	0.999966	0.007196	0.003774	-0.001544	
43397	    0	2.654921	2.787119	-2.469593	0.949867	0.721174	0.664525	0.026367	0.028076	-0.024658	0.999976	0.004749	0.003606	0.003323	
43398	    0	-0.567568	3.710061	-2.594622	0.745593	0.593766	1.541731	-0.006039	0.037151	-0.025790	0.999958	0.003728	0.002969	0.007709	
43399	    0	-2.153639	3.220028	-3.295379	0.644892	0.680561	2.402563	-0.022034	0.032043	-0.032776	0.999916	0.003224	0.003403	0.012012	
43400	    0	-2.533146	1.909347	-3.707034	0.519206	0.793688	3.337074	-0.025793	0.018762	-0.036920	0.999849	0.002596	0.003968	0.016685	
43401	    0	-2.379104	0.682786	-4.338670	0.434147	0.821179	4.275854	-0.024109	0.006409	-0.043274	0.999761	0.002171	0.004106	0.021378	
43402	    0	-1.952372	-0.654298	-4.517462	0.507030	0.811477	5.109027	-0.019533	-0.006927	-0.045113	0.999661	0.002535	0.004057	0.025542	
43403	    0	-1.380529	-1.525235	-4.783968	0.886669	0.825816	5.891544	-0.013550	-0.015442	-0.047852	0.999547	0.004433	0.004128	0.029453	
43404	    0	-0.398746	0.110674	-4.725487	1.173050	0.869915	6.572820	-0.004232	0.001247	-0.047230	0.999433	0.005864	0.004349	0.032858	
43405	    0	0.792461	2.456864	-4.460776	1.160118	0.872235	7.179339	0.006836	0.025085	-0.044495	0.999329	0.005799	0.004360	0.035889	
43406	    0	2.046943	2.762992	-4.201061	1.099296	0.803963	7.724453	0.019208	0.028619	-0.041934	0.999230	0.005495	0.004019	0.038612	
43407	    0	3.474083	2.159787	-3.754814	1.118786	0.677110	8.138290	0.033691	0.023193	-0.037537	0.999150	0.005592	0.003385	0.040680	
43408	    0	4.834267	2.010022	-3.566460	1.155443	0.530977	8.469881	0.047334	0.022326	-0.035666	0.999083	0.005775	0.002654	0.042336	
43409	    0	6.342253	1.892887	-2.988249	1.039465	0.424525	8.812560	0.062439	0.021851	-0.029907	0.999013	0.005196	0.002122	0.044048	
43410	    0	8.441398	1.450305	-2.183808	0.981675	0.382557	9.105818	0.083592	0.018430	-0.021914	0.998949	0.004907	0.001912	0.045513	
43411	    0	10.481439	1.480586	-1.863397	1.038171	0.262548	9.347167	0.103943	0.019775	-0.018677	0.998894	0.005189	0.001312	0.046719	
43412	    0	12.780547	2.025903	-2.174437	1.105165	0.104754	9.581083	0.126625	0.026465	-0.021676	0.998837	0.005524	0.000524	0.047887	
43413	    0	14.839187	3.296769	-1.343420	1.097739	0.024424	9.757337	0.146545	0.040222	-0.013245	0.998795	0.005486	0.000122	0.048767	
43414	    0	16.056143	4.954486	-0.238396	1.268328	-0.100558	9.776259	0.157887	0.057322	-0.001957	0.998785	0.006339	-0.000503	0.048862	
43415	    0	16.787895	6.095129	-0.623768	1.648041	-0.312168	9.690184	0.164673	0.069031	-0.005432	0.998791	0.008237	-0.001560	0.048431	
43416	    0	18.620133	6.598646	-1.187595	2.123369	-0.467683	9.685678	0.182739	0.075012	-0.010681	0.998768	0.010612	-0.002337	0.048409	
43417	    0	21.533839	9.136890	-2.032361	2.714907	-0.525312	9.611702	0.210661	0.101830	-0.018431	0.998748	0.013569	-0.002625	0.048038	
43418	    0	24.161986	13.187849	-2.097960	3.198604	-0.378001	9.397365	0.235099	0.143337	-0.018299	0.998766	0.015986	-0.001889	0.046968	
43419	    0	24.919967	15.666369	-2.894283	3.923857	-0.317320	9.026932	0.241821	0.168213	-0.025330	0.998788	0.019611	-0.001586	0.045116	
43420	    0	24.662305	17.721626	-5.919324	4.655987	-0.221723	8.629061	0.238700	0.188939	-0.054617	0.998797	0.023271	-0.001108	0.043128	
43421	    0	25.194436	20.548909	-7.885066	4.825904	0.075751	8.254334	0.243103	0.217468	-0.073792	0.998857	0.024120	0.000379	0.041256	
43422	    0	26.374618	23.884706	-8.133376	4.480353	0.360993	7.813047	0.253965	0.250645	-0.076270	0.998984	0.022394	0.001804	0.039052	
43423	    0	27.837663	27.970626	-7.698878	3.584482	0.535917	7.129280	0.267944	0.290710	-0.072571	0.999200	0.017918	0.002679	0.035637	
43424	    0	27.055719	33.149316	-8.634024	2.091783	0.539876	6.195417	0.259872	0.340538	-0.083521	0.999461	0.010457	0.002699	0.030972	
43425	    0	20.896185	34.452693	-11.743812	0.294722	0.319711	5.451119	0.199280	0.350220	-0.117249	0.999626	0.001473	0.001598	0.027252	
43426	    0	15.588096	30.875974	-14.380634	-1.118954	0.106440	4.571574	0.148705	0.311402	-0.145624	0.999722	-0.005594	0.000532	0.022856	
43427	    0	12.400984	27.942910	-14.558416	-1.789774	-0.130471	3.373160	0.119385	0.280151	-0.148010	0.999817	-0.008948	-0.000652	0.016865	
43428	    0	10.241759	27.676857	-10.309634	-2.253240	-0.422304	2.061353	0.099788	0.276623	-0.106001	0.999881	-0.011266	-0.002111	0.010306	
43429	    0	7.760951	27.799376	-4.268754	-2.732756	-0.569173	0.863678	0.076538	0.277710	-0.046265	0.999893	-0.013663	-0.002846	0.004318	
43430	    0	5.138230	26.095177	0.044679	-3.016591	-0.542281	-0.250635	0.051715	0.260856	-0.003348	0.999882	-0.015082	-0.002711	-0.001253	
43431	    0	4.815730	24.419233	0.805891	-3.147853	-0.469994	-1.310795	0.049744	0.243958	0.004333	0.999851	-0.015738	-0.002350	-0.006554	
43432	    0	5.736698	23.116901	0.257683	-3.245563	-0.441007	-2.174517	0.059875	0.230530	-0.001038	0.999806	-0.016227	-0.002205	-0.010872	
43433	    0	6.205267	21.268838	0.450985	-3.482916	-0.503582	-2.728497	0.064941	0.211853	0.000977	0.999752	-0.017413	-0.002518	-0.013641	
43434	    0	6.644895	16.444423	2.058845	-3.743537	-0.569781	-3.014477	0.068868	0.163768	0.017713	0.999706	-0.018716	-0.002849	-0.015071	
43435	    0	6.384468	9.162160	4.751174	-3.875379	-0.495772	-3.181031	0.065186	0.091492	0.045898	0.999682	-0.019375	-0.002479	-0.015903	
43436	    0	6.979638	6.370814	6.941374	-3.955889	-0.401159	-3.200306	0.070681	0.063940	0.068292	0.999674	-0.019777	-0.002006	-0.016000	
43437	    0	8.046213	2.369153	-5.987848	-3.906630	-1.231313	-2.566778	0.081116	0.021484	-0.059814	0.999707	-0.019531	-0.006156	-0.012833	
43438	    0	-2.505843	-1.079462	-45.777553	-2.044648	-3.318094	-1.917418	-0.017593	-0.015284	-0.457968	0.999763	-0.010222	-0.016589	-0.009586	
43439	    0	28.081950	47.605431	-100.838785	-0.683649	-1.037492	-4.245341	0.296021	0.466431	-1.008484	0.999755	-0.003418	-0.005187	-0.021225	
43440	    0	116.826233	61.211602	95.127746	-3.968418	4.556466	-11.149055	1.221677	0.563344	0.912333	0.997990	-0.019829	0.022767	-0.055708	
43441	    0	50.642661	-30.948217	13.320015	-0.715727	-2.588023	-4.772019	0.497070	-0.320923	0.140808	0.999625	-0.003578	-0.012938	-0.023857	
43442	    0	4.262568	2.322746	31.312178	2.217931	-2.065312	-6.260608	0.040015	0.018470	0.313766	0.999394	0.011087	-0.010324	-0.031297	
43443	    0	-11.587085	-1.896821	1.263391	1.066975	-0.792839	-6.493040	-0.116455	-0.015259	0.012085	0.999451	0.005334	-0.003963	-0.032459	
43444	    0	11.275196	13.382897	2.512151	0.486056	0.065049	-5.597279	0.116445	0.130543	0.025404	0.999605	0.002430	0.000325	-0.027983	
43445	    0	15.105973	7.221908	-2.730623	0.657146	-0.290708	-4.787150	0.152771	0.068665	-0.026855	0.999706	0.003285	-0.001453	-0.023933	
43446	    0	4.100441	6.379691	-13.885811	-0.675434	-0.219549	-3.777164	0.042346	0.062536	-0.139025	0.999815	-0.003377	-0.001098	-0.018885	
43447	    0	13.042439	6.254915	-13.444894	-1.839557	0.289362	-3.306015	0.131226	0.059143	-0.135193	0.999820	-0.009197	0.001447	-0.016529	
43448	    0	19.092648	2.476883	-4.425591	-1.355997	0.377673	-3.037022	0.191186	0.021564	-0.044770	0.999860	-0.006780	0.001888	-0.015184	
43449	    0	23.466196	7.623651	0.173853	-1.127676	0.811996	-3.014512	0.235779	0.072693	0.000366	0.999862	-0.005638	0.004060	-0.015072	
43450	    0	21.112790	8.850123	1.323599	-1.182415	0.910797	-2.797625	0.212395	0.085608	0.011759	0.999874	-0.005912	0.004554	-0.013988	
43451	    0	23.737805	-1.519718	0.738941	-0.922998	0.842314	-2.599425	0.237183	-0.018250	0.006470	0.999895	-0.004615	0.004211	-0.012997	
43452	    0	24.199616	-1.823487	0.678480	-1.085121	0.719472	-2.257029	0.241793	-0.020930	0.006023	0.999915	-0.005425	0.003597	-0.011285	
43453	    0	22.851031	-5.457656	3.014264	-1.540985	0.529493	-1.797529	0.228088	-0.056396	0.029968	0.999926	-0.007705	0.002647	-0.008987	
43454	    0	21.784193	-5.398761	4.629885	-1.620138	0.470744	-1.587903	0.217515	-0.055341	0.046231	0.999932	-0.008101	0.002354	-0.007939	
43455	    0	20.256695	-6.213609	2.936431	-1.576071	0.375373	-1.313043	0.202209	-0.063232	0.029480	0.999945	-0.007880	0.001877	-0.006565	
43456	    0	17.882416	-4.869422	-1.346017	-1.137935	0.155069	-0.970087	0.178575	-0.049637	-0.013318	0.999971	-0.005690	0.000775	-0.004850	
43457	    0	19.116347	-7.686110	-3.976419	-0.715640	0.193978	-0.535585	0.190918	-0.077515	-0.039673	0.999990	-0.003578	0.000970	-0.002678	
43458	    0	17.613743	-7.906127	-1.088348	-0.178910	0.461961	-0.470162	0.175925	-0.079485	-0.011219	0.999993	-0.000895	0.002310	-0.002351	
43459	    0	17.873412	-2.010282	0.165029	0.170137	0.802808	-0.862127	0.178650	-0.020874	0.000916	0.999982	0.000851	0.004014	-0.004311	
43460	    0	17.751323	3.266385	-2.865466	0.033379	1.107423	-1.513122	0.177591	0.031325	-0.029633	0.999955	0.000167	0.005537	-0.007565	
43461	    0	12.783069	7.061873	-6.545637	-0.812370	1.519832	-2.440734	0.128174	0.068787	-0.066711	0.999887	-0.004062	0.007599	-0.012203	
43462	    0	15.540176	12.961433	-10.609135	-0.720439	1.052334	-3.106454	0.156823	0.126801	-0.107374	0.999859	-0.003602	0.005261	-0.015532	
43463	    0	12.885013	15.923063	-9.402740	-0.909483	0.535809	-3.808842	0.131592	0.156311	-0.095093	0.999804	-0.004547	0.002679	-0.019043	
43464	    0	9.864243	7.678752	-6.415232	-1.241188	0.197995	-3.638874	0.099949	0.074576	-0.064718	0.999814	-0.006206	0.000990	-0.018193	
43465	    0	14.023006	3.668792	-3.646649	-1.389206	0.222792	-3.551699	0.140808	0.033936	-0.036865	0.999817	-0.006946	0.001114	-0.017757	
43466	    0	16.268075	-2.011074	-0.722962	-1.433087	0.165378	-3.748955	0.162259	-0.023207	-0.007205	0.999798	-0.007165	0.000827	-0.018744	
43467	    0	15.736759	-3.994906	-0.221990	-1.602305	0.090225	-4.142339	0.156494	-0.043213	-0.001953	0.999753	-0.008011	0.000451	-0.020710	
43468	    0	15.947830	-4.842441	0.176956	-1.899905	0.158898	-4.451042	0.158350	-0.051938	0.002126	0.999706	-0.009499	0.000794	-0.022253	
43469	    0	15.728855	-5.883658	0.514609	-2.202846	0.184079	-4.607130	0.155884	-0.062378	0.005676	0.999673	-0.011013	0.000920	-0.023033	
43470	    0	16.848712	-5.875687	0.460615	-2.509605	0.150317	-4.699691	0.167049	-0.062631	0.005250	0.999644	-0.012547	0.000751	-0.023496	
43471	    0	17.727783	-4.994029	-0.108316	-2.853759	0.178741	-4.746854	0.176025	-0.054138	-0.000488	0.999616	-0.014267	0.000894	-0.023731	
43472	    0	16.880870	-4.989719	-0.023927	-3.299968	0.320478	-4.629188	0.167594	-0.053783	0.000358	0.999595	-0.016498	0.001602	-0.023143	
43473	    0	16.919293	-4.757395	0.215162	-3.651202	0.453443	-4.659956	0.168030	-0.051453	0.002686	0.999558	-0.018253	0.002267	-0.023296	
43474	    0	17.534725	-3.770884	0.527765	-3.780571	0.660427	-4.750990	0.174405	-0.041758	0.005465	0.999534	-0.018900	0.003302	-0.023751	
43475	    0	17.765932	-2.367451	-0.405635	-3.665540	0.862256	-4.810318	0.177002	-0.028015	-0.004333	0.999533	-0.018325	0.004311	-0.024048	
43476	    0	18.164752	-2.727602	-1.546754	-3.259933	1.021722	-4.748831	0.180847	-0.031834	-0.015899	0.999572	-0.016297	0.005108	-0.023741	
43477	    0	18.157659	-2.957620	-2.808858	-2.567603	1.123374	-4.615581	0.180664	-0.034119	-0.028687	0.999635	-0.012836	0.005616	-0.023075	
43478	    0	17.900615	-3.377087	-3.245453	-1.867676	1.179053	-4.433131	0.178000	-0.038032	-0.033164	0.999693	-0.009337	0.005895	-0.022163	
43479	    0	17.419682	-3.779267	-2.761987	-1.231494	1.234737	-4.288866	0.173157	-0.041687	-0.028442	0.999732	-0.006157	0.006173	-0.021442	
43480	    0	16.592650	-4.085399	-1.813581	-0.558517	1.285467	-4.190404	0.164901	-0.044369	-0.019077	0.999756	-0.002792	0.006427	-0.020950	
43481	    0	15.247367	-4.127938	-0.834725	0.095565	1.278017	-3.998859	0.151550	-0.044312	-0.009338	0.999779	0.000478	0.006390	-0.019993	
43482	    0	13.262370	-3.860682	-0.534136	0.722170	1.202471	-3.709655	0.131842	-0.041036	-0.006281	0.999803	0.003611	0.006012	-0.018547	
43483	    0	11.255341	-3.163025	-1.084205	1.352773	1.058451	-3.377735	0.111938	-0.033447	-0.011658	0.999820	0.006763	0.005292	-0.016888	
43484	    0	9.623578	-2.622366	-1.991861	1.868350	0.840805	-2.994702	0.095745	-0.027470	-0.020575	0.999835	0.009341	0.004204	-0.014973	
43485	    0	8.446455	-1.592625	-2.572655	2.118211	0.672182	-2.546813	0.084167	-0.016724	-0.026184	0.999857	0.010591	0.003361	-0.012733	
43486	    0	7.618593	0.156445	-2.870103	2.116470	0.606177	-1.930306	0.076111	0.001135	-0.028918	0.999892	0.010582	0.003031	-0.009651	
43487	    0	6.969680	2.070853	-2.613625	1.959462	0.717942	-0.961325	0.069702	0.020630	-0.026184	0.999933	0.009797	0.003590	-0.004807	
43488	    0	4.842756	3.623214	-3.821791	1.614782	0.700197	0.193408	0.048259	0.036587	-0.038093	0.999960	0.008074	0.003501	0.000967	
43489	    0	1.684945	5.055482	-3.919217	0.961315	0.642593	1.203932	0.016418	0.050842	-0.039001	0.999965	0.004807	0.003213	0.006020	
43490	    0	-1.563700	5.543237	-4.205406	0.407800	0.491343	2.164314	-0.016339	0.055344	-0.041902	0.999936	0.002039	0.002457	0.010821	
43491	    0	-3.361597	4.059570	-4.431428	0.189980	0.507567	3.151837	-0.034363	0.040100	-0.044189	0.999871	0.000950	0.002538	0.015759	
43492	    0	-3.497514	2.106568	-4.344806	0.302718	0.598188	4.142875	-0.035532	0.020399	-0.043311	0.999780	0.001513	0.002991	0.020713	
43493	    0	-1.629424	1.441769	-4.104306	0.467732	0.664782	4.986340	-0.016785	0.014099	-0.040955	0.999681	0.002338	0.003324	0.024929	
43494	    0	0.834747	0.607794	-3.916193	0.713065	0.641339	5.676290	0.008042	0.006449	-0.039165	0.999585	0.003565	0.003206	0.028378	
43495	    0	2.354060	-0.057579	-3.294699	0.912055	0.622662	6.223570	0.023438	0.000305	-0.033020	0.999500	0.004560	0.003113	0.031113	
43496	    0	2.835862	0.512006	-3.311291	1.252418	0.584144	6.694380	0.028065	0.006270	-0.033158	0.999415	0.006261	0.002920	0.033465	
43497	    0	3.504030	1.527929	-3.585772	1.427975	0.498313	7.223624	0.034363	0.016785	-0.035828	0.999319	0.007138	0.002491	0.036110	
43498	    0	4.746107	2.101798	-3.450146	1.415618	0.377752	7.728471	0.046531	0.023072	-0.034431	0.999227	0.007076	0.001888	0.038632	
43499	    0	5.869590	2.250800	-3.221026	1.412599	0.225321	8.100886	0.057678	0.025085	-0.032104	0.999154	0.007061	0.001126	0.040493	
43500	    0	6.258683	2.773856	-2.461270	1.430179	0.134509	8.379217	0.061331	0.030501	-0.024443	0.999096	0.007149	0.000672	0.041883	
43501	    0	6.190409	3.937448	-1.693355	1.416467	0.068877	8.632360	0.060120	0.042114	-0.016663	0.999043	0.007080	0.000344	0.043148	
43502	    0	7.049683	4.022499	-1.808487	1.248022	0.013547	8.956909	0.068598	0.043438	-0.017825	0.998978	0.006238	0.000068	0.044769	
43503	    0	9.532479	2.293607	-1.366568	1.031108	0.037588	9.305156	0.094116	0.027405	-0.013550	0.998904	0.005154	0.000188	0.046509	
43504	    0	12.447116	1.836763	-0.775632	1.085319	-0.073843	9.562940	0.123405	0.024328	-0.007589	0.998842	0.005424	-0.000369	0.047796	
43505	    0	14.822996	2.639162	-0.152610	1.360097	-0.292894	9.653484	0.146729	0.033508	-0.001099	0.998811	0.006798	-0.001464	0.048248	
43506	    0	16.868529	3.148510	0.443476	1.649946	-0.499735	9.657727	0.166893	0.039535	0.005157	0.998796	0.008246	-0.002498	0.048269	
43507	    0	19.133190	4.429261	0.336315	2.161519	-0.706577	9.587924	0.188904	0.053345	0.004578	0.998786	0.010803	-0.003531	0.047920	
43508	    0	22.242280	6.761388	-0.750911	2.902081	-0.778137	9.473503	0.218911	0.078132	-0.005569	0.998765	0.014504	-0.003889	0.047348	
43509	    0	24.923844	9.506126	-1.557766	3.697226	-0.697428	9.291151	0.244507	0.106750	-0.012817	0.998744	0.018478	-0.003486	0.046436	
43510	    0	26.467644	12.675062	-2.481660	4.369276	-0.606409	9.001686	0.258671	0.138974	-0.021078	0.998744	0.021837	-0.003031	0.044990	
43511	    0	27.046278	15.314038	-4.974436	4.856751	-0.400706	8.598012	0.263611	0.165710	-0.045288	0.998779	0.024274	-0.002003	0.042973	
43512	    0	27.725609	18.239708	-6.690485	4.936745	-0.111813	8.131614	0.269531	0.195035	-0.062041	0.998868	0.024674	-0.000559	0.040643	
43513	    0	29.021861	22.200551	-6.912891	4.164653	0.081851	7.558498	0.281494	0.234131	-0.064453	0.999068	0.020817	0.000409	0.037781	
43514	    0	30.302802	26.356375	-6.655154	2.824284	0.212146	6.842651	0.293689	0.274627	-0.063040	0.999314	0.014118	0.001060	0.034205	
43515	    0	27.727828	29.409815	-7.011186	0.933984	0.280233	6.039608	0.268127	0.302612	-0.069092	0.999532	0.004669	0.001401	0.030193	
43516	    0	19.947023	26.107305	-12.436143	-0.447517	0.061996	5.330340	0.192386	0.265985	-0.125013	0.999641	-0.002237	0.000310	0.026649	
43517	    0	14.165928	22.361233	-16.834307	-1.279376	-0.151076	4.505570	0.136719	0.225647	-0.169678	0.999725	-0.006396	-0.000755	0.022526	
43518	    0	11.789925	27.427767	-11.631308	-2.415832	-0.352694	3.377587	0.113470	0.274789	-0.119428	0.999783	-0.012078	-0.001763	0.016887	
43519	    0	8.698366	29.812219	-4.930718	-3.591223	-0.508154	2.020409	0.084106	0.298035	-0.054443	0.999784	-0.017955	-0.002541	0.010101	
43520	    0	4.905477	26.994268	-0.227576	-4.179698	-0.490035	0.657704	0.048182	0.269978	-0.007799	0.999773	-0.020897	-0.002450	0.003288	
43521	    0	2.968100	20.818602	0.739056	-3.855378	-0.271433	-0.575293	0.030273	0.208191	0.003418	0.999808	-0.019276	-0.001357	-0.002876	
43522	    0	5.152353	17.147644	1.662922	-3.228173	0.064853	-1.643652	0.052937	0.171284	0.013846	0.999835	-0.016140	0.000324	-0.008218	
43523	    0	7.274105	16.748387	1.520935	-2.297127	0.125891	-2.417104	0.074768	0.166748	0.013245	0.999861	-0.011485	0.000629	-0.012085	
43524	    0	8.949623	15.295640	2.277277	-1.614458	0.169571	-2.985526	0.091786	0.151774	0.021467	0.999855	-0.008072	0.000848	-0.014927	
43525	    0	8.608954	13.697921	3.396031	-1.235267	0.087934	-3.431892	0.088440	0.135681	0.033081	0.999833	-0.006176	0.000440	-0.017159	
43526	    0	8.392257	11.060744	3.827914	-1.064175	-0.072674	-3.670725	0.085922	0.109244	0.037726	0.999817	-0.005321	-0.000363	-0.018353	
43527	    0	6.978935	8.857136	4.999445	-1.043575	-0.241867	-3.689039	0.071350	0.087524	0.049622	0.999815	-0.005218	-0.001209	-0.018444	
43528	    0	5.033027	5.922871	5.887473	-1.015529	-0.267998	-3.515631	0.051286	0.058631	0.058644	0.999830	-0.005077	-0.001340	-0.017577	
43529	    0	11.481461	1.846509	-1.053164	-1.204735	-0.876466	-2.920663	0.115112	0.016724	-0.010132	0.999866	-0.006023	-0.004382	-0.014603	
43530	    0	-3.948131	8.513219	-32.393186	0.315681	-2.217780	-2.533461	-0.034801	0.086104	-0.324200	0.999857	0.001578	-0.011088	-0.012667	
43531	    0	13.155352	65.470255	-104.569294	1.722355	-3.121566	-4.069252	0.161194	0.660583	-1.037659	0.999634	0.008611	-0.015606	-0.020344	
43532	    0	119.117440	70.711040	79.022202	-4.859735	6.012916	-11.754764	1.253334	0.652971	0.736830	0.997526	-0.024279	0.030040	-0.058725	
43533	    0	55.656564	-48.508358	4.194590	-1.279641	-3.318330	-4.824788	0.543823	-0.497986	0.054199	0.999551	-0.006397	-0.016589	-0.024120	
43534	    0	14.697378	8.103348	35.402451	2.056820	-2.162895	-7.090791	0.145792	0.072192	0.356379	0.999260	0.010282	-0.010812	-0.035445	
43535	    0	-13.085421	-8.366377	0.887015	1.486730	-1.793310	-6.957279	-0.133728	-0.079102	0.007080	0.999327	0.007432	-0.008965	-0.034779	
43536	    0	1.450574	15.046891	1.543311	0.913759	-0.395072	-5.950686	0.018940	0.149877	0.016153	0.999544	0.004568	-0.001975	-0.029749	
43537	    0	11.574083	12.732727	-3.100551	0.566923	-0.431678	-4.925282	0.118896	0.124512	-0.030396	0.999690	0.002834	-0.002158	-0.024624	
43538	    0	0.925370	9.354904	-9.591912	-0.563083	-0.268189	-3.718215	0.011116	0.093083	-0.096168	0.999822	-0.002815	-0.001341	-0.018590	
43539	    0	11.605759	8.168579	-13.817165	-1.744166	0.084118	-2.980953	0.117188	0.078735	-0.138916	0.999850	-0.008720	0.000421	-0.014904	
43540	    0	18.993694	4.503224	-5.810902	-1.300097	0.299274	-2.657607	0.190422	0.042124	-0.058674	0.999889	-0.006500	0.001496	-0.013288	
43541	    0	21.189533	8.650655	-0.650609	-0.901063	0.525874	-2.686403	0.213013	0.083618	-0.007446	0.999896	-0.004505	0.002629	-0.013432	
43542	    0	19.116800	11.171690	-2.542232	-1.232185	0.695822	-2.311777	0.192349	0.109336	-0.026769	0.999907	-0.006161	0.003479	-0.011559	
43543	    0	24.500139	0.526030	-1.247099	-1.082448	0.666063	-2.143915	0.244995	0.002563	-0.013306	0.999922	-0.005412	0.003330	-0.010719	
43544	    0	27.417204	-0.942560	0.071876	-1.101327	0.603307	-1.880686	0.274068	-0.012002	-0.000047	0.999935	-0.005507	0.003016	-0.009403	
43545	    0	26.122414	-1.953554	1.932420	-1.624142	0.437937	-1.517519	0.261108	-0.021362	0.018921	0.999935	-0.008121	0.002190	-0.007587	
43546	    0	24.993120	-6.118837	4.984376	-1.845207	0.345619	-1.190973	0.249649	-0.062215	0.049983	0.999938	-0.009226	0.001728	-0.005955	
43547	    0	22.690957	-6.425171	3.419745	-2.095079	0.183300	-0.981162	0.226624	-0.065002	0.034668	0.999932	-0.010475	0.000916	-0.004906	
43548	    0	20.436236	-7.321573	1.305188	-2.085918	-0.126078	-0.597775	0.204134	-0.073684	0.013947	0.999941	-0.010429	-0.000630	-0.002989	
43549	    0	17.005098	-8.285716	-3.704125	-2.145237	-0.305945	-0.150302	0.170044	-0.083374	-0.035889	0.999941	-0.010726	-0.001530	-0.000751	
43550	    0	17.309130	-11.606070	-1.874038	-1.822115	-0.004387	0.011826	0.173099	-0.116215	-0.017678	0.999958	-0.009110	-0.000022	0.000059	
43551	    0	17.111576	-5.121715	0.273339	-1.248178	0.358775	-0.152589	0.171082	-0.051331	0.002747	0.999978	-0.006241	0.001794	-0.000763	
43552	    0	21.583803	3.238023	0.277556	-1.162349	0.695998	-0.654799	0.215950	0.031686	0.001839	0.999971	-0.005812	0.003480	-0.003274	
43553	    0	16.165030	8.409019	-4.853924	-2.275734	0.849943	-1.468708	0.162048	0.082336	-0.050171	0.999899	-0.011378	0.004250	-0.007343	
43554	    0	8.314165	14.549954	-7.335074	-3.002364	0.874005	-2.447289	0.084577	0.143344	-0.075881	0.999803	-0.015011	0.004370	-0.012236	
43555	    0	13.924415	28.071515	-10.230378	-3.224329	0.554715	-3.797547	0.144226	0.276306	-0.107178	0.999685	-0.016120	0.002773	-0.018986	
43556	    0	9.408033	10.228372	-9.006058	-3.418907	0.266294	-3.734226	0.095827	0.098945	-0.091898	0.999679	-0.017093	0.001331	-0.018669	
43557	    0	14.460821	2.208380	-6.904244	-3.046691	0.159659	-3.499918	0.144897	0.018494	-0.069458	0.999730	-0.015232	0.000798	-0.017498	
43558	    0	17.121749	-4.903880	-3.891645	-2.130853	0.351931	-3.562803	0.170235	-0.052490	-0.038670	0.999783	-0.010653	0.001760	-0.017813	
43559	    0	18.089704	-6.646999	-1.735649	-1.466295	0.605059	-4.061448	0.179443	-0.070251	-0.017395	0.999762	-0.007331	0.003025	-0.020306	
43560	    0	18.775280	-6.195522	0.255270	-1.248295	0.847902	-4.684921	0.186243	-0.066316	0.002166	0.999697	-0.006241	0.004239	-0.023422	
43561	    0	18.577877	-5.945793	1.279678	-1.314698	0.950924	-5.032935	0.184265	-0.064026	0.012329	0.999650	-0.006573	0.004754	-0.025162	
43562	    0	19.213919	-6.158384	1.991620	-1.748505	0.925186	-5.252765	0.190528	-0.066430	0.019599	0.999606	-0.008741	0.004625	-0.026260	
43563	    0	19.829979	-5.738715	1.529658	-2.292971	0.869307	-5.422248	0.196716	-0.062561	0.015137	0.999557	-0.011463	0.004346	-0.027107	
43564	    0	19.460671	-5.437726	1.075711	-2.796804	0.974809	-5.384148	0.193104	-0.059441	0.010621	0.999528	-0.013982	0.004873	-0.026917	
43565	    0	18.567925	-6.227836	1.047934	-3.018471	1.049206	-5.239164	0.184021	-0.066956	0.010498	0.999529	-0.015090	0.005245	-0.026192	
43566	    0	18.298251	-6.438912	0.838713	-2.950941	1.161948	-5.252899	0.181258	-0.069042	0.008327	0.999529	-0.014752	0.005809	-0.026260	
43567	    0	17.789492	-4.934397	0.196638	-2.770665	1.250080	-5.306308	0.176514	-0.054016	0.001587	0.999532	-0.013851	0.006249	-0.026527	
43568	    0	17.959284	-3.496523	-0.320811	-2.601064	1.394483	-5.259357	0.178564	-0.039719	-0.003960	0.999545	-0.013003	0.006971	-0.026293	
43569	    0	18.442270	-2.514358	-1.258120	-2.315087	1.477451	-5.146756	0.183594	-0.030029	-0.013611	0.999574	-0.011574	0.007386	-0.025730	
43570	    0	18.735041	-2.708465	-2.345610	-1.844065	1.468270	-4.945229	0.186423	-0.031925	-0.024548	0.999624	-0.009219	0.007340	-0.024723	
43571	    0	18.185064	-3.851670	-2.920325	-1.279396	1.407774	-4.706316	0.180664	-0.042969	-0.030212	0.999678	-0.006396	0.007038	-0.023529	
43572	    0	16.788027	-4.476201	-3.215670	-0.696438	1.374945	-4.479446	0.166595	-0.048617	-0.033140	0.999719	-0.003482	0.006874	-0.022395	
43573	    0	15.422042	-4.828342	-2.617655	-0.111208	1.399349	-4.272058	0.152954	-0.051575	-0.027222	0.999746	-0.000556	0.006996	-0.021358	
43574	    0	14.130462	-4.357985	-1.698062	0.417933	1.410594	-4.072126	0.140254	-0.046406	-0.018067	0.999765	0.002090	0.007052	-0.020359	
43575	    0	12.663527	-3.216017	-1.195342	0.870002	1.330659	-3.772236	0.125916	-0.034485	-0.012939	0.999790	0.004350	0.006653	-0.018860	
43576	    0	10.916054	-2.809782	-1.427266	1.187202	1.151914	-3.330423	0.108588	-0.029821	-0.015073	0.999826	0.005936	0.005759	-0.016651	
43577	    0	9.120040	-3.233455	-2.024207	1.551891	0.960776	-2.803933	0.090637	-0.033447	-0.020935	0.999860	0.007759	0.004804	-0.014019	
43578	    0	7.448049	-3.060210	-3.019164	2.024162	0.746186	-2.296352	0.074011	-0.031144	-0.030782	0.999875	0.010120	0.003731	-0.011481	
43579	    0	5.932157	-1.566214	-3.750157	2.283559	0.543423	-1.743379	0.059082	-0.015747	-0.037842	0.999892	0.011417	0.002717	-0.008717	
43580	    0	5.186103	0.664606	-3.719835	2.009818	0.605788	-0.995849	0.051782	0.006763	-0.037288	0.999932	0.010049	0.003029	-0.004979	
43581	    0	3.432329	2.736960	-3.832508	1.731326	0.711833	0.054169	0.034180	0.027710	-0.038208	0.999956	0.008657	0.003559	0.000271	
43582	    0	0.702330	3.918975	-4.439647	1.313421	0.771344	1.183528	0.006619	0.039520	-0.044164	0.999953	0.006567	0.003857	0.005918	
43583	    0	-2.700511	5.331372	-4.424003	0.725002	0.740070	2.265989	-0.027771	0.053162	-0.043945	0.999922	0.003625	0.003700	0.011330	
43584	    0	-5.067157	6.059827	-5.011711	0.346200	0.702699	3.224330	-0.051816	0.059855	-0.049832	0.999862	0.001731	0.003513	0.016121	
43585	    0	-5.251470	5.759838	-5.102279	0.065808	0.833954	4.104151	-0.053894	0.056519	-0.050781	0.999781	0.000329	0.004169	0.020519	
43586	    0	-4.015701	5.067858	-4.749174	-0.066574	0.886439	4.979664	-0.041612	0.049639	-0.047326	0.999680	-0.000333	0.004432	0.024896	
43587	    0	-2.546684	2.863722	-4.827694	0.065622	0.848701	5.812145	-0.026489	0.027893	-0.048157	0.999568	0.000328	0.004243	0.029057	
43588	    0	-0.805032	0.686188	-4.590674	0.508209	0.795317	6.498551	-0.008452	0.006708	-0.045856	0.999460	0.002541	0.003976	0.032487	
43589	    0	1.246136	0.370348	-4.526631	1.146181	0.744979	7.043442	0.012146	0.004395	-0.045288	0.999356	0.005730	0.003724	0.035210	
43590	    0	2.939114	1.933166	-4.387068	1.526065	0.652665	7.522536	0.028485	0.020749	-0.043810	0.999258	0.007628	0.003263	0.037603	
43591	    0	4.485943	3.000473	-3.693905	1.605664	0.532105	7.926822	0.043518	0.032043	-0.036804	0.999179	0.008026	0.002660	0.039623	
43592	    0	5.641085	3.032574	-3.226319	1.746888	0.354300	8.257078	0.055031	0.032898	-0.032082	0.999107	0.008732	0.001771	0.041273	
43593	    0	6.618807	3.390285	-2.755630	1.851475	0.181065	8.501065	0.064636	0.036926	-0.027283	0.999053	0.009254	0.000905	0.042492	
43594	    0	7.566801	3.937880	-2.139775	1.863715	0.105320	8.712408	0.073841	0.042820	-0.021049	0.999007	0.009315	0.000526	0.043548	
43595	    0	8.439942	4.094530	-1.101635	1.781312	0.125356	8.895873	0.082458	0.044739	-0.010681	0.998971	0.008904	0.000627	0.044464	
43596	    0	9.718323	3.460723	-0.425346	1.884762	0.105515	9.132833	0.095466	0.039032	-0.003950	0.998913	0.009420	0.000527	0.045648	
43597	    0	11.703791	4.402389	-1.237449	2.111100	-0.051709	9.361044	0.114807	0.049561	-0.011841	0.998849	0.010551	-0.000258	0.046787	
43598	    0	13.626848	6.154359	-0.622444	2.067992	-0.098076	9.458994	0.133158	0.067951	-0.005478	0.998828	0.010336	-0.000490	0.047276	
43599	    0	14.842829	6.870290	0.383845	2.184390	-0.250152	9.452714	0.144958	0.075562	0.004822	0.998822	0.010918	-0.001250	0.047245	
43600	    0	16.225338	7.520771	0.200737	2.516786	-0.384101	9.393584	0.158481	0.082676	0.003324	0.998816	0.012579	-0.001920	0.046949	
43601	    0	18.524760	9.116030	-0.020028	2.804126	-0.405087	9.216063	0.180786	0.099548	0.001526	0.998837	0.014015	-0.002025	0.046062	
43602	    0	20.653920	10.784332	-1.383082	3.528444	-0.452218	8.994366	0.201435	0.117196	-0.011358	0.998830	0.017635	-0.002260	0.044954	
43603	    0	22.534333	12.126515	-2.347282	4.245333	-0.387726	8.741390	0.219788	0.131409	-0.020325	0.998817	0.021218	-0.001938	0.043690	
43604	    0	23.518205	13.746793	-4.630626	4.937971	-0.290413	8.367399	0.229193	0.148222	-0.042398	0.998818	0.024680	-0.001451	0.041821	
43605	    0	23.747078	15.526752	-6.572596	5.403127	-0.097694	7.972747	0.231018	0.166260	-0.061218	0.998840	0.027005	-0.000488	0.039848	
43606	    0	24.847269	18.297215	-7.558442	5.175877	0.141766	7.566432	0.241218	0.194066	-0.070829	0.998949	0.025870	0.000709	0.037819	
43607	    0	27.262816	22.410957	-8.404965	4.350181	0.431946	7.004248	0.264343	0.235229	-0.079590	0.999147	0.021745	0.002159	0.035011	
43608	    0	29.111051	27.766993	-7.759392	2.894409	0.596547	6.269184	0.281971	0.287697	-0.074328	0.999399	0.014469	0.002982	0.031340	
43609	    0	24.528148	32.514266	-9.488730	0.837054	0.407654	5.534326	0.235962	0.332153	-0.093994	0.999606	0.004185	0.002038	0.027668	
43610	    0	16.439394	29.779759	-12.058768	-1.181917	0.173587	4.861576	0.156998	0.300954	-0.122499	0.999686	-0.005909	0.000868	0.024305	
43611	    0	11.378744	24.094234	-15.151646	-2.428464	-0.157180	3.961538	0.109131	0.241272	-0.154358	0.999729	-0.012141	-0.000786	0.019806	
43612	    0	9.787093	22.321123	-13.299473	-3.305517	-0.443686	2.937940	0.094900	0.222383	-0.136462	0.999753	-0.016526	-0.002218	0.014688	
43613	    0	8.607240	22.919911	-6.283878	-4.129388	-0.570538	1.882336	0.084106	0.228638	-0.067322	0.999738	-0.020645	-0.002852	0.009411	
43614	    0	6.506447	20.438040	-1.342090	-4.507653	-0.526665	0.761099	0.064330	0.204257	-0.017856	0.999735	-0.022536	-0.002633	0.003805	
43615	    0	5.784600	17.280949	-0.018345	-4.302361	-0.395997	-0.294518	0.058105	0.172668	-0.003784	0.999765	-0.021510	-0.001980	-0.001472	
43616	    0	7.282533	16.128343	0.235275	-3.845476	-0.269908	-1.199613	0.073791	0.160850	-0.000644	0.999796	-0.019226	-0.001349	-0.005998	
43617	    0	7.821178	15.882008	1.387398	-3.268628	-0.172244	-1.906700	0.079712	0.158264	0.011353	0.999820	-0.016342	-0.000861	-0.009533	
43618	    0	6.870200	15.903016	2.239170	-2.912701	-0.104529	-2.514041	0.070685	0.158454	0.020118	0.999814	-0.014563	-0.000523	-0.012569	
43619	    0	5.854326	14.824584	2.101693	-2.995524	-0.191321	-2.983316	0.060730	0.147644	0.018860	0.999776	-0.014977	-0.000957	-0.014915	
43620	    0	6.332903	11.606169	2.256703	-3.296191	-0.312261	-3.219891	0.065157	0.115375	0.020762	0.999733	-0.016479	-0.001561	-0.016098	
43621	    0	6.929749	6.727734	3.987262	-3.492876	-0.330384	-3.223724	0.070312	0.066833	0.038818	0.999716	-0.017463	-0.001652	-0.016117	
43622	    0	5.981808	2.089538	6.052140	-3.553342	-0.272395	-3.129871	0.060064	0.021029	0.060230	0.999719	-0.017765	-0.001362	-0.015648	
43623	    0	13.866750	1.307778	2.580107	-4.096636	-0.736883	-2.638512	0.138733	0.011780	0.026062	0.999696	-0.020481	-0.003684	-0.013191	
43624	    0	-4.051898	4.838519	-25.425058	-2.544366	-1.876182	-2.128539	-0.037633	0.045553	-0.255204	0.999818	-0.012721	-0.009380	-0.010642	
43625	    0	1.897899	58.260013	-106.480892	1.046120	-4.124774	-3.439760	0.050964	0.587463	-1.060913	0.999625	0.005230	-0.020621	-0.017197	
43626	    0	111.315607	81.880990	72.483509	-5.203390	7.552791	-11.936583	1.185770	0.767194	0.660522	0.997168	-0.025992	0.037728	-0.059627	
43627	    0	59.817577	-48.782209	13.155912	-1.912956	-2.190514	-5.001766	0.584229	-0.501221	0.142761	0.999581	-0.009563	-0.010951	-0.025005	
43628	    0	25.053500	3.818373	40.858594	2.463648	-1.274176	-6.390147	0.248866	0.025164	0.410539	0.999393	0.012316	-0.006370	-0.031944	
43629	    0	-10.397236	2.716587	5.248720	1.365191	-1.206274	-6.928209	-0.103271	0.030396	0.052063	0.999358	0.006824	-0.006030	-0.034634	
43630	    0	-4.415500	5.976390	-1.648367	0.403077	0.001335	-5.686767	-0.042432	0.061020	-0.016361	0.999594	0.002015	0.000007	-0.028430	
43631	    0	14.627053	14.324983	-2.779627	0.567692	0.174924	-5.195447	0.149902	0.139465	-0.027527	0.999658	0.002838	0.000875	-0.025974	
43632	    0	1.989625	10.832972	-6.272199	-0.363755	0.244919	-3.921382	0.021936	0.107799	-0.062944	0.999804	-0.001819	0.001225	-0.019606	
43633	    0	10.816139	8.421396	-7.218600	-1.038220	0.477623	-3.202974	0.109314	0.082092	-0.072876	0.999855	-0.005191	0.002388	-0.016014	
43634	    0	17.216688	10.182207	-12.697630	-1.779443	0.659018	-2.624817	0.173052	0.098416	-0.128431	0.999868	-0.008897	0.003295	-0.013124	
43635	    0	20.725696	2.622259	-2.352188	-1.143497	0.902590	-2.552124	0.207458	0.023438	-0.024597	0.999891	-0.005717	0.004513	-0.012760	
43636	    0	20.385717	10.206997	-0.112798	-0.808740	1.085124	-2.335810	0.205019	0.099671	-0.002645	0.999908	-0.004044	0.005425	-0.011679	
43637	    0	23.775953	5.886760	-2.999060	-1.385541	1.187362	-2.048557	0.238159	0.056213	-0.031799	0.999906	-0.006927	0.005937	-0.010242	
43638	    0	27.300326	-3.408862	-0.285145	-1.088740	1.005577	-1.816410	0.272660	-0.036586	-0.004028	0.999930	-0.005444	0.005028	-0.009082	
43639	    0	27.298360	-0.390696	1.719644	-1.386862	0.820177	-1.558718	0.273010	-0.005920	0.016113	0.999937	-0.006934	0.004101	-0.007793	
43640	    0	26.780865	-6.136986	4.736413	-1.835482	0.687805	-1.226071	0.267590	-0.062578	0.047014	0.999932	-0.009177	0.003439	-0.006130	
43641	    0	23.820796	-8.120840	4.010923	-1.934092	0.416002	-1.070427	0.237854	-0.082092	0.040405	0.999936	-0.009670	0.002080	-0.005352	
43642	    0	21.525507	-7.878520	0.606858	-1.903758	0.042535	-0.785842	0.214945	-0.079568	0.006778	0.999947	-0.009519	0.000213	-0.003929	
43643	    0	17.826696	-9.178541	-4.272471	-1.871518	-0.059319	-0.255589	0.178162	-0.092407	-0.041809	0.999955	-0.009357	-0.000297	-0.001278	
43644	    0	16.778982	-11.121767	-2.535489	-1.928741	0.231365	-0.125506	0.167691	-0.111562	-0.024474	0.999952	-0.009644	0.001157	-0.000628	
43645	    0	18.497102	-5.443102	-1.552703	-1.491373	0.547797	-0.415807	0.184814	-0.054932	-0.015625	0.999966	-0.007457	0.002739	-0.002079	
43646	    0	21.406111	2.745812	-1.736023	-1.076139	0.896083	-0.969136	0.214109	0.026323	-0.018463	0.999963	-0.005381	0.004480	-0.004846	
43647	    0	13.670442	9.540000	-6.693032	-1.584495	1.265002	-2.243890	0.137329	0.093323	-0.068542	0.999886	-0.007922	0.006325	-0.011219	
43648	    0	8.376253	13.302893	-7.147435	-1.849104	1.369375	-3.217716	0.085383	0.130992	-0.073273	0.999804	-0.009245	0.006846	-0.016088	
43649	    0	13.764247	27.245038	-9.060578	-1.870729	1.137660	-4.457550	0.143127	0.268433	-0.093933	0.999691	-0.009353	0.005688	-0.022285	
43650	    0	13.575318	10.037362	-7.913998	-1.958085	0.829968	-4.348416	0.137548	0.096611	-0.080667	0.999706	-0.009789	0.004149	-0.021740	
43651	    0	16.874348	3.475854	-6.514677	-1.662587	0.669346	-4.154560	0.169189	0.030701	-0.065979	0.999743	-0.008312	0.003346	-0.020771	
43652	    0	18.636329	-2.534312	-3.827609	-0.944595	0.785700	-4.222829	0.185618	-0.029450	-0.038874	0.999758	-0.004723	0.003928	-0.021112	
43653	    0	18.770160	-5.177193	-1.431260	-0.606591	0.928772	-4.510140	0.186401	-0.056030	-0.015015	0.999730	-0.003033	0.004643	-0.022549	
43654	    0	19.144414	-5.343065	0.130150	-0.619190	1.005278	-4.881418	0.190068	-0.058079	0.000519	0.999684	-0.003096	0.005026	-0.024405	
43655	    0	19.142940	-5.504215	1.391405	-0.903427	1.043252	-5.138240	0.190002	-0.059875	0.013184	0.999646	-0.004517	0.005216	-0.025688	
43656	    0	19.452440	-4.621966	2.386363	-1.356495	1.070545	-5.355206	0.193322	-0.051249	0.023163	0.999604	-0.006782	0.005352	-0.026772	
43657	    0	20.103999	-3.692628	1.787987	-2.001298	1.071327	-5.535188	0.200012	-0.042297	0.017212	0.999552	-0.010005	0.005356	-0.027672	
43658	    0	19.974706	-3.910882	0.511163	-2.599760	1.265924	-5.557015	0.198588	-0.044578	0.004408	0.999509	-0.012997	0.006329	-0.027781	
43659	    0	19.015562	-5.237193	0.538806	-2.708117	1.397362	-5.487962	0.188660	-0.057495	0.004822	0.999507	-0.013538	0.006986	-0.027435	
43660	    0	18.568819	-5.615021	0.117248	-2.589459	1.488548	-5.513522	0.184052	-0.061230	0.000569	0.999508	-0.012945	0.007442	-0.027563	
43661	    0	18.674491	-4.992339	-0.190637	-2.510296	1.626094	-5.555884	0.185242	-0.055115	-0.002747	0.999502	-0.012549	0.008129	-0.027775	
43662	    0	19.092014	-3.681399	-1.190614	-2.178536	1.768391	-5.479724	0.189701	-0.042162	-0.013147	0.999526	-0.010891	0.008841	-0.027394	
43663	    0	19.646741	-3.055104	-1.989085	-1.519798	1.830548	-5.290964	0.195374	-0.035889	-0.021423	0.999578	-0.007598	0.009151	-0.026451	
43664	    0	19.763504	-3.353206	-2.616965	-0.999573	1.780347	-5.022855	0.196465	-0.038612	-0.027738	0.999632	-0.004997	0.008901	-0.025111	
43665	    0	18.441726	-3.614261	-2.986424	-0.562156	1.695433	-4.747518	0.183228	-0.040588	-0.031311	0.999678	-0.002810	0.008476	-0.023735	
43666	    0	16.566733	-3.679611	-2.491520	-0.173967	1.635519	-4.530582	0.164566	-0.040555	-0.026230	0.999709	-0.000870	0.008177	-0.022651	
43667	    0	15.060977	-3.746330	-1.780047	0.175492	1.610901	-4.352961	0.149597	-0.040710	-0.019043	0.999730	0.000877	0.008054	-0.021763	
43668	    0	13.643795	-3.640674	-1.247493	0.548598	1.544505	-4.096554	0.135552	-0.039153	-0.013629	0.999756	0.002743	0.007722	-0.020481	
43669	    0	11.745879	-3.312349	-1.629595	0.981399	1.381017	-3.722641	0.116699	-0.035217	-0.017273	0.999790	0.004907	0.006905	-0.018612	
43670	    0	9.504382	-3.290228	-2.519480	1.331976	1.109567	-3.228177	0.094356	-0.034258	-0.025945	0.999832	0.006660	0.005548	-0.016140	
43671	    0	7.442532	-3.095666	-3.254232	1.718410	0.890392	-2.710849	0.073853	-0.031677	-0.033142	0.999861	0.008592	0.004452	-0.013554	
43672	    0	6.003918	-1.367712	-3.267713	1.950144	0.744465	-2.077559	0.059772	-0.013978	-0.033035	0.999891	0.009750	0.003722	-0.010387	
43673	    0	4.886325	0.668726	-3.312827	1.878400	0.815029	-1.169613	0.048767	0.006714	-0.033264	0.999930	0.009392	0.004075	-0.005848	
43674	    0	2.398695	2.089172	-4.052029	1.727130	0.796712	0.064279	0.023819	0.021249	-0.040433	0.999954	0.008636	0.003983	0.000321	
43675	    0	-1.613476	3.415575	-4.572709	1.125353	0.770008	1.345083	-0.016541	0.034302	-0.045471	0.999953	0.005627	0.003850	0.006725	
43676	    0	-5.938114	4.368064	-4.120329	0.558298	0.724052	2.579388	-0.060087	0.043023	-0.040866	0.999906	0.002791	0.003620	0.012897	
43677	    0	-6.834283	4.895417	-4.765488	0.364897	0.766798	3.621119	-0.069397	0.047791	-0.047302	0.999826	0.001824	0.003834	0.018105	
43678	    0	-4.860387	5.104339	-5.127316	0.077827	0.833204	4.529590	-0.049956	0.049942	-0.051047	0.999734	0.000389	0.004166	0.022646	
43679	    0	-3.202843	3.461000	-5.112852	-0.132005	0.766277	5.399992	-0.033142	0.033691	-0.051025	0.999627	-0.000660	0.003831	0.026997	
43680	    0	-2.257301	-0.103567	-5.018259	-0.048455	0.680844	6.231756	-0.022696	-0.001754	-0.050105	0.999508	-0.000242	0.003404	0.031154	
43681	    0	-0.475519	-2.338788	-4.402860	0.454995	0.673050	6.951034	-0.004089	-0.023438	-0.044067	0.999388	0.002275	0.003365	0.034748	
43682	    0	1.754821	-1.577003	-3.636395	0.923950	0.672501	7.495768	0.017996	-0.014933	-0.036494	0.999281	0.004619	0.003362	0.037470	
43683	    0	3.462923	0.294260	-3.550206	1.143384	0.605175	7.955797	0.034363	0.004517	-0.035583	0.999187	0.005715	0.003025	0.039768	
43684	    0	4.790100	1.232871	-3.430275	1.202943	0.473927	8.372903	0.047242	0.014523	-0.034332	0.999103	0.006013	0.002369	0.041852	
43685	    0	6.012374	1.544999	-3.286580	1.286920	0.277036	8.684279	0.059326	0.018250	-0.032837	0.999035	0.006433	0.001385	0.043407	
43686	    0	6.949177	1.913575	-2.819330	1.347621	0.135277	8.957874	0.068518	0.022409	-0.028096	0.998974	0.006736	0.000676	0.044774	
43687	    0	7.384375	2.661114	-2.042782	1.288494	0.061057	9.176867	0.072510	0.030090	-0.020264	0.998926	0.006440	0.000305	0.045868	
43688	    0	8.238766	3.255567	-1.686108	1.190443	-0.015265	9.432148	0.080729	0.036489	-0.016645	0.998870	0.005950	-0.000076	0.047143	
43689	    0	10.236291	2.714102	-1.218334	1.029611	-0.005152	9.666434	0.100891	0.032104	-0.012024	0.998818	0.005146	-0.000026	0.048313	
43690	    0	12.340855	1.784610	-1.528808	1.113776	-0.131470	9.855495	0.122337	0.023978	-0.015085	0.998770	0.005567	-0.000657	0.049257	
43691	    0	14.458923	1.393558	-1.310953	1.332842	-0.316753	9.939930	0.143677	0.021179	-0.012756	0.998741	0.006661	-0.001583	0.049679	
43692	    0	16.183799	1.552558	-1.254014	1.788717	-0.619582	9.977240	0.160830	0.023676	-0.011853	0.998711	0.008940	-0.003097	0.049865	
43693	    0	18.404237	3.165686	-1.237875	2.055501	-0.830253	10.038600	0.182190	0.040955	-0.011230	0.998679	0.010273	-0.004149	0.050171	
43694	    0	21.410436	6.126174	-0.680572	2.178773	-0.886546	10.026976	0.210700	0.071947	-0.005121	0.998673	0.010889	-0.004431	0.050113	
43695	    0	24.880127	8.708519	-0.690706	2.456200	-0.894361	9.840065	0.244141	0.099243	-0.004639	0.998704	0.012276	-0.004470	0.049179	
43696	    0	27.279587	10.563880	-1.460515	3.073846	-0.960183	9.539055	0.267402	0.118675	-0.011555	0.998733	0.015363	-0.004799	0.047675	
43697	    0	29.127330	12.796959	-3.706366	3.739400	-1.028111	9.256814	0.285095	0.141907	-0.033020	0.998741	0.018689	-0.005138	0.046265	
43698	    0	30.949347	16.105623	-5.154022	3.858954	-0.860556	8.925548	0.302080	0.175587	-0.046934	0.998809	0.019287	-0.004301	0.044610	
43699	    0	32.371756	19.664199	-5.147138	3.622199	-0.618010	8.476983	0.315125	0.210999	-0.046753	0.998933	0.018105	-0.003089	0.042370	
43700	    0	33.867113	24.068498	-4.125791	3.079194	-0.306031	7.904709	0.328854	0.254405	-0.036902	0.999099	0.015391	-0.001530	0.039512	
43701	    0	32.945294	30.026558	-3.705696	2.100280	-0.193831	7.102302	0.318542	0.312073	-0.033508	0.999313	0.010499	-0.000969	0.035503	
43702	    0	26.283314	32.623388	-6.600646	0.883622	-0.074017	6.062884	0.252804	0.334287	-0.064446	0.999530	0.004417	-0.000370	0.030310	
43703	    0	16.530933	28.430868	-14.225654	0.241114	-0.232530	5.022198	0.158264	0.288513	-0.141724	0.999682	0.001205	-0.001163	0.025108	
43704	    0	13.094769	26.717990	-15.932607	-0.295468	-0.342202	4.022491	0.125815	0.269509	-0.159505	0.999795	-0.001477	-0.001711	0.020111	
43705	    0	10.375208	33.735738	-9.211809	-1.859182	-0.569180	2.792493	0.099304	0.337891	-0.094971	0.999855	-0.009295	-0.002846	0.013962	
43706	    0	5.310102	32.853409	-3.441847	-3.058768	-0.685533	1.216755	0.051232	0.328274	-0.039263	0.999858	-0.015293	-0.003428	0.006083	
43707	    0	2.062725	31.147537	1.861921	-3.794332	-0.469809	-0.454740	0.021301	0.311707	0.012756	0.999814	-0.018970	-0.002349	-0.002274	
43708	    0	2.662839	25.254911	0.306531	-3.660277	0.054554	-2.004387	0.029158	0.252265	-0.001561	0.999782	-0.018300	0.000273	-0.010021	
43709	    0	6.749013	20.179244	-0.455135	-3.099117	0.420413	-3.064973	0.070557	0.200623	-0.007812	0.999760	-0.015494	0.002102	-0.015324	
43710	    0	9.679481	19.532252	-1.945330	-2.406892	0.345259	-3.737950	0.100383	0.193214	-0.021958	0.999751	-0.012033	0.001726	-0.018688	
43711	    0	11.489454	17.714317	-1.226769	-2.070805	0.233671	-4.162974	0.118530	0.174561	-0.014221	0.999728	-0.010353	0.001168	-0.020813	
43712	    0	10.214960	16.505273	-0.254515	-2.259506	-0.057608	-4.652733	0.105952	0.162575	-0.004361	0.999665	-0.011296	-0.000288	-0.023261	
43713	    0	10.216554	11.722748	2.209354	-2.832791	-0.306552	-4.893766	0.104965	0.114981	0.020614	0.999599	-0.014162	-0.001533	-0.024466	
43714	    0	9.174910	4.567691	4.541379	-2.849184	-0.499790	-4.756779	0.092698	0.044123	0.045009	0.999612	-0.014244	-0.002499	-0.023781	
43715	    0	10.225752	1.614686	2.368104	-3.187183	-0.823883	-4.263058	0.102478	0.014343	0.023865	0.999637	-0.015934	-0.004119	-0.021313	
43716	    0	-5.330628	-1.380509	-41.245931	-0.477264	-3.515004	-3.186337	-0.046269	-0.014016	-0.413280	0.999716	-0.002386	-0.017573	-0.015930	
43717	    0	20.871729	71.741265	-92.511169	0.395265	0.279471	-6.145687	0.229370	0.712402	-0.924011	0.999524	0.001976	0.001397	-0.030724	
43718	    0	115.648828	19.528634	95.470866	-3.174198	4.127183	-9.350470	1.183709	0.155224	0.927785	0.998569	-0.015863	0.020626	-0.046730	
43719	    0	54.104290	-31.042758	7.868437	1.397384	-2.209107	-6.026779	0.530457	-0.327087	0.082336	0.999460	0.006986	-0.011044	-0.030128	
43720	    0	9.917996	20.584158	29.744288	3.562499	-2.451126	-7.434657	0.102921	0.196705	0.302248	0.999075	0.017807	-0.012252	-0.037162	
43721	    0	-20.865746	-8.227397	-5.274201	1.408648	-1.390143	-6.376306	-0.210754	-0.075195	-0.054749	0.999442	0.007042	-0.006949	-0.031876	
43722	    0	5.595140	20.709038	-2.883598	0.569816	-0.036436	-6.148361	0.062287	0.205321	-0.028238	0.999523	0.002849	-0.000182	-0.030737	
43723	    0	6.412210	10.793914	-2.184381	0.243399	0.045208	-4.623063	0.066589	0.106445	-0.021729	0.999732	0.001217	0.000226	-0.023113	
43724	    0	8.999089	8.913316	-9.325563	-0.864466	0.213446	-3.837261	0.091574	0.086982	-0.093732	0.999805	-0.004322	0.001067	-0.019185	
43725	    0	13.053179	7.731969	-13.271610	-1.660049	0.218212	-3.041229	0.131531	0.074219	-0.133484	0.999849	-0.008300	0.001091	-0.015205	
43726	    0	18.871575	3.303448	-2.418051	-0.805314	0.494023	-2.928277	0.189111	0.030169	-0.024773	0.999881	-0.004026	0.002470	-0.014641	
43727	    0	18.425600	11.682918	0.036386	-0.641655	0.586912	-2.774146	0.185852	0.114258	-0.000549	0.999894	-0.003208	0.002934	-0.013870	
43728	    0	19.572169	10.435933	-1.307002	-0.900677	0.671598	-2.429653	0.196923	0.101910	-0.014193	0.999910	-0.004503	0.003358	-0.012148	
43729	    0	25.229652	0.784765	0.681175	-0.560010	0.547994	-2.218679	0.252380	0.005066	0.006104	0.999930	-0.002800	0.002740	-0.011093	
43730	    0	27.101537	2.139122	0.757560	-0.685514	0.370033	-1.971091	0.271222	0.018744	0.007007	0.999944	-0.003428	0.001850	-0.009855	
43731	    0	27.087922	-3.770361	5.412948	-1.268789	0.175670	-1.528193	0.270630	-0.039429	0.054138	0.999949	-0.006344	0.000878	-0.007641	
43732	    0	24.757899	-3.158363	6.623789	-1.548222	-0.032425	-1.327728	0.247354	-0.032712	0.066528	0.999948	-0.007741	-0.000162	-0.006639	
43733	    0	24.643437	-4.704815	5.938276	-2.079058	-0.296600	-1.059747	0.246094	-0.047729	0.060242	0.999930	-0.010395	-0.001483	-0.005299	
43734	    0	20.510915	-4.822298	2.829625	-2.620780	-0.675223	-0.478760	0.204895	-0.048331	0.029621	0.999906	-0.013103	-0.003376	-0.002394	
43735	    0	17.236025	-7.779418	-0.260524	-3.108918	-0.627925	-0.003815	0.172363	-0.077820	-0.000854	0.999874	-0.015544	-0.003139	-0.000019	
43736	    0	15.607703	-9.677835	-0.575552	-3.129707	-0.318731	0.070384	0.156118	-0.096795	-0.003992	0.999876	-0.015648	-0.001594	0.000352	
43737	    0	17.391566	-2.791900	0.075114	-2.367457	0.122264	-0.193028	0.173889	-0.028076	0.000977	0.999928	-0.011837	0.000611	-0.000965	
43738	    0	20.448710	6.226877	-1.608802	-1.853596	0.617611	-0.784316	0.204677	0.061310	-0.017291	0.999944	-0.009268	0.003088	-0.003922	
43739	    0	16.388852	11.753307	-6.422566	-2.688736	0.980618	-2.016552	0.164734	0.114990	-0.066589	0.999846	-0.013443	0.004903	-0.010082	
43740	    0	10.042148	15.543578	-10.816964	-2.393872	0.834136	-2.919951	0.102206	0.152639	-0.110432	0.999813	-0.011969	0.004170	-0.014599	
43741	    0	12.778000	26.460896	-11.799630	-2.403493	0.576266	-4.155373	0.132874	0.260437	-0.121521	0.999707	-0.012016	0.002881	-0.020775	
43742	    0	14.860739	10.348846	-8.727593	-2.530540	0.441404	-4.151566	0.150502	0.099259	-0.088881	0.999701	-0.012651	0.002207	-0.020756	
43743	    0	17.873511	5.236560	-6.393803	-1.958624	0.441205	-3.921826	0.179565	0.048218	-0.064819	0.999757	-0.009792	0.002206	-0.019608	
43744	    0	18.192881	-1.145435	-3.616474	-1.152118	0.459512	-3.878098	0.181575	-0.015187	-0.036502	0.999792	-0.005760	0.002297	-0.019389	
43745	    0	17.036601	-4.672092	-1.366207	-0.687269	0.498237	-4.154517	0.169312	-0.050293	-0.013916	0.999775	-0.003436	0.002491	-0.020771	
43746	    0	15.691152	-4.746762	0.299204	-0.698532	0.574925	-4.489147	0.155802	-0.050963	0.002717	0.999738	-0.003492	0.002874	-0.022444	
43747	    0	16.181386	-4.150318	1.659290	-1.016908	0.645511	-4.724589	0.160828	-0.045227	0.016296	0.999702	-0.005084	0.003227	-0.023621	
43748	    0	16.966931	-3.380902	2.545565	-1.459666	0.693780	-4.922082	0.168859	-0.037787	0.025135	0.999664	-0.007298	0.003469	-0.024608	
43749	    0	17.461804	-3.396302	2.319508	-2.189922	0.744917	-5.097101	0.173767	-0.038147	0.022949	0.999608	-0.010948	0.003724	-0.025482	
43750	    0	17.714598	-4.402384	0.914904	-2.916016	0.953819	-5.203657	0.175966	-0.048481	0.008993	0.999543	-0.014578	0.004768	-0.026014	
43751	    0	17.884784	-5.857243	0.831494	-2.932236	1.236915	-5.169709	0.177307	-0.063049	0.008118	0.999538	-0.014659	0.006184	-0.025845	
43752	    0	19.160237	-7.738494	1.177043	-2.551272	1.569030	-5.210707	0.189592	-0.082196	0.011306	0.999548	-0.012754	0.007844	-0.026050	
43753	    0	19.856143	-6.611526	0.093902	-1.922695	1.691682	-5.307775	0.196716	-0.071350	-0.000061	0.999565	-0.009612	0.008457	-0.026535	
43754	    0	20.174089	-4.656186	-1.292483	-1.190541	1.774271	-5.357340	0.200273	-0.052023	-0.014407	0.999584	-0.005952	0.008870	-0.026783	
43755	    0	20.518202	-3.397793	-2.283568	-0.512762	1.758232	-5.273359	0.203979	-0.039429	-0.024536	0.999610	-0.002563	0.008790	-0.026363	
43756	    0	20.451494	-2.345678	-3.300667	0.132005	1.586916	-5.157715	0.203549	-0.028692	-0.034642	0.999636	0.000660	0.007934	-0.025785	
43757	    0	19.351732	-1.320980	-4.120115	0.552432	1.404923	-5.025296	0.192810	-0.017944	-0.042603	0.999656	0.002762	0.007024	-0.025124	
43758	    0	17.685539	-0.856253	-3.732452	0.690153	1.235333	-4.898220	0.176342	-0.012754	-0.038454	0.999675	0.003450	0.006176	-0.024488	
43759	    0	16.578852	-0.935118	-2.577337	0.667069	1.185731	-4.811597	0.165344	-0.013245	-0.026794	0.999687	0.003335	0.005928	-0.024055	
43760	    0	15.143416	-1.394452	-1.756123	0.573596	1.051051	-4.681852	0.150958	-0.017430	-0.018402	0.999707	0.002868	0.005255	-0.023407	
43761	    0	13.234999	-1.241515	-1.908397	0.679837	0.788375	-4.405589	0.131958	-0.015259	-0.019653	0.999743	0.003399	0.003942	-0.022026	
43762	    0	12.020173	-0.930878	-2.572662	0.722172	0.595515	-3.938944	0.119911	-0.011579	-0.026123	0.999795	0.003611	0.002977	-0.019693	
43763	    0	11.228173	-0.825800	-2.240001	0.733411	0.591307	-3.272405	0.112061	-0.010010	-0.022766	0.999855	0.003667	0.002956	-0.016361	
43764	    0	9.880652	-0.206370	-2.674768	0.854705	0.553909	-2.290595	0.098701	-0.003079	-0.027033	0.999921	0.004273	0.002769	-0.011453	
43765	    0	7.009220	0.997901	-4.330907	0.897225	0.374035	-1.164257	0.070068	0.009766	-0.043396	0.999970	0.004486	0.001870	-0.005821	
43766	    0	3.103684	2.456125	-4.235974	0.448037	0.242424	-0.103378	0.030998	0.024640	-0.042342	0.999996	0.002240	0.001212	-0.000517	
43767	    0	-1.354345	3.920883	-4.471441	0.166321	0.059700	0.898746	-0.013733	0.039185	-0.044678	0.999990	0.000832	0.000299	0.004494	
43768	    0	-4.094621	3.878385	-4.476395	-0.094034	0.075914	1.836993	-0.041317	0.038384	-0.044766	0.999957	-0.000470	0.000380	0.009185	
43769	    0	-4.843963	3.095592	-4.069232	-0.334178	0.134472	2.771849	-0.048889	0.030212	-0.040710	0.999902	-0.001671	0.000672	0.013859	
43770	    0	-4.267994	1.123249	-3.719054	-0.400186	0.073247	3.772771	-0.042894	0.010350	-0.037196	0.999820	-0.002001	0.000366	0.018863	
43771	    0	-3.807680	-1.145222	-3.479331	-0.224135	-0.054174	4.745930	-0.037781	-0.012390	-0.034790	0.999718	-0.001121	-0.000271	0.023727	
43772	    0	-3.959644	-2.996503	-3.379759	0.265920	-0.136394	5.650511	-0.038707	-0.031022	-0.033865	0.999599	0.001329	-0.000682	0.028249	
43773	    0	-3.823899	-2.593008	-3.634965	0.914926	-0.146320	6.449505	-0.037354	-0.026978	-0.036499	0.999469	0.004574	-0.000731	0.032242	
43774	    0	-2.528320	-0.624247	-4.133417	1.481962	-0.132018	7.199955	-0.025017	-0.006840	-0.041400	0.999324	0.007408	-0.000660	0.035992	
43775	    0	-0.904256	0.147116	-3.473974	1.680642	-0.027473	7.914604	-0.009094	0.001404	-0.034729	0.999182	0.008401	-0.000137	0.039562	
43776	    0	0.834803	-0.862817	-2.860019	2.040945	0.086240	8.532208	0.008685	-0.007970	-0.028687	0.999038	0.010201	0.000431	0.042647	
43777	    0	3.295297	-0.745350	-3.590611	2.625470	0.144439	8.983076	0.033203	-0.005493	-0.036011	0.998904	0.013123	0.000722	0.044899	
43778	    0	5.717143	-0.497989	-3.028624	2.677244	0.267705	9.290120	0.057267	-0.001914	-0.030402	0.998831	0.013381	0.001338	0.046432	
43779	    0	7.725480	-0.013023	-2.773936	2.582265	0.325908	9.531464	0.077087	0.003906	-0.027832	0.998779	0.012906	0.001629	0.047638	
43780	    0	9.427884	-0.196107	-2.911817	2.529258	0.326294	9.733873	0.094166	0.002995	-0.029255	0.998734	0.012641	0.001631	0.048649	
43781	    0	11.482592	-0.738946	-3.381193	2.599913	0.353397	9.966110	0.114929	-0.001221	-0.034058	0.998672	0.012994	0.001766	0.049809	
43782	    0	13.797559	-0.157174	-3.610692	2.859323	0.264865	10.257420	0.137749	0.006017	-0.036240	0.998582	0.014290	0.001324	0.051263	
43783	    0	16.046164	1.439716	-3.211686	2.886866	0.198653	10.507825	0.159363	0.023254	-0.031982	0.998515	0.014427	0.000993	0.052513	
43784	    0	17.857124	3.490476	-1.813492	2.738415	0.209723	10.609213	0.176359	0.044547	-0.017755	0.998499	0.013685	0.001048	0.053020	
43785	    0	19.923899	4.713836	-0.838922	2.732886	0.166404	10.630795	0.196350	0.057739	-0.007812	0.998493	0.013658	0.000832	0.053127	
43786	    0	23.088027	5.598886	-1.100184	2.907490	0.154954	10.559019	0.227485	0.068215	-0.010246	0.998500	0.014530	0.000774	0.052769	
43787	    0	26.890711	7.538885	-2.742816	3.521979	0.097896	10.423959	0.264465	0.089722	-0.026062	0.998487	0.017601	0.000489	0.052094	
43788	    0	30.479079	10.774804	-4.794839	4.196945	0.259148	10.158505	0.298705	0.124005	-0.045849	0.998488	0.020974	0.001295	0.050767	
43789	    0	32.443442	15.975296	-7.133743	4.983150	0.503028	9.739975	0.315918	0.177002	-0.067871	0.998501	0.024903	0.002514	0.048676	
43790	    0	32.448153	22.314467	-8.692990	5.502329	0.672477	9.284155	0.313313	0.240160	-0.081543	0.998538	0.027498	0.003361	0.046398	
43791	    0	32.247385	27.193065	-8.594519	5.273662	0.699160	8.798278	0.309753	0.287903	-0.079590	0.998678	0.026357	0.003494	0.043972	
43792	    0	31.761533	30.534216	-7.358166	4.608813	0.567062	7.900141	0.304991	0.319157	-0.067208	0.998950	0.023036	0.002834	0.039487	
43793	    0	27.748983	34.962898	-12.145521	3.428886	0.288459	6.687978	0.265381	0.360657	-0.115723	0.999292	0.017140	0.001442	0.033432	
43794	    0	20.428632	34.680077	-20.671754	1.804799	-0.067339	5.559378	0.194578	0.354146	-0.203477	0.999573	0.009023	-0.000337	0.027793	
43795	    0	14.524450	36.332613	-22.565744	-0.286697	-0.499765	4.310185	0.137939	0.366028	-0.225830	0.999763	-0.001433	-0.002499	0.021549	
43796	    0	12.106354	44.586885	-10.496594	-3.091474	-0.838915	2.814315	0.115248	0.445829	-0.111366	0.999772	-0.015456	-0.004194	0.014071	
43797	    0	9.925581	43.647576	0.159347	-5.277910	-0.843725	1.162865	0.096741	0.436890	-0.009521	0.999625	-0.026386	-0.004218	0.005814	
43798	    0	5.309316	35.674382	-0.236934	-5.702235	-0.463168	-0.672433	0.054313	0.356304	-0.012408	0.999585	-0.028507	-0.002316	-0.003362	
43799	    0	2.997088	26.812887	-2.806634	-5.078573	-0.029758	-2.094532	0.032776	0.266968	-0.034851	0.999622	-0.025390	-0.000149	-0.010471	
43800	    0	8.791311	19.610345	-2.588055	-3.967720	0.425195	-3.225871	0.090994	0.194085	-0.029936	0.999670	-0.019836	0.002126	-0.016128	
43801	    0	10.776777	19.417279	-0.547999	-3.264056	0.522676	-4.226429	0.111816	0.191711	-0.008911	0.999640	-0.016318	0.002613	-0.021130	
43802	    0	10.453294	17.155885	-0.942465	-3.294468	0.263634	-4.877796	0.108657	0.168755	-0.012362	0.999566	-0.016470	0.001318	-0.024385	
43803	    0	11.125447	12.999297	-0.667123	-3.996797	-0.020603	-5.170598	0.114563	0.126892	-0.009216	0.999466	-0.019980	-0.000103	-0.025848	
43804	    0	13.068442	6.409119	1.150647	-4.631781	-0.214429	-5.160604	0.132273	0.060938	0.010212	0.999398	-0.023154	-0.001072	-0.025798	
43805	    0	14.562577	-4.221360	-13.083265	-4.984475	-1.306212	-4.405293	0.145447	-0.048645	-0.128723	0.999425	-0.024918	-0.006530	-0.022022	
43806	    0	2.960404	-24.353602	-57.481753	-2.165273	-3.807303	-2.764439	0.037077	-0.250214	-0.571474	0.999664	-0.010825	-0.019034	-0.013821	
43807	    0	58.435715	87.911575	-37.016498	-1.586076	4.022626	-9.241679	0.616333	0.848083	-0.389160	0.998698	-0.007927	0.020104	-0.046188	
43808	    0	88.456624	8.605096	60.007694	-2.341413	0.645697	-9.324438	0.889440	0.051647	0.596471	0.998839	-0.011703	0.003227	-0.046604	
