// Start Time: Unknown
// Update Rate: 100.0Hz
// Filter Profile: human (34.3)
// Firmware Version: 2.1.4
PacketCounter	SampleTimeFine	Acc_X	Acc_Y	Acc_Z	Gyr_X	Gyr_Y	Gyr_Z	VelInc_X	VelInc_Y	VelInc_Z	OriInc_q0	OriInc_q1	OriInc_q2	OriInc_q3	
54163	    0	12.899583	11.752863	-4.685850	1.269885	-0.811872	-5.338972	0.132263	0.114319	-0.045593	0.999615	0.006349	-0.004059	-0.026691	
54164	    0	8.886878	5.777728	-6.644057	-0.055317	-0.729233	-4.140396	0.090281	0.055900	-0.066129	0.999779	-0.000277	-0.003646	-0.020700	
54165	    0	2.003606	4.153534	-15.069486	-0.929314	-0.639952	-3.535664	0.021240	0.040466	-0.150818	0.999827	-0.004646	-0.003200	-0.017677	
54166	    0	11.130237	10.597971	-8.940460	-1.337312	-0.059703	-3.269556	0.113035	0.103540	-0.090069	0.999844	-0.006686	-0.000299	-0.016347	
54167	    0	14.549534	5.176207	-2.982597	-0.565358	0.167280	-2.816870	0.146179	0.049622	-0.030090	0.999896	-0.002827	0.000836	-0.014084	
54168	    0	18.421187	12.333301	-6.263486	-0.713178	0.503555	-2.484775	0.185564	0.120808	-0.063535	0.999913	-0.003566	0.002518	-0.012424	
54169	    0	20.704453	4.244400	-7.864841	-0.877210	0.500500	-2.104235	0.207275	0.039917	-0.079346	0.999931	-0.004386	0.002502	-0.010521	
54170	    0	25.684973	1.785866	-4.798605	-0.539410	0.536739	-2.128074	0.256889	0.014995	-0.048718	0.999936	-0.002697	0.002684	-0.010640	
54171	    0	28.884784	1.709659	0.160253	-0.826089	0.389870	-1.993601	0.289001	0.014221	0.000977	0.999939	-0.004130	0.001949	-0.009968	
54172	    0	25.999060	0.792557	3.865738	-1.118108	0.266843	-1.759943	0.260099	0.005852	0.038274	0.999945	-0.005590	0.001334	-0.008800	
54173	    0	23.990075	-1.707116	4.479702	-1.734206	0.027657	-1.765487	0.239746	-0.018799	0.044922	0.999923	-0.008671	0.000138	-0.008827	
54174	    0	23.190263	-5.933245	8.071357	-2.024512	-0.169758	-1.418150	0.231409	-0.060152	0.081516	0.999923	-0.010122	-0.000849	-0.007091	
54175	    0	20.097848	-2.894558	7.135082	-2.899285	-0.433176	-0.962868	0.200684	-0.028870	0.072205	0.999881	-0.014496	-0.002166	-0.004814	
54176	    0	17.914460	-7.155450	4.316064	-3.772401	-0.552784	-0.771571	0.178746	-0.071407	0.045003	0.999810	-0.018861	-0.002764	-0.003858	
54177	    0	17.718249	-13.038672	-0.183253	-3.765149	-0.391412	-0.742386	0.176697	-0.131042	0.000977	0.999813	-0.018825	-0.001957	-0.003712	
54178	    0	19.156019	-14.456130	0.033169	-2.682586	0.042345	-0.960192	0.190864	-0.145457	0.002238	0.999898	-0.013412	0.000212	-0.004801	
54179	    0	16.032067	-9.599919	0.397550	-1.335931	0.513658	-1.496914	0.159607	-0.097168	0.004211	0.999946	-0.006680	0.002568	-0.007484	
54180	    0	14.058564	-3.886600	-0.782541	0.174336	1.007680	-2.365941	0.140071	-0.040518	-0.008567	0.999916	0.000872	0.005038	-0.011829	
54181	    0	11.442971	2.882128	-5.165426	1.078305	1.506155	-3.817272	0.114563	0.026917	-0.052368	0.999775	0.005391	0.007530	-0.019085	
54182	    0	9.497501	4.558463	-7.278214	0.865278	1.729030	-5.027616	0.095453	0.043506	-0.073415	0.999637	0.004326	0.008644	-0.025135	
54183	    0	18.754803	11.987059	-11.462358	1.512384	1.320284	-5.815279	0.190186	0.115234	-0.114990	0.999526	0.007561	0.006600	-0.029072	
54184	    0	22.933091	7.425467	-4.955205	1.140031	1.400811	-6.219807	0.231145	0.067371	-0.050770	0.999475	0.005699	0.007003	-0.031094	
54185	    0	26.664157	-1.633014	-0.114006	1.089863	1.162928	-6.357950	0.265930	-0.024780	-0.002808	0.999462	0.005448	0.005814	-0.031784	
54186	    0	29.055189	-3.712052	1.534343	1.303378	1.046976	-6.945561	0.289102	-0.047271	0.013541	0.999362	0.006516	0.005234	-0.034720	
54187	    0	31.789437	-4.721924	1.282762	0.821296	0.982121	-7.192304	0.315979	-0.058655	0.011047	0.999332	0.004106	0.004910	-0.035954	
54188	    0	35.987387	-8.505243	0.590048	-0.358470	0.709308	-7.224910	0.356508	-0.097964	0.004800	0.999339	-0.001792	0.003546	-0.036117	
54189	    0	34.406770	-12.902477	-1.330928	-1.629022	0.365524	-6.849563	0.339355	-0.140808	-0.012817	0.999378	-0.008143	0.001827	-0.034241	
54190	    0	26.744776	-17.564386	-1.570660	-2.707994	0.049410	-6.170487	0.261853	-0.183972	-0.013318	0.999432	-0.013537	0.000247	-0.030847	
54191	    0	21.279800	-16.906130	-2.964946	-3.111833	-0.149373	-5.829155	0.207764	-0.175598	-0.026794	0.999454	-0.015556	-0.000747	-0.029140	
54192	    0	18.569891	-14.747492	-5.708063	-3.379261	-0.309616	-5.471984	0.181641	-0.153415	-0.054238	0.999481	-0.016893	-0.001548	-0.027355	
54193	    0	20.700767	-11.236656	-5.688825	-3.628359	-0.085272	-5.030103	0.204102	-0.118530	-0.054688	0.999518	-0.018139	-0.000426	-0.025146	
54194	    0	25.423484	-9.888240	-5.663789	-3.314055	0.265727	-4.389173	0.251896	-0.105351	-0.055264	0.999620	-0.016568	0.001328	-0.021943	
54195	    0	25.293513	-12.727038	-4.809579	-2.086581	0.256364	-3.286189	0.250732	-0.131897	-0.047058	0.999809	-0.010432	0.001282	-0.016430	
54196	    0	20.121679	-13.865118	-5.885009	-0.756849	-0.021935	-1.881822	0.199905	-0.140758	-0.058298	0.999949	-0.003784	-0.000110	-0.009409	
54197	    0	14.647955	-10.941687	-4.211216	-0.066376	-0.114250	-0.591279	0.146179	-0.109863	-0.041992	0.999995	-0.000332	-0.000571	-0.002956	
54198	    0	10.014725	-8.040774	-1.753706	0.004578	-0.436784	0.764277	0.100492	-0.080024	-0.017320	0.999990	0.000023	-0.002184	0.003821	
54199	    0	3.118264	-5.151969	-1.765663	-0.455294	-0.530255	2.222493	0.031799	-0.051208	-0.017456	0.999931	-0.002276	-0.002651	0.011112	
54200	    0	0.299989	-4.013557	-0.030128	-0.123413	-0.598180	3.727372	0.003748	-0.040071	-0.000266	0.999822	-0.000617	-0.002991	0.018636	
54201	    0	-0.755433	-3.419421	-2.778650	0.468495	-0.760542	4.999317	-0.006592	-0.034302	-0.027893	0.999677	0.002342	-0.003802	0.024994	
54202	    0	0.474011	-2.981233	-4.686874	0.422734	-0.739021	6.035595	0.005808	-0.029549	-0.046911	0.999536	0.002113	-0.003695	0.030173	
54203	    0	1.653096	-2.988463	-4.923982	0.172651	-0.817277	6.987678	0.017761	-0.029236	-0.049194	0.999380	0.000863	-0.004086	0.034931	
54204	    0	2.113275	-1.949855	-4.888517	0.160069	-0.898982	7.947943	0.022103	-0.018594	-0.048802	0.999200	0.000800	-0.004494	0.039729	
54205	    0	3.514979	-0.372044	-3.777818	0.114669	-1.029545	8.836991	0.035461	-0.002136	-0.037598	0.999010	0.000573	-0.005146	0.044170	
54206	    0	5.618899	-2.298304	-2.877459	0.164667	-1.116794	9.469378	0.057351	-0.020262	-0.028474	0.998863	0.000823	-0.005582	0.047329	
54207	    0	8.176830	-4.768594	-2.117903	0.607550	-1.205750	9.848262	0.084106	-0.043518	-0.020813	0.998765	0.003036	-0.006026	0.049221	
54208	    0	11.442951	-5.800085	-2.013056	1.118204	-1.224109	10.201798	0.117305	-0.051953	-0.019720	0.998665	0.005589	-0.006118	0.050986	
54209	    0	14.980788	-4.684388	-1.846608	1.386157	-1.230252	10.518304	0.152100	-0.038757	-0.017822	0.998574	0.006927	-0.006148	0.052567	
54210	    0	18.168670	-2.182247	-0.415298	1.373979	-1.165974	10.817989	0.182531	-0.011937	-0.003195	0.998496	0.006866	-0.005827	0.054063	
54211	    0	20.677903	1.239657	-0.217934	1.377249	-1.329731	11.001198	0.205688	0.023743	-0.000671	0.998442	0.006883	-0.006645	0.054977	
54212	    0	24.310588	5.333999	-0.444169	1.296347	-1.359514	11.105303	0.239668	0.066736	-0.002400	0.998414	0.006478	-0.006794	0.055497	
54213	    0	28.140117	10.088335	-0.268470	1.680307	-1.350352	11.045562	0.275269	0.116211	0.000122	0.998417	0.008397	-0.006748	0.055199	
54214	    0	30.795690	16.517314	-2.120415	2.271670	-1.270562	10.769248	0.298587	0.181636	-0.017285	0.998466	0.011353	-0.006350	0.053819	
54215	    0	31.974019	25.379610	-2.207795	2.721898	-1.010407	10.113613	0.306458	0.269775	-0.016907	0.998616	0.013603	-0.005050	0.050545	
54216	    0	30.135349	33.164431	-1.302776	2.959277	-0.853685	9.243616	0.285641	0.345222	-0.006743	0.998813	0.014791	-0.004267	0.046200	
54217	    0	30.551572	36.861125	-0.875733	2.920708	-0.674464	8.253842	0.289978	0.380859	-0.002258	0.999036	0.014599	-0.003371	0.041256	
54218	    0	30.283012	44.329540	-3.119267	2.668237	-0.593705	6.947223	0.287265	0.453811	-0.024316	0.999303	0.013338	-0.002968	0.034728	
54219	    0	19.937492	50.590364	-8.741942	1.820626	-0.656028	5.435935	0.185791	0.511841	-0.082153	0.999583	0.009102	-0.003280	0.027176	
54220	    0	11.187696	49.798034	-13.404480	1.059594	-0.878195	3.491416	0.103733	0.500538	-0.130930	0.999824	0.005298	-0.004391	0.017456	
54221	    0	8.998070	53.392230	-9.306005	0.054360	-0.880443	1.506062	0.086365	0.534607	-0.092529	0.999962	0.000272	-0.004402	0.007530	
54222	    0	5.188959	51.863691	-0.980036	-0.739864	-0.792507	-0.178147	0.052395	0.518550	-0.011512	0.999985	-0.003699	-0.003963	-0.000891	
54223	    0	1.882642	46.099261	2.390168	-1.157211	-0.623334	-1.712832	0.022705	0.460938	0.021301	0.999941	-0.005786	-0.003117	-0.008564	
54224	    0	4.773459	36.556629	3.553722	-1.323949	-0.430317	-2.939354	0.053029	0.365038	0.033230	0.999867	-0.006619	-0.002151	-0.014696	
54225	    0	17.247850	26.043543	1.908454	-1.386354	-1.019928	-3.621153	0.177063	0.257385	0.018188	0.999799	-0.006931	-0.005099	-0.018105	
54226	    0	8.056406	10.770485	-2.312402	-1.317704	-0.268958	-4.211006	0.082837	0.105822	-0.023715	0.999755	-0.006588	-0.001345	-0.021053	
54227	    0	20.994272	-34.342137	-22.994652	0.533317	-0.797115	-3.032049	0.205627	-0.345947	-0.230042	0.999873	0.002666	-0.003985	-0.015160	
54228	    0	61.414628	38.521025	-44.485725	6.275240	-0.917588	-7.053158	0.629534	0.376837	-0.430078	0.998875	0.031364	-0.004586	-0.035253	
54229	    0	89.072361	127.371853	74.464577	-1.299415	1.989777	-12.613943	0.976074	1.218689	0.727173	0.997941	-0.006493	0.009942	-0.063026	
54230	    0	26.057137	-51.030454	4.606617	-1.143469	-4.327783	-4.770367	0.247190	-0.516012	0.054452	0.999465	-0.005716	-0.021635	-0.023848	
54231	    0	-23.129665	5.699960	19.048003	1.377621	-2.257307	-7.042829	-0.231262	0.063843	0.188293	0.999292	0.006886	-0.011284	-0.035206	
54232	    0	-0.600295	14.636421	1.970091	0.510875	-0.772798	-6.312296	-0.001459	0.146407	0.020063	0.999491	0.002554	-0.003863	-0.031556	
54233	    0	14.795109	15.845469	-6.038122	0.906475	-0.865844	-5.063440	0.152161	0.154907	-0.059021	0.999660	0.004532	-0.004329	-0.025314	
54234	    0	7.776974	2.289267	-4.545375	-0.063519	-0.887929	-3.880185	0.078395	0.021361	-0.045114	0.999802	-0.000318	-0.004439	-0.019400	
54235	    0	5.100926	6.200615	-17.068117	-0.964979	-0.528745	-3.382289	0.052490	0.060303	-0.170837	0.999842	-0.004825	-0.002644	-0.016911	
54236	    0	14.341552	8.157508	-6.831681	-1.082281	-0.062373	-3.180081	0.144706	0.078910	-0.068704	0.999859	-0.005411	-0.000312	-0.015900	
54237	    0	18.212798	4.812710	-2.708187	-0.496690	0.227554	-2.768799	0.182739	0.045532	-0.027405	0.999900	-0.002483	0.001138	-0.013844	
54238	    0	20.896774	10.499605	-7.173632	-0.966481	0.499930	-2.370139	0.210009	0.102161	-0.072759	0.999914	-0.004832	0.002500	-0.011850	
54239	    0	23.304321	3.887291	-6.522550	-0.962092	0.389300	-2.288116	0.233337	0.035889	-0.065857	0.999921	-0.004810	0.001946	-0.011440	
54240	    0	29.803091	3.196295	-1.959010	-0.799962	0.333222	-2.297650	0.298338	0.028457	-0.020205	0.999924	-0.004000	0.001666	-0.011488	
54241	    0	27.785297	-3.204708	3.277690	-1.184109	0.100901	-2.027940	0.277527	-0.034668	0.032837	0.999930	-0.005920	0.000504	-0.010139	
54242	    0	23.750979	-3.266390	6.055111	-1.396593	0.006867	-1.898428	0.237190	-0.034492	0.060780	0.999930	-0.006983	0.000034	-0.009492	
54243	    0	23.552942	-3.334662	6.298548	-2.078125	-0.113682	-1.889863	0.235168	-0.034912	0.063477	0.999901	-0.010390	-0.000568	-0.009449	
54244	    0	21.358159	-7.099492	8.734808	-2.444920	-0.343525	-1.330229	0.212956	-0.071335	0.088585	0.999901	-0.012224	-0.001718	-0.006651	
54245	    0	16.512860	-6.013113	5.396531	-3.158523	-0.466177	-0.888865	0.164734	-0.059998	0.055298	0.999863	-0.015792	-0.002331	-0.004444	
54246	    0	13.991932	-10.125176	-1.281944	-3.466983	-0.465037	-0.790829	0.139544	-0.102002	-0.010731	0.999839	-0.017334	-0.002325	-0.003954	
54247	    0	18.052873	-12.268118	-2.958651	-2.534561	-0.075343	-0.885799	0.179993	-0.123840	-0.027954	0.999909	-0.012672	-0.000377	-0.004429	
54248	    0	17.833556	-9.614680	-0.902668	-1.052297	0.374989	-1.311891	0.177683	-0.097361	-0.008850	0.999963	-0.005261	0.001875	-0.006559	
54249	    0	16.961987	-3.108675	0.315564	0.328071	0.924892	-1.989024	0.169312	-0.032776	0.002319	0.999938	0.001640	0.004624	-0.009945	
54250	    0	13.486472	2.792853	-3.120979	1.297260	1.388055	-3.133568	0.135062	0.026019	-0.031974	0.999832	0.006486	0.006940	-0.015667	
54251	    0	9.091200	5.886109	-5.448089	0.790670	1.617584	-4.394944	0.091736	0.057068	-0.054993	0.999718	0.003953	0.008087	-0.021973	
54252	    0	15.564691	12.489291	-10.645574	1.277891	1.053750	-5.200841	0.158275	0.121480	-0.106502	0.999627	0.006389	0.005268	-0.026001	
54253	    0	18.371681	10.289880	-6.250435	0.762288	0.996735	-5.780872	0.186279	0.097778	-0.063049	0.999562	0.003811	0.004983	-0.028900	
54254	    0	22.021538	0.399166	-1.956856	0.568281	0.743401	-5.810432	0.220134	-0.002348	-0.020388	0.999567	0.002841	0.003716	-0.029048	
54255	    0	26.336948	-4.391027	1.282803	0.818201	0.551699	-6.315925	0.261841	-0.052246	0.011902	0.999489	0.004090	0.002758	-0.031574	
54256	    0	27.663823	-5.016250	1.270569	0.488567	0.493336	-6.780983	0.274755	-0.059530	0.011889	0.999419	0.002442	0.002466	-0.033898	
54257	    0	31.520100	-5.495148	0.529072	-0.590445	0.571559	-6.959432	0.313049	-0.065857	0.004578	0.999386	-0.002952	0.002857	-0.034790	
54258	    0	35.205343	-7.842040	-0.587011	-2.191291	0.454436	-7.134955	0.348944	-0.090971	-0.005714	0.999301	-0.010954	0.002272	-0.035666	
54259	    0	31.651697	-13.489216	-2.651400	-3.004346	0.177231	-6.570338	0.311829	-0.145569	-0.024658	0.999347	-0.015018	0.000886	-0.032845	
54260	    0	25.912797	-17.799661	-3.225625	-3.597431	-0.030142	-6.058611	0.253572	-0.186275	-0.028916	0.999379	-0.017983	-0.000151	-0.030287	
54261	    0	21.879097	-16.536322	-5.748192	-3.570295	-0.283105	-5.805569	0.213928	-0.172607	-0.054138	0.999418	-0.017848	-0.001415	-0.029022	
54262	    0	20.506845	-13.582903	-5.790756	-3.674611	-0.248764	-5.528894	0.201261	-0.142458	-0.055079	0.999448	-0.018370	-0.001244	-0.027639	
54263	    0	22.119541	-10.223512	-5.066001	-3.644409	-0.065433	-5.188858	0.218445	-0.108826	-0.048645	0.999497	-0.018219	-0.000327	-0.025940	
54264	    0	25.630489	-9.562489	-4.882803	-2.962673	0.259432	-4.592133	0.253946	-0.102186	-0.047677	0.999625	-0.014812	0.001297	-0.022958	
54265	    0	25.637246	-12.220918	-4.296718	-1.573088	0.392175	-3.507451	0.254089	-0.127014	-0.042480	0.999813	-0.007865	0.001961	-0.017536	
54266	    0	20.727921	-11.971800	-6.553669	-0.267416	0.197605	-2.150387	0.205911	-0.122025	-0.065578	0.999940	-0.001337	0.000988	-0.010752	
54267	    0	15.897697	-9.869185	-5.216789	0.322152	0.128174	-0.878147	0.158508	-0.099304	-0.052429	0.999989	0.001611	0.000641	-0.004391	
54268	    0	10.837884	-6.406305	-4.476942	0.444222	-0.277329	0.470544	0.108591	-0.063708	-0.044761	0.999993	0.002221	-0.001387	0.002353	
54269	    0	2.598874	-3.194455	-3.630253	0.377662	-0.354582	1.979862	0.026367	-0.031616	-0.036316	0.999948	0.001888	-0.001773	0.009899	
54270	    0	-0.327236	-1.329186	-1.848990	0.918817	-0.369854	3.368741	-0.003015	-0.013259	-0.018557	0.999846	0.004594	-0.001849	0.016843	
54271	    0	-2.078369	-0.582807	-3.812540	1.374951	-0.402681	4.620812	-0.020569	-0.006042	-0.038208	0.999707	0.006874	-0.002013	0.023102	
54272	    0	-1.187262	-0.073133	-4.917535	1.042321	-0.333260	5.687555	-0.011768	-0.000811	-0.049199	0.999580	0.005211	-0.001666	0.028434	
54273	    0	0.275163	-0.752125	-5.589361	0.564873	-0.412065	6.693005	0.003113	-0.007263	-0.055908	0.999434	0.002824	-0.002060	0.033459	
54274	    0	0.660078	-0.417114	-5.793488	0.222261	-0.497369	7.693099	0.006897	-0.003845	-0.057922	0.999256	0.001111	-0.002486	0.038456	
54275	    0	1.851491	-0.430826	-4.820382	0.196708	-0.654039	8.532077	0.018832	-0.003462	-0.048146	0.999083	0.000983	-0.003269	0.042647	
54276	    0	4.180426	-2.832800	-3.881970	0.597781	-0.762825	9.112494	0.043180	-0.026265	-0.038737	0.998950	0.002988	-0.003813	0.045547	
54277	    0	6.674590	-4.121943	-3.176639	1.345007	-0.851768	9.474010	0.068726	-0.037781	-0.031738	0.998846	0.006722	-0.004257	0.047352	
54278	    0	9.223046	-3.801982	-2.693049	1.924374	-0.866493	9.847988	0.094060	-0.033158	-0.026860	0.998732	0.009618	-0.004331	0.049219	
54279	    0	12.111331	-3.320727	-2.168982	2.141215	-0.842670	10.218141	0.122681	-0.026733	-0.021484	0.998629	0.010701	-0.004211	0.051067	
54280	    0	14.807466	-0.918100	-2.503686	2.369341	-0.909685	10.622726	0.148385	-0.001011	-0.024406	0.998508	0.011841	-0.004546	0.053087	
54281	    0	17.023616	0.900985	-2.173836	2.231992	-0.888331	10.892792	0.169495	0.018494	-0.020813	0.998445	0.011154	-0.004439	0.054436	
54282	    0	20.460445	3.609628	-2.252898	2.093484	-0.906858	11.112449	0.202270	0.047608	-0.021150	0.998391	0.010462	-0.004532	0.055532	
54283	    0	24.347832	7.294240	-2.133952	2.212403	-0.849618	11.229001	0.238953	0.086670	-0.019409	0.998354	0.011056	-0.004246	0.056114	
54284	    0	27.801574	12.310890	-2.982379	2.636055	-0.826713	11.091547	0.270727	0.138631	-0.026935	0.998366	0.013173	-0.004131	0.055428	
54285	    0	30.713021	18.032726	-3.909499	3.018977	-0.738714	10.662981	0.297058	0.196899	-0.035095	0.998458	0.015087	-0.003692	0.053288	
54286	    0	31.789125	24.285266	-3.455687	3.309649	-0.636207	10.028365	0.305273	0.258890	-0.029375	0.998601	0.016541	-0.003180	0.050118	
54287	    0	31.782895	31.084311	-2.767963	3.228726	-0.621283	9.268872	0.303040	0.325500	-0.021545	0.998791	0.016137	-0.003105	0.046326	
54288	    0	32.401195	37.209704	-2.329681	2.775315	-0.635922	8.275002	0.308309	0.385338	-0.017013	0.999043	0.013872	-0.003179	0.041362	
54289	    0	30.784250	43.898398	-4.612168	1.946120	-0.759294	7.011451	0.292358	0.449829	-0.040649	0.999331	0.009728	-0.003796	0.035049	
54290	    0	20.320806	46.834671	-9.579035	0.925575	-0.908788	5.638718	0.190317	0.474268	-0.092720	0.999581	0.004627	-0.004543	0.028190	
54291	    0	14.029497	45.373622	-11.628034	0.333425	-0.966513	3.690564	0.132446	0.456421	-0.114868	0.999816	0.001667	-0.004832	0.018452	
54292	    0	11.156020	48.765401	-6.260232	-0.189593	-0.870718	1.684977	0.107719	0.488513	-0.062591	0.999954	-0.000948	-0.004354	0.008425	
54293	    0	6.124435	48.660221	1.152132	-0.608637	-0.697329	-0.004578	0.061218	0.486633	0.010254	0.999989	-0.003043	-0.003487	-0.000023	
54294	    0	2.289900	42.541702	3.246499	-0.702866	-0.534636	-1.385514	0.025762	0.425356	0.031036	0.999966	-0.003514	-0.002673	-0.006927	
54295	    0	5.789349	36.005875	2.804598	-0.845364	-0.279817	-2.616966	0.062561	0.359375	0.026611	0.999904	-0.004227	-0.001399	-0.013084	
54296	    0	7.432167	31.959073	4.193703	-1.188161	-0.160609	-3.656231	0.080117	0.318403	0.040106	0.999814	-0.005940	-0.000803	-0.018280	
54297	    0	11.191046	24.084963	4.547957	-1.771704	-0.171486	-4.285815	0.117004	0.238770	0.043457	0.999730	-0.008858	-0.000857	-0.021427	
54298	    0	12.635463	1.549876	-14.221806	-2.303334	-1.253815	-3.876086	0.127491	0.011402	-0.141568	0.999725	-0.011516	-0.006269	-0.019379	
54299	    0	15.207920	-34.229556	-27.965668	-3.891962	-1.072803	-2.875050	0.148560	-0.349792	-0.272095	0.999693	-0.019458	-0.005363	-0.014374	
54300	    0	24.784125	-20.778463	-52.928346	2.129333	-2.329429	-2.843308	0.251066	-0.205709	-0.528569	0.999774	0.010646	-0.011646	-0.014215	
54301	    0	96.257796	150.912425	19.156960	-0.291523	3.981664	-14.388669	1.071167	1.434875	0.168823	0.997213	-0.001456	0.019890	-0.071877	
54302	    0	57.401885	-19.497305	36.779605	-3.690979	-3.648624	-6.286836	0.560781	-0.205781	0.381841	0.999169	-0.018450	-0.018238	-0.031425	
54303	    0	-9.712633	-8.560043	30.688097	0.396027	-2.437781	-5.597797	-0.103210	-0.083374	0.305481	0.999532	0.001980	-0.012187	-0.027985	
54304	    0	-17.128506	11.084872	2.247971	0.153381	-1.653037	-6.608525	-0.167678	0.116413	0.021172	0.999418	0.000767	-0.008264	-0.033036	
54305	    0	9.935245	15.102925	0.737667	0.196859	-0.687290	-4.956573	0.103027	0.148499	0.007874	0.999686	0.000984	-0.003436	-0.024780	
54306	    0	8.716465	11.315640	-8.473185	-0.603711	-0.801706	-3.623413	0.089532	0.111293	-0.084714	0.999823	-0.003018	-0.004008	-0.018116	
54307	    0	4.529174	-2.582292	-6.635389	-0.505659	-0.823246	-3.017552	0.045166	-0.026672	-0.066101	0.999874	-0.002528	-0.004116	-0.015087	
54308	    0	12.237782	14.505035	-9.138434	-0.756481	-0.263796	-2.803711	0.124513	0.142968	-0.091764	0.999893	-0.003782	-0.001319	-0.014018	
54309	    0	15.887558	8.847383	2.701725	-0.331124	-0.054742	-2.393399	0.159912	0.086609	0.026917	0.999927	-0.001656	-0.000274	-0.011967	
54310	    0	16.907839	10.542884	-9.482413	-0.733388	0.301557	-1.823837	0.169885	0.103533	-0.095462	0.999950	-0.003667	0.001508	-0.009119	
54311	    0	21.685944	9.124139	-7.767319	-0.788128	0.708209	-1.564812	0.217285	0.089233	-0.078796	0.999955	-0.003941	0.003541	-0.007824	
54312	    0	26.441061	3.664877	-8.954956	-0.679978	0.650032	-1.424425	0.264368	0.034459	-0.090528	0.999963	-0.003400	0.003250	-0.007122	
54313	    0	29.539251	0.471427	-6.303258	-0.862893	0.580030	-1.105510	0.295227	0.002808	-0.063904	0.999970	-0.004314	0.002900	-0.005527	
54314	    0	29.796651	-1.905564	-0.803380	-1.302735	0.629814	-0.926601	0.297847	-0.020492	-0.008842	0.999963	-0.006514	0.003149	-0.004633	
54315	    0	30.598735	-0.212190	3.274425	-2.025458	0.357826	-1.021598	0.306030	-0.003357	0.032227	0.999933	-0.010127	0.001789	-0.005108	
54316	    0	31.135644	-5.307889	5.801223	-2.888595	-0.163084	-0.658632	0.311133	-0.053256	0.059034	0.999889	-0.014442	-0.000815	-0.003293	
54317	    0	26.387352	-17.202222	5.783046	-4.165197	-0.656749	0.354793	0.263977	-0.170288	0.062256	0.999776	-0.020824	-0.003284	0.001774	
54318	    0	20.500561	-20.419710	7.501128	-4.603422	-0.488898	0.594193	0.205416	-0.201781	0.080176	0.999727	-0.023015	-0.002444	0.002971	
54319	    0	15.988591	-16.238569	0.805360	-4.456510	-0.294519	0.202196	0.160034	-0.161987	0.011902	0.999750	-0.022281	-0.001472	0.001011	
54320	    0	13.517224	-2.821290	-6.609066	-2.747634	0.270472	-0.989759	0.134938	-0.029787	-0.065871	0.999892	-0.013738	0.001352	-0.004949	
54321	    0	17.009189	5.535876	-6.698037	-1.090272	0.701352	-2.290410	0.170471	0.053040	-0.067871	0.999913	-0.005451	0.003507	-0.011452	
54322	    0	9.731326	13.485757	-8.904934	-0.237292	1.041874	-4.163681	0.099625	0.132693	-0.089723	0.999768	-0.001186	0.005209	-0.020817	
54323	    0	4.520589	11.530156	-8.400434	-0.836299	1.522469	-5.546588	0.047729	0.113647	-0.084839	0.999578	-0.004181	0.007611	-0.027729	
54324	    0	17.250352	16.971955	-9.181988	-0.670178	1.439175	-6.533327	0.177247	0.163669	-0.093639	0.999434	-0.003350	0.007195	-0.032660	
54325	    0	23.228390	10.860510	-4.365244	-0.270712	1.692571	-7.048054	0.235535	0.100281	-0.045776	0.999342	-0.001353	0.008461	-0.035233	
54326	    0	28.230174	-2.017109	-2.436559	0.616975	1.547206	-7.138897	0.281144	-0.030142	-0.026627	0.999328	0.003084	0.007734	-0.035686	
54327	    0	32.012623	-4.540691	-0.307622	1.796434	1.482974	-7.611567	0.318054	-0.057495	-0.005920	0.999207	0.008980	0.007413	-0.038048	
54328	    0	33.557737	-4.526886	2.911004	1.856375	1.246423	-7.931092	0.333595	-0.058781	0.026523	0.999151	0.009279	0.006230	-0.039644	
54329	    0	35.937333	-2.709473	4.326426	1.047059	0.907591	-8.255126	0.358032	-0.042114	0.041443	0.999124	0.005234	0.004537	-0.041264	
54330	    0	37.169888	0.034161	2.064739	-0.143669	0.690107	-8.705617	0.371313	-0.015816	0.019373	0.999046	-0.000718	0.003449	-0.043514	
54331	    0	38.924285	0.208139	-0.653464	-2.076686	0.676392	-8.906624	0.388794	-0.015320	-0.007751	0.998948	-0.010380	0.003381	-0.044518	
54332	    0	38.827828	-5.536983	-1.728891	-3.382909	0.829414	-8.462234	0.385392	-0.072019	-0.017767	0.998953	-0.016909	0.004146	-0.042296	
54333	    0	37.232110	-10.518236	-3.503150	-3.627474	0.906868	-8.179942	0.367432	-0.120911	-0.034607	0.998988	-0.018131	0.004533	-0.040886	
54334	    0	34.155004	-12.073059	-4.595644	-3.471732	0.865453	-8.039589	0.336114	-0.135106	-0.045156	0.999032	-0.017353	0.004326	-0.040185	
54335	    0	30.092088	-11.597305	-4.427268	-3.265594	0.937361	-7.758361	0.295898	-0.128235	-0.043640	0.999103	-0.016323	0.004685	-0.038780	
54336	    0	27.059584	-11.507816	-4.507249	-2.744617	0.954492	-7.294049	0.265932	-0.125450	-0.044675	0.999229	-0.013720	0.004771	-0.036461	
54337	    0	24.976564	-12.410340	-4.562284	-2.292947	0.888257	-6.836678	0.245117	-0.133057	-0.045227	0.999340	-0.011462	0.004440	-0.034176	
54338	    0	23.377981	-13.839224	-4.183153	-1.807157	0.859797	-6.269442	0.229103	-0.146000	-0.041527	0.999458	-0.009034	0.004298	-0.031342	
54339	    0	22.642338	-15.115932	-3.586220	-1.029340	0.902866	-5.426734	0.222046	-0.157410	-0.036072	0.999608	-0.005146	0.004514	-0.027130	
54340	    0	20.153526	-15.250702	-4.369860	0.053791	0.925708	-4.224344	0.198050	-0.156703	-0.044662	0.999765	0.000269	0.004628	-0.021120	
54341	    0	14.902075	-13.335411	-5.898433	0.971258	0.735692	-2.718454	0.146973	-0.135071	-0.060181	0.999888	0.004856	0.003678	-0.013592	
54342	    0	9.493688	-10.036128	-6.309803	1.122490	0.602921	-1.247232	0.094118	-0.100593	-0.063947	0.999960	0.005612	0.003015	-0.006236	
54343	    0	1.810764	-7.438860	-5.673584	0.962834	0.396921	0.193788	0.018066	-0.074097	-0.057129	0.999986	0.004814	0.001985	0.000969	
54344	    0	-5.929408	-4.582382	-6.509017	0.420768	0.502213	1.831656	-0.059035	-0.046228	-0.065039	0.999952	0.002104	0.002511	0.009158	
54345	    0	-10.914621	-4.243710	-5.464726	0.478390	0.567086	3.575333	-0.108521	-0.044250	-0.054443	0.999833	0.002392	0.002835	0.017876	
54346	    0	-10.395336	-4.567040	-7.880989	0.562350	0.566165	5.151951	-0.102958	-0.048110	-0.078650	0.999660	0.002811	0.002831	0.025757	
54347	    0	-7.941910	-2.207678	-8.120215	-0.002289	0.680855	6.525065	-0.078918	-0.024658	-0.080933	0.999461	-0.000011	0.003404	0.032619	
54348	    0	-7.131342	-1.831679	-7.711150	-0.833728	0.712580	7.820826	-0.070790	-0.021413	-0.076774	0.999220	-0.004168	0.003562	0.039094	
54349	    0	-5.464873	-3.633469	-7.011981	-1.294196	0.634219	8.935545	-0.053162	-0.039185	-0.069702	0.998976	-0.006469	0.003170	0.044662	
54350	    0	-1.250743	-5.636415	-6.333410	-0.910935	0.386584	9.774515	-0.009848	-0.057177	-0.063054	0.998794	-0.004553	0.001932	0.048853	
54351	    0	2.855498	-5.847967	-6.240875	0.045988	0.111439	10.356190	0.031494	-0.056885	-0.062439	0.998659	0.000230	0.000557	0.051758	
54352	    0	5.744147	-4.540236	-6.637277	0.999746	-0.079766	10.761348	0.059786	-0.041894	-0.066565	0.998540	0.004996	-0.000399	0.053781	
54353	    0	7.995234	-2.546666	-6.533773	1.519990	-0.189307	11.038579	0.081238	-0.020508	-0.065430	0.998447	0.007596	-0.000946	0.055164	
54354	    0	9.680576	-1.382863	-5.818522	1.473450	-0.249423	11.215469	0.097434	-0.007946	-0.058137	0.998400	0.007363	-0.001246	0.056047	
54355	    0	11.575876	-1.393969	-3.937632	1.139111	-0.212212	11.317443	0.116333	-0.007141	-0.039307	0.998383	0.005692	-0.001060	0.056557	
54356	    0	14.065244	-0.840801	-4.130151	1.666231	-0.489316	11.413809	0.140914	-0.000026	-0.040980	0.998334	0.008327	-0.002445	0.057037	
54357	    0	17.026143	0.927943	-6.435933	2.348929	-0.741817	11.547692	0.169556	0.019836	-0.063538	0.998258	0.011738	-0.003707	0.057705	
54358	    0	19.226461	4.883264	-6.359779	2.687733	-0.904436	11.667393	0.189233	0.060776	-0.061974	0.998198	0.013431	-0.004519	0.058302	
54359	    0	20.704042	9.233072	-5.664212	2.614826	-0.926764	11.670815	0.201416	0.104919	-0.054382	0.998201	0.013066	-0.004631	0.058319	
54360	    0	22.932657	12.099834	-4.450439	2.465911	-0.934760	11.482393	0.222063	0.134418	-0.041852	0.998265	0.012322	-0.004671	0.057379	
54361	    0	24.681354	14.782187	-4.592000	2.697913	-1.093135	11.155775	0.238281	0.161865	-0.042480	0.998339	0.013482	-0.005463	0.055748	
54362	    0	26.096977	17.967630	-5.013192	2.909463	-1.257981	10.737495	0.251103	0.194026	-0.045777	0.998433	0.014540	-0.006287	0.053659	
54363	    0	28.102192	23.947670	-4.572435	2.888319	-1.305812	10.129724	0.268677	0.253906	-0.040344	0.998591	0.014435	-0.006526	0.050625	
54364	    0	31.644516	33.055866	-3.940444	2.432278	-1.102511	9.469227	0.300515	0.345474	-0.033576	0.998790	0.012156	-0.005510	0.047327	
54365	    0	34.509241	41.614100	-3.215026	1.288429	-0.799043	8.455969	0.327209	0.430420	-0.028076	0.999077	0.006440	-0.003994	0.042267	
54366	    0	31.873183	47.039850	-2.970021	-0.284254	-0.860774	6.996080	0.302151	0.481121	-0.029055	0.999377	-0.001421	-0.004303	0.034973	
54367	    0	23.693149	45.293012	-4.677399	-1.573407	-0.974223	5.576364	0.224426	0.458923	-0.049255	0.999568	-0.007866	-0.004870	0.027878	
54368	    0	20.199293	39.062636	-6.269684	-1.978860	-0.708643	4.125964	0.194117	0.394044	-0.065887	0.999731	-0.009893	-0.003543	0.020628	
54369	    0	15.505273	40.693007	-4.943759	-1.414532	-0.501076	2.229376	0.150635	0.408264	-0.051941	0.999909	-0.007072	-0.002505	0.011147	
54370	    0	6.468267	44.271583	-0.829736	-1.127633	-0.523762	0.395778	0.063832	0.442787	-0.010626	0.999978	-0.005638	-0.002619	0.001979	
54371	    0	3.187500	40.452929	3.392656	-1.668388	-0.527964	-1.150534	0.034119	0.404602	0.030640	0.999945	-0.008342	-0.002640	-0.005753	
54372	    0	5.436714	32.937097	5.705869	-2.144339	-0.390452	-2.495880	0.058370	0.329247	0.053639	0.999863	-0.010721	-0.001952	-0.012479	
54373	    0	8.916270	25.585183	5.740428	-2.410311	-0.249310	-3.553283	0.093628	0.254883	0.054443	0.999768	-0.012051	-0.001246	-0.017765	
54374	    0	19.510643	15.779055	2.070587	-2.533016	-0.760153	-4.055801	0.198180	0.154044	0.019488	0.999706	-0.012664	-0.003800	-0.020277	
54375	    0	6.679546	-9.792089	-15.746582	-3.005314	-1.149096	-3.540377	0.065918	-0.101440	-0.155579	0.999714	-0.015025	-0.005745	-0.017700	
54376	    0	11.474074	-40.730869	-51.127167	-0.506625	-3.198259	-2.250817	0.118282	-0.409917	-0.508363	0.999805	-0.002533	-0.015990	-0.011253	
54377	    0	62.181221	45.454095	-48.711337	0.900705	1.500348	-7.897814	0.635498	0.431824	-0.489868	0.999182	0.004502	0.007500	-0.039478	
54378	    0	92.511746	104.215171	95.639923	-1.416817	1.627155	-12.787431	0.997115	0.986611	0.941355	0.997898	-0.007079	0.008130	-0.063892	
54379	    0	24.751082	-34.888095	2.474413	-1.436827	-3.538844	-4.562288	0.238953	-0.354187	0.031555	0.999557	-0.007183	-0.017692	-0.022808	
54380	    0	-21.778951	4.078713	23.358401	0.621153	-1.701876	-6.585257	-0.218283	0.047248	0.231868	0.999416	0.003105	-0.008508	-0.032920	
54381	    0	-2.632758	13.645029	-0.790530	-0.225673	-0.490644	-5.975475	-0.022217	0.137146	-0.008118	0.999550	-0.001128	-0.002453	-0.029873	
54382	    0	17.200397	17.187742	-1.303844	-0.072295	-0.494620	-4.641001	0.175961	0.167820	-0.012668	0.999727	-0.000361	-0.002473	-0.023203	
54383	    0	7.386035	-4.632100	-2.244640	-0.503570	-0.634613	-3.689032	0.073059	-0.047729	-0.022095	0.999822	-0.002518	-0.003173	-0.018444	
54384	    0	7.491342	5.309918	-11.624045	-0.844620	-0.500706	-3.478240	0.076107	0.051291	-0.116270	0.999836	-0.004223	-0.002503	-0.017390	
54385	    0	14.736953	12.933046	-2.614535	-0.499557	-0.130469	-3.271634	0.149475	0.126831	-0.026367	0.999863	-0.002498	-0.000652	-0.016357	
54386	    0	13.294717	7.960518	-2.235271	-0.166708	0.038530	-2.793022	0.134037	0.077720	-0.022444	0.999902	-0.000834	0.000193	-0.013965	
54387	    0	18.109509	14.294706	-9.969750	-0.790427	0.564019	-2.383489	0.182495	0.140381	-0.100769	0.999917	-0.003952	0.002820	-0.011917	
54388	    0	21.486322	3.615070	-7.180672	-0.560010	0.630012	-2.183964	0.215012	0.033601	-0.072580	0.999931	-0.002800	0.003150	-0.010920	
54389	    0	25.237560	2.526550	-11.172461	-0.765817	0.727860	-1.979106	0.252197	0.022339	-0.112732	0.999937	-0.003829	0.003639	-0.009895	
54390	    0	28.115367	-1.363751	-1.491881	-0.886934	0.764861	-1.793514	0.280956	-0.016227	-0.015925	0.999942	-0.004435	0.003824	-0.008967	
54391	    0	28.579995	2.896988	2.844320	-1.139663	0.744643	-1.673922	0.286133	0.026733	0.027222	0.999941	-0.005698	0.003723	-0.008369	
54392	    0	26.615819	-1.380161	4.881038	-1.417379	0.561535	-1.573976	0.266176	-0.015553	0.048169	0.999940	-0.007087	0.002808	-0.007870	
54393	    0	25.110774	-6.749435	4.032165	-2.148490	0.273330	-1.085689	0.250793	-0.068420	0.040710	0.999927	-0.010742	0.001367	-0.005428	
54394	    0	21.155429	-7.536535	5.601281	-2.607804	0.000381	-0.521866	0.211358	-0.075178	0.056993	0.999911	-0.013039	0.000002	-0.002609	
54395	    0	17.179309	-8.044526	3.151733	-3.281360	-0.146491	-0.193032	0.171692	-0.080078	0.032959	0.999865	-0.016406	-0.000732	-0.000965	
54396	    0	15.643171	-12.314574	-3.702031	-3.101283	-0.190361	-0.137525	0.156381	-0.123806	-0.034955	0.999879	-0.015506	-0.000952	-0.000688	
54397	    0	19.205982	-11.492465	-6.620546	-1.913292	0.152590	-0.305181	0.191833	-0.115845	-0.065247	0.999952	-0.009566	0.000763	-0.001526	
54398	    0	20.412156	-4.509663	-1.717906	-0.656896	0.749212	-0.928886	0.203843	-0.046102	-0.017793	0.999976	-0.003284	0.003746	-0.004644	
54399	    0	18.455267	7.026653	-1.546035	0.098612	1.072717	-2.070665	0.185181	0.068359	-0.016418	0.999931	0.000493	0.005363	-0.010353	
54400	    0	10.592874	12.890336	-6.432092	-0.040247	1.217336	-3.412052	0.107713	0.127063	-0.064999	0.999835	-0.000201	0.006086	-0.017059	
54401	    0	9.639374	14.657815	-10.248773	-0.141156	1.014986	-4.394904	0.099060	0.144348	-0.103088	0.999745	-0.000706	0.005075	-0.021973	
54402	    0	14.595279	15.368249	-7.120230	-0.621299	1.072632	-5.253476	0.149531	0.149562	-0.072467	0.999636	-0.003106	0.005363	-0.026264	
54403	    0	19.629449	-0.796010	-2.376829	-0.433977	0.995762	-5.400005	0.195862	-0.013306	-0.024719	0.999620	-0.002170	0.004978	-0.026997	
54404	    0	24.543601	-6.530552	-0.479116	0.435324	0.865117	-6.020525	0.243299	-0.072639	-0.006000	0.999535	0.002176	0.004325	-0.030098	
54405	    0	25.183599	-7.132961	1.024293	0.653390	0.863810	-6.627374	0.249329	-0.079651	0.008911	0.999435	0.003266	0.004318	-0.033131	
54406	    0	28.933160	-3.880284	1.516364	-0.104927	1.020271	-7.135029	0.287775	-0.049082	0.013717	0.999351	-0.000525	0.005100	-0.035667	
54407	    0	35.668748	-0.628176	1.602745	-1.675078	1.153285	-7.538231	0.356201	-0.019592	0.014099	0.999238	-0.008373	0.005765	-0.037682	
54408	    0	37.933479	-2.356839	0.868438	-3.124781	1.066333	-7.755668	0.378085	-0.038129	0.007186	0.999111	-0.015619	0.005330	-0.038767	
54409	    0	33.448941	-10.705178	-1.398542	-3.385140	0.877622	-7.333865	0.330200	-0.119446	-0.013489	0.999174	-0.016921	0.004387	-0.036659	
54410	    0	30.173132	-15.603117	-4.160367	-2.955611	0.676517	-7.172108	0.295728	-0.167311	-0.040194	0.999242	-0.014774	0.003382	-0.035851	
54411	    0	28.239188	-14.846072	-5.819543	-2.667699	0.768468	-7.144388	0.276611	-0.159180	-0.057190	0.999266	-0.013335	0.003841	-0.035713	
54412	    0	25.410029	-10.794377	-4.796725	-2.418316	0.839237	-7.010752	0.249896	-0.117332	-0.047641	0.999304	-0.012089	0.004195	-0.035046	
54413	    0	23.217482	-9.733842	-3.693719	-2.135141	0.731999	-6.626719	0.228638	-0.105347	-0.036682	0.999387	-0.010674	0.003659	-0.033127	
54414	    0	21.360101	-10.003986	-3.270932	-1.900820	0.610460	-6.213910	0.210251	-0.106916	-0.032360	0.999467	-0.009502	0.003052	-0.031064	
54415	    0	20.489367	-10.971884	-2.805036	-1.542123	0.589265	-5.651146	0.201599	-0.115662	-0.027771	0.999566	-0.007710	0.002946	-0.028252	
54416	    0	21.483985	-12.093973	-2.847102	-0.804410	0.693582	-4.814063	0.211745	-0.126177	-0.028708	0.999696	-0.004022	0.003468	-0.024068	
54417	    0	20.315927	-12.807636	-4.167499	0.358602	0.809716	-3.625699	0.200623	-0.131653	-0.042725	0.999825	0.001793	0.004048	-0.018127	
54418	    0	14.356763	-10.867369	-6.863171	1.195559	0.657290	-2.170813	0.142152	-0.109807	-0.069755	0.999917	0.005978	0.003286	-0.010854	
54419	    0	10.316120	-7.235729	-5.629567	1.132214	0.585371	-0.921640	0.102661	-0.072510	-0.057007	0.999969	0.005661	0.002927	-0.004608	
54420	    0	1.986679	-4.464284	-4.989694	1.053816	0.371935	0.419810	0.019867	-0.044337	-0.050168	0.999982	0.005269	0.001860	0.002099	
54421	    0	-4.335845	-2.013541	-3.781839	0.955984	0.622000	1.990553	-0.043274	-0.020386	-0.037781	0.999934	0.004780	0.003110	0.009953	
54422	    0	-8.222775	-1.722144	-4.612534	1.592743	0.692032	3.610280	-0.082063	-0.018337	-0.045984	0.999799	0.007963	0.003460	0.018050	
54423	    0	-7.077101	-0.460040	-6.211299	1.414832	0.911048	4.788722	-0.070923	-0.005859	-0.061829	0.999678	0.007073	0.004555	0.023941	
54424	    0	-4.466562	0.552628	-6.600653	0.721279	0.944664	5.949361	-0.045119	0.004426	-0.065777	0.999539	0.003606	0.004723	0.029742	
54425	    0	-5.065111	-1.340263	-7.116738	0.013164	0.971431	7.122047	-0.050476	-0.015198	-0.070923	0.999353	0.000066	0.004856	0.035603	
54426	    0	-4.137691	-3.633495	-7.007519	0.043119	0.929147	8.264444	-0.040154	-0.037996	-0.069895	0.999135	0.000216	0.004644	0.041310	
54427	    0	0.371989	-4.064389	-6.403920	0.445903	0.779996	9.107334	0.005310	-0.040283	-0.064148	0.998953	0.002229	0.003899	0.045521	
54428	    0	3.767872	-3.116305	-5.230287	0.849292	0.602957	9.617168	0.038953	-0.029087	-0.052546	0.998830	0.004245	0.003014	0.048067	
54429	    0	5.780307	-2.483897	-4.208535	1.251172	0.447270	9.936870	0.058838	-0.021667	-0.042358	0.998743	0.006253	0.002235	0.049664	
54430	    0	7.519627	-2.983284	-3.787454	1.586285	0.297488	10.205994	0.076520	-0.025647	-0.038202	0.998665	0.007928	0.001487	0.051007	
54431	    0	9.545269	-3.584237	-4.137032	1.813793	0.177086	10.496907	0.097107	-0.030396	-0.041748	0.998581	0.009065	0.000885	0.052460	
54432	    0	12.257718	-2.681337	-3.450267	1.811176	0.095797	10.839767	0.123761	-0.019811	-0.034762	0.998490	0.009051	0.000479	0.054172	
54433	    0	14.433922	-0.525639	-3.631411	1.877269	-0.161830	11.205215	0.144348	0.003174	-0.036194	0.998386	0.009381	-0.000809	0.055996	
54434	    0	16.206447	1.102945	-2.336992	1.593318	-0.249045	11.354373	0.161113	0.020382	-0.023031	0.998356	0.007962	-0.001245	0.056741	
54435	    0	18.597837	3.915768	-2.466636	1.567936	-0.476144	11.346545	0.183411	0.049805	-0.023865	0.998357	0.007835	-0.002379	0.056702	
54436	    0	21.871366	6.706190	-3.420067	1.714887	-0.721947	11.342761	0.214555	0.079598	-0.032774	0.998348	0.008570	-0.003608	0.056683	
54437	    0	25.220865	11.245100	-4.255690	2.021556	-0.888546	11.219796	0.245544	0.126770	-0.040222	0.998365	0.010102	-0.004440	0.056068	
54438	    0	28.352010	16.765901	-4.350277	2.337330	-0.860278	10.864350	0.274024	0.183205	-0.040229	0.998446	0.011681	-0.004299	0.054294	
54439	    0	30.158114	22.389602	-3.265379	2.649613	-0.795361	10.316793	0.289612	0.239441	-0.028381	0.998573	0.013242	-0.003975	0.051559	
54440	    0	32.134963	29.083805	-1.935703	2.602702	-0.725665	9.601567	0.306955	0.306017	-0.014308	0.998756	0.013008	-0.003627	0.047988	
54441	    0	35.699411	36.885278	-1.496893	2.002022	-0.497596	8.521711	0.340881	0.383728	-0.010315	0.999039	0.010007	-0.002487	0.042595	
54442	    0	35.570827	45.974663	-2.107623	0.788288	-0.483427	7.169377	0.338975	0.472176	-0.018398	0.999347	0.003941	-0.002417	0.035839	
54443	    0	24.738914	49.456498	-7.119610	-0.759237	-0.540050	5.880080	0.232910	0.501282	-0.072449	0.999557	-0.003796	-0.002700	0.029396	
54444	    0	15.119928	45.591745	-11.569268	-1.179216	-0.565192	4.148047	0.142042	0.458236	-0.117980	0.999763	-0.005896	-0.002826	0.020739	
54445	    0	11.292295	47.440151	-10.313530	-1.149779	-0.499547	2.144678	0.108093	0.474976	-0.105591	0.999923	-0.005749	-0.002498	0.010723	
54446	    0	7.098115	47.720757	-2.095611	-1.458184	-0.523954	0.416379	0.070048	0.477185	-0.024251	0.999968	-0.007291	-0.002620	0.002082	
54447	    0	3.131401	42.711030	2.365383	-1.964613	-0.443850	-1.163509	0.033752	0.427124	0.019531	0.999932	-0.009823	-0.002219	-0.005817	
54448	    0	4.730599	37.160559	1.923204	-2.520130	-0.240530	-2.641062	0.052190	0.371141	0.014614	0.999832	-0.012600	-0.001203	-0.013205	
54449	    0	10.055099	30.566991	2.556999	-3.071119	-0.200481	-3.603700	0.106018	0.304138	0.020996	0.999719	-0.015354	-0.001002	-0.018017	
54450	    0	16.060350	13.438612	-8.218651	-3.282710	-1.103520	-3.726598	0.163511	0.129994	-0.083447	0.999676	-0.016412	-0.005517	-0.018631	
54451	    0	10.521720	-22.234904	-18.068229	-4.398129	-0.927659	-3.096393	0.102539	-0.227844	-0.175232	0.999627	-0.021988	-0.004638	-0.015480	
54452	    0	14.760757	-44.207445	-56.060302	1.632810	-3.492038	-1.631474	0.153819	-0.438730	-0.561544	0.999781	0.008163	-0.017459	-0.008157	
54453	    0	88.005954	133.804195	-16.923510	1.157469	3.958185	-12.642064	0.958740	1.280090	-0.180176	0.997790	0.005783	0.019776	-0.063164	
54454	    0	76.492296	19.333821	68.444119	-3.057674	-2.056002	-7.843946	0.764925	0.173850	0.689548	0.999061	-0.015284	-0.010277	-0.039207	
54455	    0	-1.255909	-33.414534	16.041360	-0.038151	-2.112616	-4.624674	-0.021973	-0.333679	0.160278	0.999677	-0.000191	-0.010562	-0.023121	
54456	    0	-15.560188	10.482570	13.460222	0.820525	-1.304904	-6.982956	-0.152705	0.109641	0.134043	0.999360	0.004102	-0.006523	-0.034907	
54457	    0	9.330045	11.476100	6.535903	0.424248	-0.285948	-5.502256	0.096313	0.112000	0.065735	0.999618	0.002121	-0.001430	-0.027508	
54458	    0	19.412212	12.970933	-3.743646	0.452276	-0.555664	-4.739643	0.197227	0.125143	-0.036605	0.999712	0.002261	-0.002778	-0.023696	
54459	    0	7.516441	-2.833763	-10.241502	0.017549	-0.814682	-3.880564	0.075012	-0.029785	-0.102112	0.999803	0.000088	-0.004073	-0.019402	
54460	    0	8.072873	10.523767	-15.009955	-1.072375	-0.097471	-3.606055	0.082672	0.102952	-0.150616	0.999823	-0.005362	-0.000487	-0.018029	
54461	    0	13.812937	5.367183	-3.713060	-0.840801	0.094037	-3.325816	0.138977	0.051208	-0.037415	0.999852	-0.004204	0.000470	-0.016628	
54462	    0	17.882982	7.831615	-5.214125	-0.725964	0.573752	-2.859986	0.179772	0.075559	-0.052934	0.999887	-0.003630	0.002869	-0.014299	
54463	    0	21.295940	9.161330	-7.184730	-0.949891	0.793674	-2.534569	0.213806	0.088562	-0.073120	0.999900	-0.004749	0.003968	-0.012672	
54464	    0	23.066943	1.907476	-8.202834	-0.871112	0.737403	-2.429081	0.230571	0.015914	-0.082952	0.999909	-0.004355	0.003687	-0.012145	
54465	    0	27.929358	2.110251	-2.560678	-1.101716	0.688382	-2.288121	0.279419	0.017761	-0.026672	0.999913	-0.005508	0.003442	-0.011440	
54466	    0	28.869700	-4.387362	4.459664	-1.338610	0.513471	-1.943254	0.288368	-0.046380	0.044161	0.999927	-0.006693	0.002567	-0.009716	
54467	    0	25.690930	-1.334847	5.572711	-1.559295	0.422679	-1.776166	0.256897	-0.015198	0.055298	0.999928	-0.007796	0.002113	-0.008881	
54468	    0	23.931450	-6.823016	6.953622	-2.208205	0.273904	-1.545572	0.238877	-0.069306	0.069970	0.999907	-0.011041	0.001369	-0.007728	
54469	    0	20.831188	-8.961083	7.006312	-2.314822	0.055887	-1.128419	0.207825	-0.089966	0.071045	0.999917	-0.011574	0.000279	-0.005642	
54470	    0	18.358470	-7.554959	3.266591	-2.629172	-0.076296	-0.778604	0.183277	-0.075825	0.033731	0.999906	-0.013145	-0.000381	-0.003893	
54471	    0	16.248118	-10.815449	-4.942679	-2.728937	-0.107578	-0.841551	0.162048	-0.109497	-0.047852	0.999897	-0.013644	-0.000538	-0.004208	
54472	    0	19.258721	-15.011593	-4.297857	-1.544978	0.300794	-1.206036	0.191612	-0.151601	-0.042100	0.999950	-0.007725	0.001504	-0.006030	
54473	    0	19.154054	-10.885598	1.489859	-0.106050	0.962273	-1.702145	0.190674	-0.110474	0.014038	0.999951	-0.000530	0.004811	-0.008511	
54474	    0	17.132158	-2.434912	-3.785211	1.496956	1.381365	-2.617193	0.170718	-0.026296	-0.039225	0.999862	0.007484	0.006907	-0.013085	
54475	    0	11.990360	3.954460	-10.307543	1.792510	1.615300	-4.184367	0.119873	0.037964	-0.103699	0.999708	0.008962	0.008076	-0.020920	
54476	    0	10.482850	5.720995	-10.807845	2.123373	1.386077	-5.272091	0.105558	0.055582	-0.108212	0.999572	0.010615	0.006929	-0.026357	
54477	    0	18.207709	16.327986	-10.838889	1.922374	0.882876	-6.145796	0.186523	0.158630	-0.107666	0.999472	0.009610	0.004414	-0.030724	
54478	    0	20.948607	5.469888	-2.125845	1.496958	0.661012	-6.266545	0.210995	0.048264	-0.021577	0.999475	0.007483	0.003304	-0.031327	
54479	    0	25.957611	-0.592611	0.349993	1.164638	0.106067	-6.334255	0.259216	-0.014160	0.003296	0.999481	0.005822	0.000530	-0.031666	
54480	    0	28.468382	-0.271507	0.434169	0.400620	-0.178753	-6.780784	0.284369	-0.012370	0.004578	0.999422	0.002003	-0.000894	-0.033897	
54481	    0	32.306573	1.945758	1.288328	-1.150005	-0.038728	-7.209853	0.323486	0.007874	0.012878	0.999333	-0.005749	-0.000194	-0.036041	
54482	    0	37.515140	-2.856051	0.209979	-3.053356	-0.169419	-7.504800	0.373727	-0.042563	0.002995	0.999179	-0.015263	-0.000847	-0.037514	
54483	    0	36.440904	-9.539549	-2.588145	-3.568339	-0.385395	-7.487350	0.360535	-0.109375	-0.023315	0.999138	-0.017837	-0.001926	-0.037426	
54484	    0	30.381174	-16.525750	-3.071832	-4.099987	-0.419538	-6.863138	0.297950	-0.176124	-0.026552	0.999199	-0.020494	-0.002097	-0.034307	
54485	    0	26.083351	-16.486451	-3.667845	-4.137710	-0.425638	-6.614842	0.255249	-0.174072	-0.032593	0.999236	-0.020683	-0.002128	-0.033066	
54486	    0	23.757056	-13.368626	-4.752043	-4.020359	-0.440517	-6.598784	0.233068	-0.142338	-0.044200	0.999250	-0.020097	-0.002202	-0.032986	
54487	    0	21.805702	-9.199743	-4.722726	-4.104070	-0.513390	-6.349175	0.215088	-0.099792	-0.044678	0.999282	-0.020515	-0.002566	-0.031738	
54488	    0	21.935640	-8.628961	-3.787553	-4.153214	-0.314591	-5.966549	0.216695	-0.093537	-0.035641	0.999338	-0.020761	-0.001573	-0.029826	
54489	    0	22.327143	-8.840289	-2.768468	-3.606310	-0.063908	-5.551398	0.220703	-0.095032	-0.025940	0.999452	-0.018028	-0.000319	-0.027752	
54490	    0	22.153053	-11.588123	-1.256708	-2.274579	0.158328	-4.672195	0.218732	-0.121147	-0.011383	0.999661	-0.011372	0.000792	-0.023358	
54491	    0	16.969791	-13.421905	-4.153086	-0.349251	0.032808	-3.248741	0.167480	-0.137024	-0.041321	0.999866	-0.001746	0.000164	-0.016243	
54492	    0	13.180087	-8.680788	-4.840407	0.543983	0.048257	-1.687835	0.131051	-0.087784	-0.048674	0.999960	0.002720	0.000241	-0.008439	
54493	    0	6.117753	-6.357044	-1.628584	0.761607	-0.158692	-0.296784	0.061096	-0.063599	-0.016479	0.999990	0.003808	-0.000793	-0.001484	
54494	    0	-3.153935	-6.461855	-2.283729	1.633296	-0.132945	1.511224	-0.031035	-0.064665	-0.023386	0.999937	0.008166	-0.000665	0.007556	
54495	    0	-5.250738	-3.320605	-0.684772	3.179422	-0.009728	3.001643	-0.052002	-0.033875	-0.007385	0.999761	0.015896	-0.000049	0.015007	
54496	    0	-7.595744	-0.096225	-3.521345	3.589143	0.136965	4.277404	-0.075947	-0.001955	-0.035191	0.999610	0.017943	0.000685	0.021384	
54497	    0	-5.561843	0.464028	-4.072745	2.828840	0.294540	5.353603	-0.055786	0.003723	-0.040588	0.999540	0.014142	0.001472	0.026764	
54498	    0	-2.880572	-1.473419	-5.321656	1.918012	0.391081	6.458173	-0.028425	-0.015145	-0.053305	0.999431	0.009588	0.001955	0.032285	
54499	    0	-3.200929	-0.919023	-5.855471	1.269837	0.525983	7.474791	-0.031799	-0.010010	-0.058533	0.999278	0.006348	0.002629	0.037365	
54500	    0	-2.207522	-0.040301	-5.349509	0.918664	0.515138	8.413546	-0.022177	-0.001089	-0.053442	0.999101	0.004592	0.002575	0.042055	
54501	    0	0.883750	-1.872385	-4.731738	0.968704	0.393053	9.165389	0.009583	-0.018066	-0.047424	0.998936	0.004842	0.001965	0.045811	
54502	    0	3.454710	-3.384655	-4.177523	1.334528	0.289269	9.649089	0.036056	-0.031851	-0.042044	0.998813	0.006670	0.001446	0.048226	
54503	    0	6.015339	-4.281164	-3.693819	1.687771	0.237376	9.981223	0.062134	-0.039429	-0.037354	0.998718	0.008435	0.001186	0.049885	
54504	    0	9.055750	-4.393200	-4.093216	1.941993	0.122126	10.273654	0.092614	-0.038808	-0.041382	0.998633	0.009706	0.000610	0.051345	
54505	    0	12.287543	-3.830643	-2.845565	1.699117	0.204757	10.586279	0.124634	-0.031494	-0.028870	0.998563	0.008492	0.001023	0.052906	
54506	    0	14.617298	-1.465175	-1.779404	1.906985	0.042174	10.890212	0.146671	-0.006501	-0.017913	0.998472	0.009530	0.000211	0.054423	
54507	    0	16.402987	1.100299	-1.662532	1.869420	-0.057060	11.067668	0.163086	0.020203	-0.016418	0.998425	0.009342	-0.000285	0.055309	
54508	    0	18.918027	4.180322	-1.720974	1.920213	-0.214693	11.230059	0.186450	0.052488	-0.016539	0.998377	0.009596	-0.001073	0.056120	
54509	    0	22.093595	6.705727	-1.098555	1.951150	-0.276146	11.340488	0.216675	0.079529	-0.009949	0.998343	0.009750	-0.001380	0.056671	
54510	    0	25.286535	10.662898	-0.997873	2.336621	-0.368699	11.144561	0.246419	0.120587	-0.008165	0.998378	0.011677	-0.001842	0.055693	
54511	    0	27.820146	16.216831	-2.686458	2.934264	-0.437201	10.768384	0.268982	0.177185	-0.023743	0.998441	0.014664	-0.002185	0.053814	
54512	    0	28.837389	23.512836	-4.144967	3.528430	-0.436426	10.289504	0.275839	0.250213	-0.036511	0.998518	0.017633	-0.002181	0.051422	
54513	    0	29.012431	29.860069	-3.469472	3.765261	-0.322677	9.636412	0.275330	0.312683	-0.028442	0.998660	0.018818	-0.001613	0.048161	
54514	    0	31.045121	35.894358	-2.518544	3.653747	-0.146348	8.736824	0.294390	0.372416	-0.018243	0.998878	0.018262	-0.000731	0.043668	
54515	    0	34.018528	43.930098	-2.276344	2.755110	0.039683	7.350520	0.323730	0.451660	-0.016663	0.999229	0.013772	0.000198	0.036743	
54516	    0	27.160517	49.312776	-6.541283	1.225462	-0.167681	5.831628	0.257122	0.501154	-0.062139	0.999556	0.006126	-0.000838	0.029154	
54517	    0	16.139362	45.850769	-12.971187	0.110826	-0.316645	4.387256	0.151489	0.461975	-0.129211	0.999758	0.000554	-0.001583	0.021935	
54518	    0	12.788298	45.491439	-14.547292	-0.431455	-0.332651	2.597313	0.122207	0.456211	-0.146250	0.999911	-0.002157	-0.001663	0.012986	
54519	    0	9.573300	47.447018	-6.261834	-0.936705	-0.303652	0.799566	0.093933	0.474548	-0.064697	0.999979	-0.004683	-0.001518	0.003998	
54520	    0	3.348460	44.753063	0.584680	-1.493473	-0.345807	-0.795184	0.035257	0.447420	0.002565	0.999962	-0.007467	-0.001729	-0.003976	
54521	    0	4.045587	35.530477	1.091701	-1.910467	-0.199706	-2.176743	0.044312	0.354919	0.007568	0.999894	-0.009552	-0.000998	-0.010883	
54522	    0	6.893907	30.548957	1.219557	-2.188633	-0.059132	-3.261776	0.073907	0.304420	0.008882	0.999806	-0.010942	-0.000296	-0.016308	
54523	    0	8.009384	24.442153	1.485955	-2.587182	-0.019838	-3.999707	0.084961	0.242920	0.011719	0.999716	-0.012935	-0.000099	-0.019997	
54524	    0	14.340618	12.244184	0.843617	-2.840929	-0.398299	-4.287241	0.145973	0.119437	0.007014	0.999667	-0.014203	-0.001991	-0.021434	
54525	    0	8.603655	-15.483031	-17.773612	-3.890681	-1.242019	-3.356561	0.084473	-0.159668	-0.174133	0.999650	-0.019451	-0.006209	-0.016781	
54526	    0	12.361495	-61.683891	-43.620879	-2.448225	-2.456236	-1.414763	0.124505	-0.622983	-0.427082	0.999825	-0.012240	-0.012280	-0.007073	
54527	    0	34.115305	32.539018	-70.815557	2.742359	-0.810156	-4.781197	0.351807	0.326721	-0.702271	0.999612	0.013710	-0.004050	-0.023903	
54528	    0	101.184557	131.879491	76.531036	-1.809265	3.634375	-13.414296	1.110950	1.253197	0.734171	0.997545	-0.009039	0.018157	-0.067017	
54529	    0	39.023494	-35.348848	7.281140	-2.645355	-3.858056	-4.193042	0.381165	-0.360474	0.084961	0.999506	-0.013225	-0.019287	-0.020962	
54530	    0	-15.362695	-2.266638	28.073118	0.152422	-2.057410	-5.898672	-0.157086	-0.018280	0.279112	0.999512	0.000762	-0.010285	-0.029489	
54531	    0	-7.290415	8.842661	1.407931	0.010873	-0.644014	-5.870146	-0.070312	0.090515	0.013855	0.999563	0.000054	-0.003220	-0.029346	
54532	    0	17.633095	16.236704	2.961939	0.389709	-0.332673	-4.761769	0.180079	0.158051	0.030228	0.999713	0.001948	-0.001663	-0.023807	
54533	    0	13.422354	2.518310	-3.915636	-0.202192	-0.809339	-3.804257	0.134827	0.022583	-0.038635	0.999810	-0.001011	-0.004046	-0.019020	
54534	    0	4.195935	3.258774	-12.293836	-0.872466	-0.758401	-3.331166	0.042954	0.031342	-0.122915	0.999845	-0.004362	-0.003792	-0.016655	
54535	    0	12.726223	9.470170	-6.066243	-0.982519	-0.037386	-3.111405	0.128723	0.092407	-0.061096	0.999866	-0.004912	-0.000187	-0.015556	
54536	    0	16.355152	5.742410	-1.632560	-0.422873	0.160986	-2.780816	0.164315	0.055108	-0.016576	0.999900	-0.002114	0.000805	-0.013904	
54537	    0	18.944853	12.689488	-8.188236	-0.961332	0.679227	-2.407909	0.190674	0.124207	-0.083130	0.999909	-0.004807	0.003396	-0.012039	
54538	    0	21.078035	5.026276	-4.929528	-0.729006	0.742358	-2.141812	0.211116	0.047821	-0.050256	0.999928	-0.003645	0.003712	-0.010709	
54539	    0	25.467340	2.177779	-10.377902	-0.850696	0.686089	-2.039383	0.254517	0.018738	-0.104736	0.999932	-0.004253	0.003430	-0.010197	
54540	    0	30.075521	-2.870199	-2.302912	-0.903148	0.735870	-1.881066	0.300380	-0.031635	-0.023996	0.999938	-0.004516	0.003679	-0.009405	
54541	    0	30.037069	0.969842	3.032063	-1.195360	0.649275	-1.738774	0.300537	0.007263	0.029297	0.999939	-0.005977	0.003246	-0.008694	
54542	    0	27.805348	-3.264327	5.700359	-1.657715	0.489628	-1.611938	0.277920	-0.034413	0.056603	0.999929	-0.008288	0.002448	-0.008060	
54543	    0	24.035397	-9.510416	4.260761	-2.513967	0.142102	-1.207009	0.239807	-0.096008	0.043640	0.999902	-0.012569	0.000710	-0.006035	
54544	    0	20.355907	-12.405982	5.928196	-2.726834	-0.033761	-0.574893	0.203193	-0.123820	0.061006	0.999903	-0.013634	-0.000169	-0.002874	
54545	    0	16.408800	-11.657743	2.557740	-2.937233	0.006104	-0.254831	0.163940	-0.116394	0.027283	0.999891	-0.014686	0.000031	-0.001274	
54546	    0	13.673860	-10.441213	-5.618480	-2.827552	-0.002289	-0.561161	0.136444	-0.105576	-0.054696	0.999896	-0.014137	-0.000011	-0.002806	
54547	    0	17.865455	-10.540497	-5.499788	-1.371782	0.400739	-0.951397	0.178040	-0.106628	-0.054626	0.999963	-0.006859	0.002004	-0.004757	
54548	    0	19.661494	-4.144553	-0.624108	-0.180438	0.833332	-1.598571	0.196247	-0.043021	-0.007021	0.999958	-0.000902	0.004167	-0.007993	
54549	    0	16.775175	7.791420	-3.962728	0.473041	1.139303	-2.763472	0.168579	0.075684	-0.040405	0.999885	0.002365	0.005696	-0.013817	
54550	    0	8.965498	9.171685	-7.827814	-0.407631	1.380834	-4.005544	0.090921	0.089744	-0.079087	0.999773	-0.002038	0.006904	-0.020026	
54551	    0	11.738959	13.791391	-10.066668	-0.179883	0.989641	-5.021453	0.120300	0.134827	-0.101379	0.999672	-0.000899	0.004948	-0.025105	
54552	    0	16.690712	14.866383	-8.131256	-0.365883	1.018482	-5.818835	0.170716	0.143583	-0.082441	0.999561	-0.001829	0.005092	-0.029090	
54553	    0	21.299092	0.709096	-3.477028	0.022319	1.050720	-5.803759	0.212891	0.000916	-0.035889	0.999565	0.000112	0.005253	-0.029015	
54554	    0	27.204125	-5.462025	-0.180496	0.492750	0.928080	-6.232154	0.270151	-0.063052	-0.003210	0.999500	0.002463	0.004640	-0.031156	
54555	    0	29.118623	-7.669985	1.628632	0.785222	0.779308	-6.849518	0.288391	-0.086670	0.014832	0.999398	0.003925	0.003896	-0.034241	
54556	    0	31.976301	-5.321988	2.259064	-0.042925	0.742128	-7.355648	0.317599	-0.064924	0.021422	0.999316	-0.000215	0.003710	-0.036770	
54557	    0	36.021596	-1.269706	3.139158	-1.432989	0.878376	-7.787857	0.359497	-0.026489	0.029968	0.999207	-0.007163	0.004391	-0.038929	
54558	    0	38.900325	-1.599382	1.992243	-2.862888	0.878614	-8.213942	0.388000	-0.031673	0.018595	0.999044	-0.014310	0.004392	-0.041057	
54559	    0	34.260702	-10.231163	-0.866246	-3.076862	0.613579	-7.675080	0.338318	-0.115479	-0.007996	0.999140	-0.015380	0.003067	-0.038364	
54560	    0	30.547475	-15.246246	-3.013019	-3.060194	0.471049	-7.330158	0.299537	-0.163959	-0.028390	0.999208	-0.015297	0.002355	-0.036641	
54561	    0	27.913051	-14.072974	-4.713949	-2.815958	0.388625	-7.249756	0.273682	-0.151367	-0.045593	0.999242	-0.014076	0.001943	-0.036240	
54562	    0	25.450294	-11.585135	-4.955183	-2.931537	0.347602	-6.999363	0.250141	-0.125371	-0.048198	0.999278	-0.014654	0.001738	-0.034988	
54563	    0	23.190623	-8.801277	-3.087471	-2.980525	0.423527	-6.725307	0.228699	-0.096191	-0.029968	0.999321	-0.014899	0.002117	-0.033619	
54564	    0	21.881312	-7.596034	-2.626114	-2.741606	0.420083	-6.395109	0.216174	-0.083256	-0.025609	0.999393	-0.013705	0.002100	-0.031969	
54565	    0	21.700623	-8.642664	-2.232930	-2.213459	0.545591	-5.841258	0.214294	-0.092957	-0.021912	0.999508	-0.011065	0.002728	-0.029202	
54566	    0	21.763518	-11.137023	-2.206393	-1.200426	0.715525	-4.941720	0.214714	-0.116833	-0.022145	0.999668	-0.006001	0.003577	-0.024706	
54567	    0	18.199243	-13.175137	-4.161014	0.187884	0.690499	-3.590594	0.179443	-0.134949	-0.042358	0.999832	0.000939	0.003452	-0.017952	
54568	    0	13.766049	-9.518029	-5.704775	0.854131	0.567450	-2.165846	0.136457	-0.096416	-0.057846	0.999928	0.004271	0.002837	-0.010829	
54569	    0	7.270762	-6.604648	-3.086877	0.769048	0.349619	-0.986488	0.072327	-0.066284	-0.031250	0.999978	0.003845	0.001748	-0.004932	
54570	    0	-2.859703	-6.426115	-3.623271	1.271449	0.297167	0.538068	-0.028479	-0.064106	-0.036598	0.999974	0.006357	0.001486	0.002690	
54571	    0	-6.856687	-4.341702	-2.528468	2.395924	0.507377	2.084440	-0.068176	-0.043823	-0.025635	0.999870	0.011979	0.002537	0.010422	
54572	    0	-9.173152	-1.093134	-4.233412	2.956655	0.618227	3.513078	-0.091659	-0.011917	-0.042222	0.999731	0.014782	0.003091	0.017564	
54573	    0	-8.456000	0.919919	-5.249466	2.328955	0.790498	4.702548	-0.084961	0.007812	-0.052063	0.999647	0.011643	0.003952	0.023510	
54574	    0	-6.944581	0.205142	-6.085041	1.388575	0.874274	5.889475	-0.069739	0.000422	-0.060539	0.999533	0.006942	0.004371	0.029443	
54575	    0	-6.775648	-0.305505	-7.122516	0.706631	0.937278	7.023579	-0.067932	-0.005188	-0.070923	0.999366	0.003532	0.004685	0.035110	
54576	    0	-5.974736	-0.929230	-7.305202	0.350478	0.940967	8.126240	-0.059650	-0.011590	-0.072790	0.999162	0.001752	0.004704	0.040620	
54577	    0	-2.688285	-2.243305	-6.702451	0.368053	0.845626	9.011870	-0.026123	-0.023499	-0.066956	0.998974	0.001840	0.004227	0.045044	
54578	    0	0.391566	-3.159499	-5.794669	0.622419	0.687294	9.614676	0.005222	-0.031184	-0.058061	0.998834	0.003111	0.003435	0.048055	
54579	    0	3.132742	-3.046631	-5.610783	1.012851	0.494786	10.036155	0.032654	-0.028564	-0.056335	0.998725	0.005062	0.002473	0.050159	
54580	    0	5.871534	-2.630791	-6.147921	1.090158	0.291574	10.326832	0.059867	-0.022900	-0.061697	0.998651	0.005448	0.001457	0.051611	
54581	    0	8.792095	-3.410616	-4.285523	0.642691	0.306271	10.498312	0.089478	-0.029297	-0.043091	0.998616	0.003212	0.001531	0.052467	
54582	    0	11.734369	-3.464734	-2.782054	0.552060	0.154760	10.689689	0.118946	-0.028239	-0.027996	0.998568	0.002759	0.000773	0.053423	
54583	    0	14.369284	-2.508737	-2.218194	0.851861	-0.068508	10.856652	0.144775	-0.017151	-0.022217	0.998517	0.004257	-0.000342	0.054256	
54584	    0	16.123201	-0.054331	-3.139595	1.426091	-0.341972	10.981453	0.160983	0.008526	-0.031081	0.998466	0.007127	-0.001709	0.054879	
54585	    0	18.264091	2.001368	-2.999342	1.907801	-0.550375	11.181545	0.181213	0.030457	-0.029236	0.998388	0.009534	-0.002750	0.055878	
54586	    0	21.339080	4.184356	-1.896709	2.192178	-0.607825	11.267570	0.210632	0.053966	-0.017776	0.998348	0.010955	-0.003037	0.056307	
54587	    0	25.606626	7.257768	-1.630866	2.564123	-0.672328	11.174811	0.251526	0.086914	-0.014404	0.998351	0.012814	-0.003360	0.055843	
54588	    0	29.751830	11.615062	-2.114565	2.978409	-0.742742	10.969942	0.290618	0.132508	-0.018165	0.998378	0.014884	-0.003712	0.054820	
54589	    0	31.093362	16.007365	-3.347803	3.511324	-0.770774	10.502676	0.302063	0.176636	-0.029297	0.998460	0.017548	-0.003852	0.052486	
54590	    0	30.822034	21.573490	-4.516803	3.747396	-0.788102	9.855092	0.297237	0.231345	-0.039743	0.998603	0.018728	-0.003939	0.049253	
54591	    0	32.732530	31.202327	-4.392075	3.446798	-0.638642	9.091731	0.312805	0.327148	-0.037354	0.998813	0.017227	-0.003192	0.045441	
54592	    0	34.489372	39.189165	-3.525684	2.755818	-0.440923	8.105471	0.328699	0.405863	-0.028991	0.999081	0.013775	-0.002204	0.040515	
54593	    0	31.536730	45.162475	-4.996397	1.708001	-0.456332	6.803006	0.299866	0.462402	-0.045349	0.999382	0.008538	-0.002281	0.034008	
54594	    0	22.426217	47.612963	-9.357029	0.469838	-0.505319	5.408957	0.211509	0.482183	-0.091897	0.999628	0.002349	-0.002526	0.027041	
54595	    0	15.441850	45.206831	-15.089744	-0.495180	-0.386645	3.895059	0.145874	0.454590	-0.151733	0.999804	-0.002476	-0.001933	0.019474	
54596	    0	13.246977	45.479029	-12.181765	-1.145580	-0.387010	1.992461	0.128174	0.455375	-0.124174	0.999931	-0.005728	-0.001935	0.009962	
54597	    0	6.076623	46.098734	-3.224704	-1.751734	-0.498016	0.238803	0.060303	0.460754	-0.036133	0.999957	-0.008759	-0.002490	0.001194	
54598	    0	3.322850	39.514656	0.870904	-2.453122	-0.413718	-1.306195	0.035797	0.394986	0.003936	0.999901	-0.012265	-0.002069	-0.006531	
54599	    0	5.068637	33.096212	0.880416	-2.749041	-0.271432	-2.684187	0.055115	0.330322	0.004333	0.999814	-0.013744	-0.001357	-0.013420	
54600	    0	6.934397	28.394884	0.913699	-2.980130	-0.304060	-3.672562	0.074533	0.282707	0.005029	0.999719	-0.014899	-0.001520	-0.018361	
54601	    0	15.576558	17.180659	1.592480	-3.207769	-0.594971	-4.144004	0.159241	0.168762	0.013672	0.999652	-0.016037	-0.002975	-0.020718	
54602	    0	8.327792	-7.591380	-12.440782	-3.976178	-1.164392	-3.614309	0.082575	-0.079857	-0.122364	0.999621	-0.019878	-0.005821	-0.018069	
54603	    0	14.856558	-47.580136	-28.956160	-3.621030	-1.475651	-2.295118	0.145142	-0.482605	-0.279785	0.999743	-0.018104	-0.007378	-0.011475	
54604	    0	20.543178	-5.289030	-61.454084	4.130379	-3.005074	-2.844262	0.213984	-0.043231	-0.612328	0.999573	0.020649	-0.015023	-0.014219	
54605	    0	105.343455	169.954311	40.689711	-1.055247	4.603603	-14.757801	1.183716	1.617371	0.371948	0.997000	-0.005271	0.022995	-0.073715	
54606	    0	51.910257	-34.390957	24.157228	-3.998040	-4.388763	-4.979426	0.504845	-0.351527	0.259734	0.999249	-0.019985	-0.021938	-0.024891	
54607	    0	-11.526914	-15.760799	30.749071	0.038343	-2.073978	-5.602335	-0.122803	-0.154297	0.306213	0.999554	0.000192	-0.010368	-0.028008	
54608	    0	-10.009310	12.773937	1.474268	0.497719	-1.165223	-6.522425	-0.095943	0.130877	0.014499	0.999448	0.002488	-0.005825	-0.032606	
54609	    0	13.069494	12.043129	1.652787	0.362437	-0.616333	-5.119131	0.133667	0.117004	0.017151	0.999665	0.001812	-0.003081	-0.025593	
54610	    0	14.913089	5.276252	-4.358840	-0.203912	-0.972634	-4.231214	0.150412	0.049545	-0.042911	0.999763	-0.001019	-0.004863	-0.021154	
54611	    0	3.372200	0.678808	-9.012948	-0.413347	-1.035371	-3.638678	0.034302	0.005981	-0.089966	0.999819	-0.002067	-0.005177	-0.018192	
54612	    0	12.280811	11.299708	-10.038681	-1.321108	-0.337430	-3.505723	0.124926	0.110154	-0.100911	0.999823	-0.006605	-0.001687	-0.017528	
54613	    0	15.897714	4.422820	-0.898508	-0.663787	-0.116544	-3.226617	0.159668	0.041626	-0.009033	0.999864	-0.003319	-0.000583	-0.016132	
54614	    0	16.147613	10.183731	-9.085452	-0.805885	0.266085	-2.900997	0.162806	0.099114	-0.091474	0.999886	-0.004029	0.001330	-0.014504	
54615	    0	17.846908	9.752384	-6.647692	-0.914031	0.590725	-2.575768	0.179504	0.094910	-0.067444	0.999902	-0.004570	0.002954	-0.012878	
54616	    0	19.303432	3.400882	-9.799530	-0.880265	0.517287	-2.318635	0.193153	0.031337	-0.098637	0.999919	-0.004401	0.002586	-0.011593	
54617	    0	24.916824	1.455204	-4.934339	-1.090268	0.853942	-2.055411	0.249084	0.011719	-0.050476	0.999923	-0.005451	0.004270	-0.010277	
54618	    0	27.520531	1.277008	1.064590	-1.039146	0.869007	-1.807442	0.275349	0.010333	0.009392	0.999936	-0.005196	0.004345	-0.009037	
54619	    0	28.245917	0.597911	3.808014	-0.992412	0.843826	-1.641113	0.282654	0.003845	0.036865	0.999945	-0.004962	0.004219	-0.008205	
54620	    0	24.962248	-3.763913	2.992335	-1.380752	0.529870	-1.288244	0.249453	-0.039042	0.029529	0.999951	-0.006904	0.002649	-0.006441	
54621	    0	23.375119	-8.432406	3.979471	-2.053112	0.221448	-0.794236	0.233459	-0.084839	0.040405	0.999938	-0.010265	0.001107	-0.003971	
54622	    0	18.979724	-6.671396	3.895739	-2.521774	-0.083735	-0.390636	0.189651	-0.066586	0.039877	0.999918	-0.012609	-0.000419	-0.001953	
54623	    0	16.641036	-8.982658	0.447327	-2.842046	-0.204284	-0.186927	0.166321	-0.089905	0.005920	0.999898	-0.014210	-0.001021	-0.000935	
54624	    0	15.646352	-10.842234	-6.583867	-2.671895	-0.241287	-0.279244	0.156389	-0.109506	-0.064192	0.999908	-0.013359	-0.001206	-0.001396	
54625	    0	19.012066	-10.987139	-2.696721	-1.404394	0.183870	-0.502019	0.189819	-0.110535	-0.026367	0.999971	-0.007022	0.000919	-0.002510	
54626	    0	18.416143	-1.407708	0.645089	-0.613409	0.629813	-1.252187	0.184088	-0.015211	0.005917	0.999970	-0.003067	0.003149	-0.006261	
54627	    0	15.744105	7.725520	-3.494871	-0.186925	0.868440	-2.411718	0.158203	0.075317	-0.035706	0.999917	-0.000935	0.004342	-0.012058	
54628	    0	8.364899	8.439830	-6.984078	-0.731321	1.027168	-3.562376	0.084770	0.082638	-0.070579	0.999821	-0.003656	0.005136	-0.017811	
54629	    0	12.567012	15.390848	-10.693920	-0.391422	0.577023	-4.509363	0.128784	0.150818	-0.107605	0.999740	-0.001957	0.002885	-0.022545	
54630	    0	13.773537	10.155513	-6.065593	-0.562159	0.804801	-5.100060	0.140016	0.097832	-0.061495	0.999662	-0.002810	0.004024	-0.025497	
54631	    0	18.961962	-0.423497	-2.017454	-0.106061	0.871570	-5.247353	0.189331	-0.009216	-0.020996	0.999646	-0.000530	0.004357	-0.026234	
54632	    0	23.996657	-5.233378	0.619336	0.559121	0.777161	-5.663887	0.238378	-0.059115	0.005106	0.999587	0.002795	0.003885	-0.028316	
54633	    0	24.845922	-6.942140	1.583336	0.769365	0.677606	-6.309821	0.246155	-0.077271	0.014709	0.999489	0.003846	0.003387	-0.031544	
54634	    0	27.831660	-4.965039	2.271903	-0.054370	0.725126	-6.839193	0.276483	-0.059121	0.021729	0.999409	-0.000272	0.003625	-0.034189	
54635	    0	33.123687	-1.999098	2.752597	-1.305503	0.811194	-7.321348	0.330322	-0.031921	0.026367	0.999300	-0.006526	0.004055	-0.036598	
54636	    0	37.139250	-1.208600	2.016242	-2.601216	0.702294	-7.794300	0.370621	-0.026289	0.019140	0.999149	-0.013002	0.003510	-0.038960	
54637	    0	34.236007	-8.087581	-0.516576	-3.032730	0.558048	-7.381118	0.339050	-0.093506	-0.004761	0.999200	-0.015160	0.002789	-0.036896	
54638	    0	30.595640	-14.520628	-2.611687	-2.743234	0.433263	-7.057355	0.300518	-0.156221	-0.024679	0.999281	-0.013713	0.002166	-0.035278	
54639	    0	28.426235	-15.323796	-4.928533	-2.353449	0.452718	-7.051190	0.278503	-0.163696	-0.048035	0.999307	-0.011765	0.002263	-0.035248	
54640	    0	25.360665	-10.982198	-5.108945	-2.314707	0.453288	-6.963009	0.249452	-0.119142	-0.050315	0.999324	-0.011571	0.002266	-0.034807	
54641	    0	22.920452	-7.836687	-4.022275	-2.479320	0.376400	-6.709961	0.226318	-0.086487	-0.039612	0.999358	-0.012394	0.001882	-0.033543	
54642	    0	20.794075	-6.449880	-2.645592	-2.492634	0.300657	-6.407667	0.205687	-0.071439	-0.025905	0.999408	-0.012461	0.001503	-0.032032	
54643	    0	20.355278	-6.790655	-2.438490	-2.265363	0.354064	-5.976362	0.201355	-0.074219	-0.023926	0.999487	-0.011325	0.001770	-0.029877	
54644	    0	21.264638	-8.923464	-2.077702	-1.579291	0.534124	-5.212481	0.210167	-0.094897	-0.020606	0.999625	-0.007895	0.002670	-0.026059	
54645	    0	19.893059	-11.339864	-3.548747	-0.530851	0.656935	-3.929403	0.196533	-0.117371	-0.035828	0.999798	-0.002654	0.003284	-0.019646	
54646	    0	14.582073	-9.025088	-6.267948	0.213438	0.538840	-2.458638	0.144527	-0.091966	-0.063168	0.999920	0.001067	0.002694	-0.012293	
54647	    0	9.919185	-6.385553	-4.044373	0.167848	0.430492	-1.277933	0.098694	-0.064453	-0.040710	0.999976	0.000839	0.002152	-0.006390	
54648	    0	0.673998	-4.731043	-4.202917	0.647165	0.284196	0.102616	0.006704	-0.047171	-0.042192	0.999993	0.003236	0.001421	0.000513	
54649	    0	-4.024303	-2.946391	-3.432314	1.339174	0.482949	1.531247	-0.040100	-0.029541	-0.034424	0.999945	0.006696	0.002415	0.007656	
54650	    0	-8.124382	-0.896987	-4.646214	2.175459	0.551447	3.015696	-0.081229	-0.009690	-0.046341	0.999823	0.010877	0.002757	0.015078	
54651	    0	-8.583815	0.713541	-5.695951	1.932896	0.741646	4.238522	-0.086182	0.005859	-0.056580	0.999722	0.009664	0.003708	0.021191	
54652	    0	-6.713724	0.824358	-5.637094	1.183666	0.863380	5.431892	-0.067576	0.006744	-0.056037	0.999604	0.005918	0.004316	0.027156	
54653	    0	-5.191553	-0.442651	-6.009212	0.515079	0.887653	6.576989	-0.052002	-0.005981	-0.059875	0.999446	0.002575	0.004437	0.032879	
54654	    0	-4.660328	-2.022861	-6.002286	0.306015	0.865388	7.663913	-0.046044	-0.021909	-0.059855	0.999255	0.001530	0.004326	0.038310	
54655	    0	-2.064548	-2.760478	-5.463134	0.521440	0.781493	8.584974	-0.019653	-0.028320	-0.054626	0.999067	0.002606	0.003906	0.042912	
54656	    0	1.312418	-3.010654	-5.014338	0.933602	0.703302	9.221726	0.014309	-0.029230	-0.050330	0.998919	0.004666	0.003515	0.046092	
54657	    0	3.696330	-2.510553	-4.440806	1.295217	0.616888	9.598493	0.037964	-0.023010	-0.044678	0.998822	0.006474	0.003083	0.047974	
54658	    0	5.607802	-2.268588	-3.799945	1.509345	0.543059	9.900618	0.056995	-0.019590	-0.038309	0.998742	0.007544	0.002714	0.049482	
54659	    0	7.898483	-2.605906	-3.385388	1.617385	0.500138	10.169909	0.080078	-0.021729	-0.034241	0.998672	0.008083	0.002500	0.050827	
54660	    0	10.679502	-3.168175	-3.175368	1.627345	0.431834	10.440732	0.108175	-0.025796	-0.032212	0.998602	0.008133	0.002158	0.052179	
54661	    0	13.612920	-3.041548	-1.963861	1.776236	0.404748	10.725351	0.137451	-0.022888	-0.020142	0.998521	0.008877	0.002023	0.053600	
54662	    0	15.889073	-0.629925	-2.801460	2.191348	0.215070	10.951777	0.158876	0.002712	-0.028189	0.998440	0.010951	0.001075	0.054730	
54663	    0	17.900339	2.026990	-2.104043	2.252626	0.223087	11.039471	0.177490	0.030334	-0.020935	0.998412	0.011257	0.001115	0.055168	
54664	    0	20.378995	4.400652	-2.492709	2.590251	0.061832	11.119396	0.200907	0.055552	-0.024320	0.998370	0.012944	0.000309	0.055567	
54665	    0	24.339491	7.743108	-3.463328	2.797130	-0.029008	11.106839	0.238586	0.091248	-0.033386	0.998360	0.013978	-0.000145	0.055504	
54666	    0	27.481456	12.315839	-3.979103	3.119587	-0.149806	10.806058	0.267639	0.138350	-0.037509	0.998419	0.015590	-0.000749	0.054002	
54667	    0	28.479633	16.986487	-4.734287	3.561620	-0.225750	10.237557	0.275635	0.184937	-0.043823	0.998530	0.017799	-0.001128	0.051163	
54668	    0	27.607202	22.408032	-5.719842	3.879535	-0.300349	9.505062	0.265062	0.237902	-0.052268	0.998681	0.019389	-0.001501	0.047504	
54669	    0	27.410959	29.964444	-6.587385	3.651996	-0.234880	8.606041	0.260925	0.312195	-0.059937	0.998906	0.018253	-0.001174	0.043015	
54670	    0	28.651664	37.254317	-6.796238	2.995948	-0.184111	7.624661	0.272078	0.384060	-0.062011	0.999161	0.014976	-0.000920	0.038113	
54671	    0	28.091190	43.036987	-7.992985	1.742117	-0.280623	6.463306	0.266907	0.439819	-0.075745	0.999438	0.008709	-0.001403	0.032310	
54672	    0	21.667431	47.834411	-9.258463	0.082597	-0.518857	5.171214	0.204451	0.483774	-0.091845	0.999661	0.000413	-0.002594	0.025853	
54673	    0	13.627065	46.849779	-12.041033	-1.403150	-0.542300	3.953084	0.127319	0.470215	-0.123352	0.999776	-0.007015	-0.002711	0.019764	
54674	    0	13.013600	43.728227	-10.647861	-2.400324	-0.395222	2.386018	0.125134	0.437477	-0.111478	0.999854	-0.012001	-0.001976	0.011930	
54675	    0	8.161859	42.828767	-5.294720	-2.719780	-0.429549	0.691246	0.080261	0.427795	-0.058594	0.999899	-0.013598	-0.002148	0.003456	
54676	    0	5.041668	37.866021	-1.375299	-3.149745	-0.442143	-0.755344	0.051885	0.378188	-0.019598	0.999866	-0.015748	-0.002211	-0.003777	
54677	    0	5.069699	32.594438	1.210163	-3.576721	-0.267811	-2.007435	0.053955	0.325562	0.006348	0.999788	-0.017882	-0.001339	-0.010036	
54678	    0	5.394663	26.353609	2.678537	-3.960628	-0.216887	-2.912243	0.057755	0.263176	0.021632	0.999697	-0.019801	-0.001084	-0.014560	
54679	    0	13.432629	17.164091	0.420327	-4.502518	-0.617301	-3.393247	0.137207	0.169373	0.000793	0.999598	-0.022510	-0.003086	-0.016964	
54680	    0	6.924442	-0.482633	-10.094207	-5.018791	-0.711165	-3.169341	0.069488	-0.008452	-0.100513	0.999553	-0.025090	-0.003555	-0.015844	
54681	    0	12.542848	-28.230647	-36.695593	-3.091488	-2.088333	-2.302736	0.125916	-0.289368	-0.361206	0.999760	-0.015456	-0.010441	-0.011513	
54682	    0	40.741222	31.988386	-69.690516	2.156358	-0.810733	-5.207765	0.418496	0.316560	-0.691798	0.999595	0.010780	-0.004053	-0.026035	
54683	    0	104.298706	112.408399	80.461402	-2.333220	3.350460	-13.247604	1.127808	1.060364	0.773560	0.997599	-0.011657	0.016739	-0.066185	
54684	    0	31.024909	-37.316771	4.961981	-1.475906	-3.801454	-3.776464	0.302083	-0.378515	0.058194	0.999614	-0.007379	-0.019005	-0.018880	
54685	    0	-19.531105	4.418745	22.521336	0.725106	-2.038920	-6.003063	-0.196167	0.049255	0.223389	0.999491	0.003625	-0.010193	-0.030010	
54686	    0	-6.007275	11.110903	1.796004	-0.161192	-0.508375	-5.591174	-0.056981	0.112745	0.017722	0.999605	-0.000806	-0.002542	-0.027952	
54687	    0	17.852773	14.460637	-0.557232	0.089462	-0.422705	-4.544462	0.181763	0.140503	-0.005127	0.999739	0.000447	-0.002113	-0.022720	
54688	    0	13.108847	1.600026	-2.360313	-0.074200	-0.791975	-3.556067	0.131437	0.013657	-0.023088	0.999833	-0.000371	-0.003960	-0.017779	
54689	    0	6.429125	7.764038	-12.706178	-1.092580	-0.491165	-3.116752	0.065796	0.075928	-0.127319	0.999860	-0.005463	-0.002456	-0.015583	
54690	    0	14.344133	9.041802	-2.934453	-0.919951	-0.003624	-2.976538	0.144765	0.088134	-0.029751	0.999878	-0.004600	-0.000018	-0.014882	
54691	    0	16.469246	4.304850	-5.001102	-0.617236	0.260361	-2.571945	0.165161	0.040771	-0.050354	0.999911	-0.003086	0.001302	-0.012859	
54692	    0	20.015696	10.602885	-9.085371	-0.960759	0.820183	-2.274387	0.200966	0.103306	-0.092177	0.999915	-0.004804	0.004101	-0.011372	
54693	    0	22.448884	4.190702	-6.898614	-0.804730	0.874350	-2.120261	0.224609	0.039246	-0.070129	0.999926	-0.004024	0.004372	-0.010601	
54694	    0	27.333222	1.656473	-9.674584	-1.025987	0.863096	-1.982736	0.273054	0.013356	-0.097999	0.999928	-0.005130	0.004315	-0.009913	
54695	    0	29.437877	-5.109471	-2.010627	-1.110100	0.805109	-1.784553	0.293823	-0.053833	-0.020996	0.999936	-0.005550	0.004025	-0.008923	
54696	    0	28.608055	0.434084	3.108128	-1.442942	0.690858	-1.717416	0.286210	0.002103	0.030072	0.999930	-0.007215	0.003454	-0.008587	
54697	    0	28.159477	-3.380319	5.851535	-1.940973	0.445760	-1.667070	0.281433	-0.035583	0.058228	0.999915	-0.009705	0.002229	-0.008335	
54698	    0	26.768647	-11.475335	4.569240	-2.780827	0.035669	-1.097339	0.267062	-0.115570	0.047248	0.999887	-0.013904	0.000178	-0.005486	
54699	    0	20.772050	-13.389801	4.567822	-2.944866	-0.196083	-0.505085	0.207336	-0.133728	0.047852	0.999887	-0.014724	-0.000980	-0.002525	
54700	    0	16.611960	-13.186615	-0.193474	-3.132760	-0.182541	-0.430888	0.165835	-0.132231	0.000286	0.999874	-0.015663	-0.000913	-0.002154	
54701	    0	15.091672	-9.057287	-7.574711	-2.645008	-0.094608	-0.958284	0.150513	-0.092285	-0.074463	0.999901	-0.013225	-0.000473	-0.004791	
54702	    0	18.764591	-9.268796	-2.431094	-1.477080	0.542461	-1.522095	0.186867	-0.094291	-0.024126	0.999940	-0.007385	0.002712	-0.007610	
54703	    0	16.547864	0.662427	-2.718955	-0.268372	0.989561	-2.429270	0.165405	0.004578	-0.028015	0.999912	-0.001342	0.004948	-0.012146	
54704	    0	12.540063	7.467914	-7.193871	0.316258	1.317489	-3.657573	0.126263	0.072490	-0.072653	0.999809	0.001581	0.006587	-0.018287	
54705	    0	9.624809	5.070392	-9.796164	0.391427	1.336993	-4.662020	0.096741	0.048645	-0.098511	0.999703	0.001957	0.006684	-0.023308	
54706	    0	16.561826	13.054682	-9.958897	1.136561	1.215155	-5.619853	0.168603	0.126404	-0.099881	0.999570	0.005682	0.006075	-0.028095	
54707	    0	18.047396	4.758458	-2.192037	1.559134	1.312473	-5.959542	0.181641	0.042358	-0.022766	0.999504	0.007794	0.006561	-0.029793	
54708	    0	21.893473	-1.133937	0.177805	1.934773	0.978833	-6.124047	0.218455	-0.018044	0.000555	0.999472	0.009672	0.004893	-0.030615	
54709	    0	24.712317	-4.179303	2.487324	1.906378	0.602074	-6.470963	0.245667	-0.049988	0.023682	0.999426	0.009530	0.003010	-0.032349	
54710	    0	25.718718	-3.644946	3.027405	1.166772	0.239612	-6.886739	0.255761	-0.045448	0.029719	0.999389	0.005833	0.001198	-0.034427	
54711	    0	28.483556	-0.869275	2.414860	-0.038918	0.201650	-7.193019	0.284302	-0.018921	0.023865	0.999352	-0.000195	0.001008	-0.035957	
54712	    0	33.415695	0.073840	1.761326	-1.650654	0.283694	-7.596787	0.333892	-0.011806	0.017202	0.999243	-0.008251	0.001418	-0.037974	
54713	    0	34.268749	-4.432244	-0.316186	-2.281585	0.003053	-7.519177	0.340698	-0.057190	-0.002563	0.999228	-0.011405	0.000015	-0.037586	
54714	    0	30.887337	-12.441956	-1.893939	-2.494054	-0.064674	-7.019140	0.304255	-0.135375	-0.017198	0.999306	-0.012467	-0.000323	-0.035088	
54715	    0	28.398191	-13.598703	-2.777773	-2.536587	-0.150142	-6.935170	0.279053	-0.146057	-0.025757	0.999318	-0.012680	-0.000751	-0.034668	
54716	    0	26.225747	-11.655840	-3.697043	-2.590958	-0.196502	-6.909413	0.258048	-0.125986	-0.035124	0.999318	-0.012952	-0.000982	-0.034539	
54717	    0	24.187113	-9.825368	-3.324038	-2.907255	-0.094626	-6.702388	0.238403	-0.106750	-0.031616	0.999332	-0.014533	-0.000473	-0.033504	
54718	    0	22.504905	-9.433095	-3.288235	-3.089208	-0.107024	-6.327792	0.221922	-0.101877	-0.031228	0.999380	-0.015443	-0.000535	-0.031632	
54719	    0	20.879679	-9.498953	-3.435141	-3.022561	-0.129533	-5.927607	0.205872	-0.101624	-0.032715	0.999446	-0.015110	-0.000648	-0.029633	
54720	    0	19.421451	-9.662026	-2.449547	-2.782694	-0.054177	-5.531050	0.191444	-0.102268	-0.023046	0.999520	-0.013911	-0.000271	-0.027651	
54721	    0	18.239334	-10.011901	-2.691220	-2.014967	0.007630	-4.884907	0.179871	-0.104797	-0.025879	0.999651	-0.010074	0.000038	-0.024422	
54722	    0	16.943565	-11.166524	-3.335127	-1.056547	0.191319	-3.748177	0.167270	-0.114988	-0.032910	0.999809	-0.005282	0.000957	-0.018740	
54723	    0	12.951850	-9.859456	-5.096745	-0.234037	0.176243	-2.242327	0.128357	-0.100098	-0.050964	0.999935	-0.001170	0.000881	-0.011211	
54724	    0	8.365736	-7.177216	-3.881683	-0.158883	0.204850	-0.848391	0.083312	-0.072157	-0.038845	0.999990	-0.000794	0.001024	-0.004242	
54725	    0	0.787797	-4.044480	-2.854128	0.107002	0.038910	0.609590	0.007996	-0.040405	-0.028564	0.999994	0.000535	0.000195	0.003048	
54726	    0	-5.776338	-3.234358	-3.237421	0.519573	0.215153	2.185868	-0.057441	-0.032888	-0.032397	0.999936	0.002598	0.001076	0.010929	
54727	    0	-10.005867	-0.884083	-2.833265	1.571002	0.303099	3.760027	-0.099915	-0.010498	-0.028259	0.999791	0.007854	0.001515	0.018799	
54728	    0	-10.141013	1.554155	-4.684277	1.420757	0.567120	5.038271	-0.101896	0.013309	-0.046454	0.999653	0.007103	0.002835	0.025188	
54729	    0	-6.046074	1.298964	-4.443971	0.793014	0.668444	6.162502	-0.060974	0.011292	-0.044189	0.999512	0.003964	0.003342	0.030807	
54730	    0	-4.610964	-1.076174	-5.830616	0.282160	0.614113	7.304494	-0.045856	-0.012358	-0.058182	0.999327	0.001410	0.003070	0.036514	
54731	    0	-3.957276	-2.429361	-5.973217	0.174192	0.630374	8.397105	-0.038696	-0.025879	-0.059631	0.999113	0.000871	0.003151	0.041973	
54732	    0	-0.366734	-3.276793	-5.447822	0.645300	0.509638	9.304186	-0.002283	-0.032720	-0.054577	0.998909	0.003225	0.002547	0.046504	
54733	    0	3.498507	-3.142152	-4.453105	1.260902	0.441354	9.919301	0.036377	-0.029358	-0.044800	0.998748	0.006302	0.002206	0.049576	
54734	    0	6.394867	-1.236077	-4.517533	1.893905	0.303216	10.273458	0.064387	-0.008631	-0.045366	0.998634	0.009465	0.001515	0.051344	
54735	    0	8.393761	-1.206185	-3.953850	1.903674	0.263530	10.496159	0.084351	-0.007263	-0.039734	0.998576	0.009514	0.001317	0.052456	
54736	    0	10.252386	-1.455965	-3.583940	1.815545	0.218881	10.711217	0.103056	-0.008721	-0.036049	0.998524	0.009073	0.001094	0.053530	
54737	    0	12.987482	-2.149302	-2.830131	1.677024	0.283384	10.872031	0.130737	-0.014160	-0.028625	0.998487	0.008381	0.001416	0.054333	
54738	    0	15.561474	-1.024578	-2.568125	1.967692	0.181483	11.003884	0.155831	-0.001419	-0.025866	0.998438	0.009833	0.000907	0.054991	
54739	    0	17.199950	1.565534	-3.493767	2.382604	-0.076335	11.100627	0.170776	0.025574	-0.034607	0.998388	0.011907	-0.000381	0.055473	
54740	    0	19.720057	4.406942	-3.068983	2.327874	-0.163932	11.296430	0.194306	0.055454	-0.029928	0.998337	0.011633	-0.000819	0.056451	
54741	    0	22.210945	5.823692	-1.881979	2.315304	-0.260119	11.414688	0.218323	0.070984	-0.017761	0.998303	0.011570	-0.001300	0.057041	
54742	    0	25.579894	9.183141	-2.965246	2.556118	-0.453819	11.233829	0.250159	0.106357	-0.027782	0.998338	0.012774	-0.002268	0.056138	
54743	    0	29.714420	13.058095	-4.447013	2.943445	-0.645596	10.832579	0.289612	0.147034	-0.041443	0.998420	0.014709	-0.003226	0.054134	
54744	    0	31.310477	16.171626	-5.436369	3.487010	-0.874758	10.243677	0.304476	0.178361	-0.050005	0.998527	0.017426	-0.004372	0.051193	
54745	    0	30.911069	19.775210	-5.724813	3.787407	-1.022607	9.613540	0.299377	0.213318	-0.051758	0.998652	0.018929	-0.005111	0.048046	
54746	    0	30.602273	24.515311	-4.102813	3.704712	-0.944877	8.738397	0.295083	0.258893	-0.034904	0.998862	0.018517	-0.004723	0.043675	
54747	    0	32.829465	30.495596	-2.340910	3.426058	-0.744853	7.746169	0.316223	0.317688	-0.016846	0.999096	0.017125	-0.003723	0.038719	
54748	    0	32.516303	38.154457	-3.297730	2.540358	-0.621354	6.593561	0.312435	0.392355	-0.027055	0.999371	0.012699	-0.003106	0.032961	
54749	    0	26.255771	44.720044	-6.887073	1.098965	-0.560070	5.422146	0.250488	0.454468	-0.065674	0.999613	0.005494	-0.002800	0.027107	
54750	    0	15.935074	45.055706	-13.656564	-0.095566	-0.545734	4.259818	0.150081	0.453754	-0.136364	0.999769	-0.000478	-0.002728	0.021297	
54751	    0	11.438190	42.061780	-12.743219	-0.914603	-0.484482	2.554402	0.109314	0.421448	-0.129089	0.999905	-0.004573	-0.002422	0.012772	
54752	    0	9.007582	41.971787	-3.873060	-1.311506	-0.422100	0.714691	0.088661	0.419771	-0.041295	0.999969	-0.006557	-0.002110	0.003573	
54753	    0	5.289266	38.627401	0.738377	-1.616500	-0.263218	-0.775157	0.054382	0.386108	0.004333	0.999958	-0.008082	-0.001316	-0.003876	
54754	    0	4.130164	32.801551	-0.940602	-1.697404	-0.090220	-2.199816	0.044910	0.327439	-0.012167	0.999903	-0.008487	-0.000451	-0.010999	
54755	    0	7.943447	27.757856	-1.588425	-1.625917	-0.012780	-3.333474	0.084045	0.276062	-0.018127	0.999827	-0.008129	-0.000064	-0.016666	
54756	    0	11.498261	21.147164	0.168082	-1.739644	-0.027277	-4.073094	0.119257	0.209076	-0.000129	0.999754	-0.008698	-0.000136	-0.020364	
54757	    0	10.573746	12.974337	1.915625	-2.082094	-0.001526	-4.626961	0.108704	0.127441	0.017822	0.999678	-0.010409	-0.000008	-0.023132	
54758	    0	10.484509	3.515952	-8.188195	-2.701700	-0.978014	-4.515233	0.105987	0.031670	-0.081809	0.999641	-0.013507	-0.004889	-0.022573	
54759	    0	10.422350	-36.669654	-24.470960	-4.471389	-1.240505	-2.954474	0.100220	-0.373535	-0.235779	0.999621	-0.022354	-0.006202	-0.014771	
54760	    0	10.226890	-27.890292	-55.317270	1.830062	-3.631703	-1.841317	0.109778	-0.274825	-0.553752	0.999750	0.009150	-0.018157	-0.009206	
54761	    0	82.382426	145.396812	-22.859449	-0.853554	3.490754	-12.346762	0.907104	1.398621	-0.250000	0.997933	-0.004265	0.017442	-0.061691	
54762	    0	78.936696	5.018262	54.736730	-4.444301	-2.516841	-7.461419	0.783851	0.033164	0.556394	0.998978	-0.022214	-0.012580	-0.037294	
54763	    0	4.041716	-21.314524	19.222529	-0.399641	-2.629430	-4.897942	0.032654	-0.213623	0.193115	0.999611	-0.001998	-0.013145	-0.024487	
54764	    0	-24.356822	1.521807	6.971652	1.107622	-1.714086	-6.519632	-0.243494	0.022779	0.067741	0.999416	0.005537	-0.008569	-0.032592	
54765	    0	5.543574	14.704740	2.777560	0.319135	-0.444081	-5.162628	0.059143	0.145508	0.028137	0.999662	0.001595	-0.002220	-0.025810	
54766	    0	19.408208	14.667435	-3.410164	-0.170530	-0.741633	-4.196103	0.197227	0.142529	-0.033497	0.999772	-0.000853	-0.003708	-0.020979	
54767	    0	5.806780	-2.502145	-1.876389	-0.315110	-1.005413	-3.285380	0.057739	-0.026001	-0.018433	0.999850	-0.001575	-0.005027	-0.016426	
54768	    0	9.790210	14.387693	-9.643821	-0.999880	-0.602941	-3.163297	0.100448	0.141818	-0.096850	0.999857	-0.004999	-0.003015	-0.015816	
54769	    0	16.343560	7.138338	-2.056776	-0.875122	-0.296603	-2.757360	0.164429	0.069031	-0.020630	0.999894	-0.004375	-0.001483	-0.013786	
54770	    0	15.891438	7.586644	-3.343221	-0.309570	-0.006294	-2.347810	0.159791	0.073942	-0.033543	0.999929	-0.001548	-0.000031	-0.011739	
54771	    0	18.698562	12.529802	-9.146800	-0.923939	0.391587	-2.010388	0.188049	0.122986	-0.092407	0.999936	-0.004620	0.001958	-0.010052	
54772	    0	21.655169	2.770477	-8.061323	-0.704777	0.471123	-1.775579	0.216594	0.025496	-0.081216	0.999951	-0.003524	0.002356	-0.008878	
54773	    0	27.681240	1.381603	-7.686308	-1.083391	0.599871	-1.521326	0.276672	0.011292	-0.077759	0.999951	-0.005417	0.002999	-0.007607	
54774	    0	29.640791	-1.116809	0.061282	-1.150339	0.694476	-1.358816	0.296323	-0.013182	-0.000344	0.999954	-0.005752	0.003472	-0.006794	
54775	    0	29.437771	1.848237	2.443920	-1.508931	0.508890	-1.358057	0.294556	0.016663	0.023560	0.999945	-0.007545	0.002544	-0.006790	
54776	    0	29.196616	-4.164199	3.833892	-1.991127	0.161365	-1.237135	0.291734	-0.043064	0.038527	0.999930	-0.009955	0.000807	-0.006186	
54777	    0	26.103476	-10.270380	5.151286	-2.818205	-0.295268	-0.537128	0.260681	-0.102661	0.053345	0.999895	-0.014091	-0.001476	-0.002686	
54778	    0	19.337972	-9.790436	5.516722	-3.585630	-0.543243	-0.056651	0.193198	-0.096943	0.057436	0.999835	-0.017927	-0.002716	-0.000283	
54779	    0	17.417577	-14.723023	2.941367	-4.264971	-0.618029	0.076300	0.174133	-0.146484	0.033081	0.999767	-0.021323	-0.003090	0.000381	
54780	    0	15.291139	-11.721810	-3.632869	-3.858048	-0.522456	-0.245873	0.152857	-0.118073	-0.033657	0.999809	-0.019289	-0.002612	-0.001229	
54781	    0	15.999708	-5.310050	-2.255801	-2.464176	0.096896	-0.956754	0.159729	-0.054138	-0.021973	0.999912	-0.012321	0.000484	-0.004784	
54782	    0	16.376201	5.412613	-3.258000	-1.270511	0.475893	-1.775779	0.164154	0.052460	-0.033307	0.999937	-0.006352	0.002379	-0.008879	
54783	    0	13.824548	10.433707	-6.043009	-1.084951	0.770796	-3.072501	0.139587	0.101868	-0.061523	0.999860	-0.005424	0.003854	-0.015362	
54784	    0	6.862098	11.804997	-7.817770	-1.444362	1.024902	-4.058979	0.070585	0.116060	-0.079379	0.999754	-0.007221	0.005124	-0.020293	
54785	    0	14.953517	21.314533	-9.254750	-1.716822	0.971531	-5.027619	0.154358	0.208496	-0.095093	0.999635	-0.008583	0.004857	-0.025135	
54786	    0	15.510511	7.309535	-3.167047	-1.790661	1.289345	-5.138304	0.156698	0.068789	-0.033306	0.999609	-0.008952	0.006446	-0.025688	
54787	    0	21.626064	-1.279836	-1.635888	-1.082754	1.326354	-5.358830	0.215698	-0.018677	-0.017700	0.999604	-0.005413	0.006631	-0.026791	
54788	    0	24.235915	-6.063654	-0.010092	-0.207742	1.257519	-5.958144	0.240403	-0.067820	-0.001549	0.999536	-0.001039	0.006287	-0.029786	
54789	    0	24.637562	-6.980910	0.468719	-0.068677	1.157780	-6.496082	0.243958	-0.077759	0.003296	0.999455	-0.000343	0.005788	-0.032475	
54790	    0	28.156194	-4.778308	1.345491	-0.584150	1.180509	-6.887130	0.279769	-0.057403	0.011958	0.999385	-0.002920	0.005901	-0.034429	
54791	    0	31.866849	-1.899412	1.121344	-1.655979	1.202874	-7.335910	0.317749	-0.030579	0.009521	0.999274	-0.008278	0.006013	-0.036671	
54792	    0	33.889885	-1.776715	-0.888375	-2.661129	1.291071	-7.728302	0.337807	-0.030972	-0.010714	0.999144	-0.013302	0.006454	-0.038630	
54793	    0	32.358816	-7.543927	-1.249504	-3.067875	1.415840	-7.468216	0.320374	-0.087646	-0.013489	0.999160	-0.015335	0.007077	-0.037331	
54794	    0	31.475520	-12.931479	-2.254344	-2.746361	1.485649	-7.369482	0.309530	-0.141100	-0.022972	0.999199	-0.013728	0.007426	-0.036838	
54795	    0	30.260326	-13.394789	-4.120624	-2.141358	1.336441	-7.435992	0.297058	-0.145508	-0.041687	0.999228	-0.010704	0.006680	-0.037170	
54796	    0	28.045669	-11.083635	-4.374014	-1.763963	1.338711	-7.303293	0.275856	-0.121358	-0.044558	0.999271	-0.008818	0.006692	-0.036508	
54797	    0	25.651094	-9.130736	-4.299193	-1.544534	1.247112	-7.038922	0.252808	-0.100586	-0.043823	0.999331	-0.007721	0.006234	-0.035187	
54798	    0	23.947448	-9.003733	-3.950369	-1.193282	1.168100	-6.681046	0.236051	-0.098201	-0.040319	0.999407	-0.005965	0.005839	-0.033399	
54799	    0	22.515881	-9.377230	-3.193741	-0.833275	1.120381	-6.318241	0.221863	-0.100952	-0.032776	0.999476	-0.004166	0.005601	-0.031586	
54800	    0	21.938306	-9.631167	-2.739415	-0.407661	1.092690	-5.834868	0.216295	-0.102710	-0.028377	0.999557	-0.002038	0.005463	-0.029170	
54801	    0	22.050991	-10.516709	-2.814147	0.303875	1.129277	-5.063436	0.217590	-0.110657	-0.029541	0.999662	0.001519	0.005646	-0.025314	
54802	    0	20.069888	-10.411711	-4.833325	1.125231	1.199623	-3.944316	0.198300	-0.107765	-0.050127	0.999771	0.005626	0.005998	-0.019720	
54803	    0	15.342092	-9.108149	-6.402053	1.498668	1.104021	-2.620047	0.151855	-0.092590	-0.065552	0.999870	0.007493	0.005520	-0.013100	
54804	    0	11.307618	-8.170820	-5.794461	1.535449	0.966475	-1.404602	0.112217	-0.082047	-0.059117	0.999933	0.007677	0.004832	-0.007023	
54805	    0	4.246947	-5.445815	-5.511620	1.699853	0.702105	-0.141146	0.042236	-0.054016	-0.055725	0.999957	0.008499	0.003510	-0.000706	
54806	    0	-2.126598	-2.558300	-5.375398	1.529531	0.759329	1.226448	-0.021315	-0.025302	-0.053867	0.999945	0.007648	0.003797	0.006132	
54807	    0	-7.185191	-0.737615	-5.279127	1.321464	0.810465	2.689470	-0.071960	-0.007996	-0.052551	0.999879	0.006607	0.004052	0.013447	
54808	    0	-10.766642	0.062797	-7.445067	0.738199	0.899382	4.074020	-0.107986	-0.001296	-0.073968	0.999775	0.003691	0.004497	0.020369	
54809	    0	-10.028410	1.162417	-8.245937	-0.153370	0.986032	5.382447	-0.100952	0.008850	-0.081970	0.999625	-0.000767	0.004930	0.026909	
54810	    0	-7.540455	-0.036221	-8.495786	-0.930394	0.864006	6.699906	-0.075693	-0.003289	-0.084620	0.999418	-0.004651	0.004319	0.033493	
54811	    0	-8.216939	-2.970100	-9.046731	-1.092827	0.648866	7.981756	-0.081177	-0.033447	-0.090027	0.999183	-0.005463	0.003243	0.039898	
54812	    0	-4.836936	-5.207315	-7.698926	-0.569922	0.531953	9.073532	-0.046140	-0.054420	-0.076712	0.998963	-0.002849	0.002659	0.045352	
54813	    0	0.575296	-4.462224	-5.839450	0.288697	0.369410	9.775629	0.007812	-0.044189	-0.058472	0.998802	0.001443	0.001846	0.048859	
54814	    0	4.460524	-2.516875	-5.511943	0.922603	0.099034	10.156455	0.045770	-0.022609	-0.055250	0.998699	0.004611	0.000495	0.050760	
54815	    0	7.382737	-1.940132	-4.894039	1.097035	-0.054957	10.408192	0.074707	-0.015259	-0.049011	0.998631	0.005483	-0.000275	0.052017	
54816	    0	9.605282	-2.862833	-3.830392	1.202203	-0.171934	10.629191	0.097417	-0.023243	-0.038371	0.998569	0.006008	-0.000859	0.053121	
54817	    0	12.524395	-3.403922	-3.777026	1.336003	-0.293115	10.871985	0.126892	-0.026917	-0.037781	0.998499	0.006677	-0.001465	0.054333	
54818	    0	15.508987	-2.550960	-2.646687	1.592704	-0.344265	11.068967	0.156221	-0.016671	-0.026355	0.998435	0.007959	-0.001720	0.055316	
54819	    0	17.189794	-0.410634	-2.259300	2.064103	-0.479194	11.184627	0.171814	0.005737	-0.022156	0.998380	0.010315	-0.002395	0.055893	
54820	    0	19.046455	1.656498	-2.276069	2.491821	-0.602297	11.309092	0.189179	0.027567	-0.021892	0.998319	0.012452	-0.003010	0.056514	
54821	    0	21.915749	3.272435	-2.236245	2.697801	-0.687619	11.499626	0.216858	0.045532	-0.021057	0.998250	0.013481	-0.003436	0.057465	
54822	    0	25.436092	5.241175	-1.470239	2.727007	-0.588380	11.521600	0.250815	0.067121	-0.013112	0.998243	0.013627	-0.002940	0.057574	
54823	    0	29.569537	9.732300	-4.380297	3.279501	-0.728842	11.345423	0.289673	0.114563	-0.040955	0.998250	0.016388	-0.003642	0.056694	
54824	    0	33.204888	16.714958	-5.471556	3.466037	-0.612406	10.950593	0.322369	0.185884	-0.050604	0.998346	0.017321	-0.003060	0.054723	
54825	    0	32.960632	22.948596	-4.524131	3.643306	-0.542527	10.236065	0.317383	0.246704	-0.039978	0.998521	0.018208	-0.002711	0.051155	
54826	    0	30.097640	28.445376	-4.526323	3.639043	-0.564241	9.375530	0.287303	0.298888	-0.039087	0.998732	0.018188	-0.002820	0.046858	
54827	    0	31.712310	35.726854	-5.795455	3.331375	-0.536340	8.428034	0.301819	0.371094	-0.051025	0.998969	0.016651	-0.002681	0.042126	
54828	    0	31.882138	41.905455	-7.151479	2.457086	-0.517020	7.309062	0.303384	0.431161	-0.065469	0.999253	0.012282	-0.002584	0.036536	
54829	    0	27.354271	47.078527	-8.894968	1.045575	-0.625704	5.873225	0.259827	0.479004	-0.085632	0.999550	0.005227	-0.003128	0.029362	
54830	    0	17.403379	49.824795	-11.557575	-0.335341	-0.678312	4.500589	0.163160	0.501807	-0.115849	0.999740	-0.001677	-0.003391	0.022501	
54831	    0	12.620529	48.517843	-12.301496	-1.659477	-0.552968	3.001555	0.119263	0.485962	-0.126709	0.999848	-0.008297	-0.002765	0.015007	
54832	    0	10.332039	45.381971	-6.896299	-2.279919	-0.555054	1.174007	0.100858	0.453593	-0.073853	0.999913	-0.011399	-0.002775	0.005870	
54833	    0	6.475624	40.859237	-1.122675	-2.568130	-0.533120	-0.430311	0.065674	0.408264	-0.016296	0.999911	-0.012840	-0.002666	-0.002151	
54834	    0	5.898096	35.125215	1.453844	-2.784289	-0.389690	-1.869481	0.062240	0.350839	0.009771	0.999857	-0.013921	-0.001948	-0.009347	
54835	    0	5.792817	30.695440	1.924757	-2.865044	-0.317978	-3.000094	0.062500	0.306274	0.014954	0.999784	-0.014324	-0.001590	-0.014999	
54836	    0	7.720853	21.721982	2.706123	-2.921378	-0.310545	-3.720441	0.081197	0.216100	0.024023	0.999719	-0.014606	-0.001553	-0.018600	
54837	    0	14.450905	10.660882	-5.354162	-3.383261	-0.926124	-3.898304	0.146790	0.102844	-0.054626	0.999656	-0.016914	-0.004630	-0.019489	
54838	    0	10.769774	-16.166689	-14.665664	-4.508224	-0.628172	-3.243105	0.105474	-0.166635	-0.142604	0.999609	-0.022538	-0.003140	-0.016213	
54839	    0	11.876670	-34.359226	-48.070918	0.125319	-2.867266	-1.863952	0.122437	-0.344421	-0.479187	0.999853	0.000627	-0.014336	-0.009319	
54840	    0	73.626426	110.787555	-34.364825	0.481461	2.822742	-10.495593	0.788106	1.068252	-0.351927	0.998521	0.002406	0.014107	-0.052452	
54841	    0	83.197931	35.488725	70.085037	-3.278660	-0.870086	-8.998523	0.844116	0.328552	0.698975	0.998844	-0.016387	-0.004349	-0.044975	
54842	    0	12.147159	-27.064646	15.343335	0.181791	-2.726104	-4.470955	0.113276	-0.273380	0.154767	0.999657	0.000909	-0.013629	-0.022352	
54843	    0	-21.198099	8.396623	9.687269	0.750307	-1.830650	-6.558747	-0.209961	0.090515	0.095276	0.999413	0.003751	-0.009151	-0.032787	
54844	    0	0.490302	12.464632	1.355225	0.075541	-0.455723	-5.502446	0.008298	0.124444	0.013616	0.999619	0.000378	-0.002278	-0.027509	
54845	    0	17.362176	13.401309	-3.328088	-0.022699	-0.661524	-4.420839	0.176636	0.130127	-0.032715	0.999750	-0.000113	-0.003307	-0.022102	
54846	    0	6.586115	-0.186984	-4.777018	-0.357266	-0.998934	-3.498081	0.066051	-0.003109	-0.047436	0.999832	-0.001786	-0.004994	-0.017489	
54847	    0	7.635349	9.483057	-9.671488	-1.313086	-0.573569	-3.191538	0.078125	0.092957	-0.097107	0.999846	-0.006565	-0.002868	-0.015957	
54848	    0	14.863983	6.740557	-0.990422	-0.909841	-0.205429	-2.919502	0.149612	0.065181	-0.010051	0.999882	-0.004549	-0.001027	-0.014597	
54849	    0	16.597652	7.683081	-3.960115	-0.547806	0.058176	-2.565076	0.166931	0.074585	-0.039856	0.999913	-0.002739	0.000291	-0.012825	
54850	    0	18.932846	12.967160	-7.149243	-0.847647	0.563445	-2.261410	0.190573	0.127215	-0.072571	0.999923	-0.004238	0.002817	-0.011307	
54851	    0	21.868874	3.012900	-7.458855	-0.656142	0.469408	-2.098128	0.218811	0.027588	-0.075195	0.999936	-0.003281	0.002347	-0.010490	
54852	    0	26.380302	1.550387	-10.081488	-0.721182	0.563060	-1.872478	0.263645	0.012670	-0.101606	0.999946	-0.003606	0.002815	-0.009362	
54853	    0	28.986186	-2.253773	-1.523823	-0.697146	0.662241	-1.636530	0.289612	-0.024963	-0.016113	0.999954	-0.003486	0.003311	-0.008183	
54854	    0	28.275373	1.891054	1.548354	-1.067561	0.637637	-1.543452	0.282936	0.016807	0.014488	0.999950	-0.005338	0.003188	-0.007717	
54855	    0	26.649858	-2.972792	3.880144	-1.633296	0.405129	-1.425200	0.266357	-0.031311	0.038513	0.999939	-0.008166	0.002026	-0.007126	
54856	    0	25.001670	-8.507235	3.243137	-2.508428	-0.011826	-0.873019	0.249641	-0.085747	0.033519	0.999911	-0.012542	-0.000059	-0.004365	
54857	    0	20.339217	-10.774381	5.145850	-2.900799	-0.263033	-0.254831	0.203186	-0.107239	0.053284	0.999892	-0.014503	-0.001315	-0.001274	
54858	    0	17.187775	-11.199891	2.734914	-3.357855	-0.273908	-0.045397	0.171813	-0.111555	0.029460	0.999858	-0.016788	-0.001369	-0.000227	
54859	    0	15.346373	-11.434538	-5.038286	-3.327334	-0.328652	-0.177010	0.153442	-0.115295	-0.048218	0.999860	-0.016636	-0.001643	-0.000885	
54860	    0	19.331329	-10.378818	-2.333429	-1.908334	0.169757	-0.584040	0.192989	-0.104569	-0.022503	0.999949	-0.009542	0.000849	-0.002920	
54861	    0	19.240707	-0.235270	-0.041404	-0.764474	0.597579	-1.358048	0.192383	-0.003662	-0.000977	0.999965	-0.003822	0.002988	-0.006790	
54862	    0	16.717710	9.794301	-3.967514	-0.391973	0.911553	-2.664656	0.168278	0.095627	-0.040629	0.999899	-0.001960	0.004558	-0.013323	
54863	    0	5.453635	9.887134	-8.001216	-1.096997	1.162805	-3.885937	0.055969	0.097351	-0.080872	0.999779	-0.005485	0.005814	-0.019428	
54864	    0	11.824054	16.550013	-10.341914	-0.858784	0.790684	-5.046837	0.121946	0.162006	-0.104597	0.999664	-0.004293	0.003953	-0.025231	
54865	    0	15.021973	11.091609	-6.616041	-1.021530	0.963730	-5.670972	0.152954	0.106262	-0.067444	0.999573	-0.005107	0.004818	-0.028351	
54866	    0	21.254073	-1.807983	-2.960049	-0.449435	1.073990	-5.730683	0.211742	-0.024223	-0.030689	0.999572	-0.002247	0.005369	-0.028649	
54867	    0	26.117022	-6.619086	-0.397548	0.480923	1.036245	-6.238839	0.258911	-0.074280	-0.005493	0.999496	0.002404	0.005180	-0.031189	
54868	    0	26.753459	-7.283783	1.372141	0.848748	0.905407	-6.789601	0.264914	-0.081916	0.012183	0.999404	0.004243	0.004526	-0.033941	
54869	    0	30.560445	-4.440491	2.083223	-0.277771	0.941866	-7.213660	0.303833	-0.055359	0.019470	0.999337	-0.001389	0.004708	-0.036060	
54870	    0	34.948938	-0.034933	2.725849	-1.407423	1.051418	-7.769731	0.349266	-0.013740	0.025487	0.999207	-0.007035	0.005256	-0.038838	
54871	    0	37.868668	-0.795002	1.309078	-2.833511	0.926505	-8.246202	0.377991	-0.023376	0.011597	0.999039	-0.014163	0.004631	-0.041218	
54872	    0	34.603803	-7.670905	-2.104567	-3.151106	0.695815	-7.768823	0.342630	-0.090395	-0.020889	0.999115	-0.015751	0.003478	-0.038833	
54873	    0	31.294645	-14.328701	-3.966445	-3.022602	0.615090	-7.294081	0.307312	-0.155151	-0.038330	0.999216	-0.015109	0.003075	-0.036461	
54874	    0	29.074973	-14.226517	-4.931829	-2.760622	0.596386	-7.203945	0.285215	-0.153276	-0.048109	0.999251	-0.013800	0.002981	-0.036011	
54875	    0	26.025144	-11.162265	-4.886928	-2.666162	0.575395	-7.095519	0.255920	-0.121399	-0.048035	0.999277	-0.013328	0.002876	-0.035469	
54876	    0	23.457001	-8.666303	-4.000616	-2.649339	0.550968	-6.881183	0.231283	-0.095184	-0.039423	0.999316	-0.013244	0.002754	-0.034398	
54877	    0	21.516777	-7.908222	-3.648359	-2.481394	0.476934	-6.522173	0.212341	-0.086487	-0.035950	0.999388	-0.012404	0.002384	-0.032604	
54878	    0	21.103475	-8.429362	-3.216412	-2.167695	0.562574	-6.038947	0.208265	-0.090957	-0.031791	0.999481	-0.010837	0.002812	-0.030190	
54879	    0	21.414719	-10.078450	-2.831224	-1.371556	0.676621	-5.267613	0.211295	-0.106569	-0.028313	0.999623	-0.006857	0.003383	-0.026335	
54880	    0	19.541268	-12.828740	-3.310701	-0.129709	0.746781	-4.079730	0.192616	-0.132257	-0.033745	0.999784	-0.000648	0.003734	-0.020397	
54881	    0	14.300867	-10.569987	-5.932557	0.918801	0.599691	-2.642149	0.141418	-0.107300	-0.060242	0.999897	0.004594	0.002998	-0.013210	
54882	    0	9.142933	-7.292075	-4.254604	1.052679	0.486952	-1.303308	0.090848	-0.073288	-0.043153	0.999962	0.005263	0.002435	-0.006516	
54883	    0	0.215631	-6.012931	-3.799219	1.319133	0.321391	0.138093	0.002136	-0.059875	-0.038391	0.999976	0.006596	0.001607	0.000690	
54884	    0	-4.928985	-3.902804	-3.026964	1.920373	0.480856	1.711131	-0.049028	-0.039156	-0.030527	0.999914	0.009602	0.002404	0.008555	
54885	    0	-9.363617	-0.686103	-4.033166	2.631767	0.576063	3.293095	-0.093628	-0.007874	-0.040161	0.999773	0.013158	0.002880	0.016464	
54886	    0	-9.516557	1.083061	-4.910244	2.082669	0.798503	4.584809	-0.095583	0.009151	-0.048620	0.999675	0.010412	0.003992	0.022922	
54887	    0	-6.587310	0.050064	-5.425028	1.179872	0.904219	5.809892	-0.066101	-0.001099	-0.053955	0.999550	0.005898	0.004520	0.029045	
54888	    0	-5.667096	-2.264347	-6.731199	0.579000	1.008815	6.950481	-0.056182	-0.024407	-0.067097	0.999379	0.002894	0.005043	0.034745	
54889	    0	-5.430439	-2.730953	-7.332695	0.489370	1.029489	8.054283	-0.053528	-0.029297	-0.073120	0.999172	0.002446	0.005146	0.040260	
54890	    0	-2.497547	-2.653219	-7.441345	0.581178	0.897906	9.006917	-0.024088	-0.027414	-0.074383	0.998971	0.002905	0.004488	0.045019	
54891	    0	0.394481	-2.993731	-6.659208	0.683101	0.764959	9.697751	0.005127	-0.029480	-0.066711	0.998811	0.003414	0.003823	0.048470	
54892	    0	2.547907	-2.014308	-6.159522	0.918217	0.526849	10.175564	0.026287	-0.018536	-0.061751	0.998692	0.004589	0.002633	0.050856	
54893	    0	4.814493	-0.775937	-7.410113	0.724366	0.145980	10.539569	0.048401	-0.004944	-0.074158	0.998605	0.003620	0.000730	0.052673	
54894	    0	7.773246	-1.779072	-4.006609	-0.386237	0.319447	10.843832	0.078483	-0.013625	-0.040162	0.998527	-0.001930	0.001596	0.054193	
54895	    0	10.590735	-2.255514	-2.144814	-0.332046	0.011641	11.004855	0.106934	-0.016724	-0.021423	0.998485	-0.001659	0.000058	0.054996	
54896	    0	13.788359	-0.755365	-2.178522	-0.117171	-0.226517	11.031788	0.138045	0.000048	-0.021627	0.998478	-0.000586	-0.001132	0.055131	
54897	    0	16.166542	2.772138	0.558374	0.137396	-0.238725	10.790149	0.159851	0.036377	0.005798	0.998544	0.000687	-0.001193	0.053925	
54898	    0	18.490097	4.397033	-1.030376	1.440745	-0.760637	10.647389	0.182247	0.053792	-0.009243	0.998549	0.007200	-0.003801	0.053211	
54899	    0	20.558681	5.945404	-0.592425	2.660357	-0.872474	10.558991	0.202087	0.070251	-0.004150	0.998508	0.013295	-0.004360	0.052769	
54900	    0	21.879477	10.319871	0.692532	3.747888	-0.831062	10.203645	0.213123	0.114005	0.009889	0.998514	0.018730	-0.004153	0.050993	
54901	    0	22.118438	16.145366	-0.733197	4.696143	-0.919039	9.856767	0.212891	0.172180	-0.002380	0.998499	0.023469	-0.004593	0.049259	
54902	    0	22.133007	21.628325	-2.223378	5.316957	-0.871338	9.641779	0.210629	0.227082	-0.015357	0.998475	0.026571	-0.004354	0.048184	
54903	    0	22.152892	24.132212	-5.231560	5.721226	-0.712935	9.186478	0.210266	0.252502	-0.044434	0.998529	0.028592	-0.003563	0.045910	
54904	    0	24.611590	28.026688	-7.160949	5.557549	-0.414836	8.511590	0.233982	0.292233	-0.063104	0.998706	0.027776	-0.002073	0.042540	
54905	    0	26.170573	34.420910	-8.397605	4.483917	-0.077845	7.607452	0.248352	0.355591	-0.075989	0.999025	0.022412	-0.000389	0.038025	
54906	    0	25.851143	38.943578	-8.537718	2.779385	0.137548	6.429652	0.245737	0.398611	-0.080051	0.999386	0.013894	0.000688	0.032142	
54907	    0	22.722686	42.463248	-10.595797	0.959885	-0.072297	5.082506	0.216370	0.430725	-0.103821	0.999665	0.004799	-0.000361	0.025410	
54908	    0	17.805459	40.408663	-12.787387	-0.700429	-0.261898	4.102623	0.169891	0.407177	-0.129070	0.999783	-0.003502	-0.001309	0.020512	
54909	    0	11.267039	39.865284	-10.812771	-2.082176	-0.293557	2.957316	0.106934	0.399109	-0.112122	0.999835	-0.010410	-0.001468	0.014786	
54910	    0	6.541024	37.243589	-5.220409	-2.707969	-0.412194	1.379639	0.062957	0.372125	-0.057113	0.999882	-0.013539	-0.002061	0.006898	
54911	    0	5.601767	33.537853	-0.015405	-3.247215	-0.373666	-0.185403	0.056335	0.335266	-0.005493	0.999866	-0.016235	-0.001868	-0.000927	
54912	    0	5.202416	29.992273	3.419666	-3.604923	-0.193799	-1.402180	0.054098	0.300100	0.028840	0.999812	-0.018023	-0.000969	-0.007010	
54913	    0	5.386740	25.414338	2.971321	-3.556138	-0.040439	-2.331719	0.056824	0.253967	0.025208	0.999773	-0.017779	-0.000202	-0.011658	
54914	    0	16.920765	18.963977	-1.117172	-3.540350	-0.422706	-2.897708	0.171957	0.186929	-0.014135	0.999736	-0.017700	-0.002113	-0.014487	
54915	    0	7.805591	5.728292	-17.689507	-3.680592	-0.713419	-3.094787	0.079529	0.052795	-0.177612	0.999704	-0.018401	-0.003567	-0.015472	
54916	    0	19.094654	-17.428341	-32.606790	-4.137315	-1.213973	-2.908271	0.190280	-0.183732	-0.321176	0.999661	-0.020684	-0.006069	-0.014540	
54917	    0	46.564444	14.394064	-56.723714	1.822367	-1.371973	-5.588617	0.473389	0.135925	-0.562744	0.999544	0.009110	-0.006859	-0.027939	
54918	    0	95.249472	111.650043	52.871728	-1.111522	3.086035	-13.336169	1.032067	1.052275	0.507223	0.997643	-0.005553	0.015418	-0.066628	
54919	    0	33.918215	-36.031403	14.988447	-1.970279	-3.812933	-5.159202	0.326782	-0.367310	0.159790	0.999436	-0.009850	-0.019061	-0.025791	
54920	    0	-20.411571	2.812487	27.741853	0.952144	-2.305672	-6.375032	-0.206289	0.033364	0.275199	0.999413	0.004760	-0.011526	-0.031869	
54921	    0	-4.083369	14.221714	2.479599	-0.258489	-1.038534	-6.238835	-0.036499	0.143433	0.024414	0.999498	-0.001292	-0.005192	-0.031189	
54922	    0	13.984313	17.269428	2.511704	-0.130285	-0.849812	-4.924906	0.143930	0.169200	0.025612	0.999687	-0.000651	-0.004249	-0.024622	
54923	    0	6.425732	2.992758	-5.220191	-0.436237	-0.813342	-3.670721	0.065002	0.028625	-0.052002	0.999821	-0.002181	-0.004066	-0.018353	
54924	    0	5.674085	3.437085	-12.235112	-1.070458	-0.623162	-3.264593	0.057666	0.032780	-0.122351	0.999847	-0.005352	-0.003116	-0.016322	
54925	    0	14.337613	10.320558	-4.180815	-0.682669	-0.056460	-3.090797	0.144958	0.100830	-0.042114	0.999874	-0.003413	-0.000282	-0.015453	
54926	    0	15.622352	8.611070	-3.670735	-0.357830	0.037385	-2.742664	0.157377	0.083892	-0.036888	0.999904	-0.001789	0.000187	-0.013713	
54927	    0	17.880849	12.684224	-8.028957	-0.546278	0.606742	-2.281245	0.179993	0.124573	-0.081177	0.999927	-0.002731	0.003034	-0.011406	
54928	    0	23.638094	5.416508	-7.088793	-0.386818	0.774208	-2.017443	0.236633	0.051641	-0.071905	0.999939	-0.001934	0.003871	-0.010087	
54929	    0	29.328167	2.641926	-9.414702	-0.563822	0.847831	-1.726561	0.293091	0.023621	-0.095459	0.999949	-0.002819	0.004239	-0.008633	
54930	    0	30.358234	-3.434989	-2.555580	-0.702104	0.802814	-1.428432	0.303221	-0.036609	-0.026648	0.999960	-0.003510	0.004014	-0.007142	
54931	    0	30.366516	0.059419	1.348155	-1.122874	0.801862	-1.362631	0.303711	-0.001404	0.012268	0.999952	-0.005614	0.004009	-0.006813	
54932	    0	28.664939	-2.481833	3.464869	-1.755751	0.423822	-1.298931	0.286554	-0.026378	0.034268	0.999938	-0.008779	0.002119	-0.006495	
54933	    0	26.452584	-8.297216	3.418035	-2.912058	-0.098423	-0.690486	0.264221	-0.083374	0.035522	0.999887	-0.014560	-0.000492	-0.003452	
54934	    0	20.654953	-13.395411	5.028172	-3.594023	-0.415443	-0.218976	0.206295	-0.133243	0.053109	0.999835	-0.017969	-0.002077	-0.001095	
54935	    0	18.291081	-14.006702	1.955859	-4.323157	-0.467528	-0.259420	0.182678	-0.139832	0.023010	0.999763	-0.021614	-0.002337	-0.001297	
54936	    0	14.557946	-11.998294	-5.190185	-4.075344	-0.409728	-0.724463	0.145244	-0.121530	-0.049138	0.999784	-0.020375	-0.002048	-0.003622	
54937	    0	15.425388	-7.597422	-3.693759	-2.526949	0.140577	-1.564084	0.153625	-0.077637	-0.036072	0.999888	-0.012634	0.000703	-0.007820	
54938	    0	16.585690	6.348567	-4.327328	-1.098290	0.521106	-2.629944	0.166556	0.061058	-0.044046	0.999894	-0.005491	0.002605	-0.013149	
54939	    0	11.690832	10.748541	-6.081558	-0.547068	0.915022	-4.059136	0.118774	0.104919	-0.061646	0.999780	-0.002735	0.004575	-0.020294	
54940	    0	6.798327	10.183226	-6.952966	-0.565023	1.341597	-5.119165	0.070086	0.099858	-0.070279	0.999645	-0.002825	0.006707	-0.025593	
54941	    0	20.089180	18.362912	-7.347197	0.261158	1.379616	-6.048030	0.205811	0.177551	-0.074646	0.999517	0.001306	0.006897	-0.030235	
54942	    0	21.860269	7.053357	-2.010689	0.895088	1.645573	-6.275536	0.220500	0.063728	-0.021621	0.999463	0.004475	0.008226	-0.031372	
54943	    0	24.896054	-0.283081	-1.464162	2.061294	1.362114	-6.393921	0.248596	-0.010620	-0.016418	0.999413	0.010304	0.006809	-0.031963	
54944	    0	26.693328	-3.692016	-0.065583	2.377064	0.951779	-6.685731	0.265492	-0.045791	-0.002431	0.999359	0.011883	0.004758	-0.033422	
54945	    0	27.123858	-3.573965	0.913653	1.732256	0.574048	-7.056463	0.269775	-0.045349	0.007996	0.999335	0.008659	0.002870	-0.035275	
54946	    0	30.853657	-0.926139	2.286455	0.231415	0.571002	-7.444014	0.307970	-0.020759	0.021965	0.999302	0.001157	0.002854	-0.037211	
54947	    0	34.537485	1.543354	1.986258	-1.206537	0.805312	-7.971846	0.345703	0.001770	0.018433	0.999179	-0.006031	0.004025	-0.039848	
54948	    0	38.055350	-0.985487	0.137777	-2.462238	0.929564	-8.456896	0.379685	-0.025921	-0.000135	0.999019	-0.012307	0.004646	-0.042271	
54949	    0	36.381227	-9.290576	-2.964739	-2.264101	0.720422	-7.955165	0.359619	-0.107605	-0.029785	0.999138	-0.011317	0.003601	-0.039764	
54950	    0	34.359229	-16.453968	-3.949675	-2.308690	0.534770	-7.582369	0.336913	-0.177847	-0.038402	0.999210	-0.011540	0.002673	-0.037902	
54951	    0	30.742701	-14.565289	-4.628252	-2.041210	0.298388	-7.682537	0.301453	-0.157776	-0.045166	0.999208	-0.010203	0.001492	-0.038403	
54952	    0	27.315207	-11.425910	-4.022977	-2.222829	0.200324	-7.569179	0.268518	-0.124921	-0.039151	0.999221	-0.011111	0.001001	-0.037836	
54953	    0	24.756191	-8.844133	-3.139076	-2.467179	0.090239	-7.203889	0.244141	-0.097656	-0.030334	0.999274	-0.012333	0.000451	-0.036011	
54954	    0	24.153571	-8.020953	-2.787392	-2.573005	0.069633	-6.780394	0.238615	-0.088683	-0.026853	0.999342	-0.012862	0.000348	-0.033895	
54955	    0	24.238715	-8.096658	-2.281447	-2.445679	0.125336	-6.239724	0.239685	-0.088745	-0.021912	0.999438	-0.012226	0.000627	-0.031193	
54956	    0	23.602820	-9.342738	-2.159329	-1.768352	0.246272	-5.422184	0.233351	-0.099966	-0.021017	0.999592	-0.008841	0.001231	-0.027107	
54957	    0	19.112865	-11.648594	-3.037103	-0.755365	0.178732	-4.098808	0.188660	-0.120483	-0.030090	0.999782	-0.003777	0.000894	-0.020493	
54958	    0	13.586684	-9.969509	-4.513334	-0.051309	0.000572	-2.619628	0.134545	-0.101475	-0.045108	0.999914	-0.000257	0.000003	-0.013098	
54959	    0	7.101082	-8.685513	-1.992130	-0.020409	-0.215151	-1.371013	0.070435	-0.087341	-0.019836	0.999975	-0.000102	-0.001076	-0.006855	
54960	    0	-2.407586	-7.277128	-1.944846	0.016022	-0.330925	0.090599	-0.024011	-0.072781	-0.019494	0.999998	0.000080	-0.001655	0.000453	
54961	    0	-8.195494	-6.593548	-0.248391	0.867477	-0.237087	1.782256	-0.081360	-0.066650	-0.002869	0.999949	0.004337	-0.001185	0.008911	
54962	    0	-11.932311	-3.448767	-2.010499	1.622105	-0.201428	3.394709	-0.118696	-0.036341	-0.020514	0.999822	0.008110	-0.001007	0.016973	
54963	    0	-11.475520	-0.339552	-2.634421	1.331462	-0.087556	4.710096	-0.114624	-0.005920	-0.026428	0.999700	0.006657	-0.000438	0.023548	
54964	    0	-9.223898	-1.269428	-3.804470	0.790336	-0.090041	6.017846	-0.091787	-0.015310	-0.038143	0.999539	0.003951	-0.000450	0.030085	
54965	    0	-8.230293	-2.354845	-5.061465	0.602856	-0.070778	7.275480	-0.081360	-0.026367	-0.050720	0.999333	0.003014	-0.000354	0.036369	
54966	    0	-6.931899	-2.959766	-5.233074	0.793693	-0.068685	8.407421	-0.067982	-0.032267	-0.052479	0.999108	0.003967	-0.000343	0.042025	
54967	    0	-2.228917	-4.275534	-4.250263	1.277058	-0.066400	9.304414	-0.020264	-0.043457	-0.042786	0.998898	0.006383	-0.000332	0.046505	
54968	    0	2.357916	-5.294128	-3.388858	1.826868	-0.052474	9.905806	0.026159	-0.051375	-0.034356	0.998732	0.009130	-0.000262	0.049508	
54969	    0	6.071710	-4.898671	-2.797942	2.226518	0.014693	10.267783	0.063110	-0.045471	-0.028503	0.998620	0.011127	0.000073	0.051315	
54970	    0	8.790095	-3.797880	-2.416905	2.387252	0.109153	10.526044	0.089712	-0.032995	-0.024632	0.998544	0.011930	0.000546	0.052605	
54971	    0	11.187529	-3.308401	-2.303978	2.351042	0.211632	10.760598	0.113403	-0.026733	-0.023499	0.998483	0.011749	0.001058	0.053776	
54972	    0	13.881192	-3.749687	-1.420063	2.285643	0.374802	11.037190	0.140564	-0.029602	-0.014832	0.998410	0.011422	0.001873	0.055157	
54973	    0	16.498253	-2.433825	-2.081790	2.777133	0.356684	11.267313	0.165955	-0.014709	-0.021362	0.998315	0.013878	0.001782	0.056305	
54974	    0	18.402745	-0.514532	-2.120760	3.109074	0.450969	11.405729	0.183861	0.005681	-0.021590	0.998251	0.015536	0.002254	0.056995	
54975	    0	20.707197	2.687553	-1.971595	3.255297	0.492388	11.473791	0.205017	0.039001	-0.019653	0.998219	0.016267	0.002460	0.057335	
54976	    0	22.478555	5.616738	-1.736993	3.261624	0.553274	11.562257	0.220984	0.069300	-0.016926	0.998192	0.016298	0.002765	0.057776	
54977	    0	24.251980	9.372995	-2.519862	3.294209	0.612237	11.391273	0.236572	0.107727	-0.024231	0.998238	0.016461	0.003059	0.056923	
54978	    0	26.043120	13.695307	-3.736105	3.441648	0.654207	11.076670	0.252180	0.151701	-0.035668	0.998313	0.017199	0.003269	0.055352	
54979	    0	26.509240	18.100341	-4.968419	3.603916	0.675555	10.597440	0.254822	0.195557	-0.047119	0.998428	0.018010	0.003376	0.052959	
54980	    0	26.832125	22.562690	-6.248685	3.656013	0.684679	9.965635	0.256401	0.239706	-0.059081	0.998586	0.018271	0.003422	0.049805	
54981	    0	28.054998	29.351601	-7.326788	3.479072	0.668605	9.181103	0.266418	0.307190	-0.068909	0.998789	0.017388	0.003342	0.045887	
54982	    0	30.460363	36.620494	-8.603479	3.040911	0.687630	8.218932	0.288900	0.379556	-0.081342	0.999034	0.015200	0.003437	0.041081	
54983	    0	29.999563	42.499920	-9.260101	2.175626	0.374878	6.982456	0.284729	0.436096	-0.088440	0.999330	0.010876	0.001874	0.034904	
54984	    0	23.309049	46.026824	-11.843017	0.929578	-0.102248	5.643660	0.220032	0.467144	-0.116155	0.999591	0.004647	-0.000511	0.028214	
54985	    0	16.746224	45.340213	-14.726593	-0.364524	-0.258657	4.389547	0.157654	0.456665	-0.147888	0.999756	-0.001822	-0.001293	0.021946	
54986	    0	14.492702	43.680749	-12.329262	-1.406155	-0.281918	2.787323	0.139006	0.437892	-0.126170	0.999877	-0.007030	-0.001410	0.013936	
54987	    0	8.964548	43.745339	-7.182258	-1.989600	-0.417337	1.097131	0.087402	0.437195	-0.075989	0.999933	-0.009948	-0.002087	0.005486	
54988	    0	5.896315	39.306910	-2.119772	-2.634320	-0.428785	-0.484863	0.059968	0.392601	-0.026243	0.999907	-0.013171	-0.002144	-0.002424	
54989	    0	5.308523	33.626449	0.699623	-2.912285	-0.338571	-1.829620	0.056152	0.335815	0.002197	0.999850	-0.014561	-0.001693	-0.009148	
54990	    0	6.099672	28.168189	0.010441	-2.872660	-0.251405	-2.787586	0.064918	0.280759	-0.003853	0.999799	-0.014362	-0.001257	-0.013937	
54991	    0	7.678594	21.315797	0.780370	-2.974010	-0.133526	-3.507542	0.080505	0.211853	0.004700	0.999735	-0.014869	-0.000668	-0.017536	
54992	    0	11.085673	12.958229	1.104832	-3.240944	-0.292047	-3.992140	0.113401	0.127494	0.009135	0.999668	-0.016203	-0.001460	-0.019958	
54993	    0	9.347181	-4.007388	-15.293402	-4.014886	-1.104871	-3.448906	0.093567	-0.044739	-0.151550	0.999634	-0.020072	-0.005524	-0.017242	
54994	    0	15.225187	-44.092349	-35.342312	-3.586679	-1.689858	-1.951567	0.150833	-0.448627	-0.344145	0.999756	-0.017932	-0.008449	-0.009757	
54995	    0	35.691684	22.172672	-66.083358	2.713314	-1.132137	-4.239362	0.365356	0.222961	-0.655762	0.999667	0.013565	-0.005660	-0.021194	
54996	    0	108.838397	133.200329	59.279285	-1.287402	3.161428	-13.816857	1.186049	1.255974	0.566297	0.997469	-0.006432	0.015794	-0.069026	
54997	    0	39.685142	-36.887519	10.925014	-2.519710	-4.540172	-4.378588	0.385986	-0.375916	0.122803	0.999423	-0.012596	-0.022696	-0.021889	
54998	    0	-20.779204	-0.460604	27.866345	0.642130	-2.508235	-6.052920	-0.211294	0.000865	0.276025	0.999457	0.003210	-0.012539	-0.030259	
54999	    0	-10.792318	12.052591	-2.238748	0.041396	-0.882090	-5.930454	-0.104187	0.123657	-0.022827	0.999550	0.000207	-0.004410	-0.029648	
55000	    0	15.183010	15.928674	-0.785175	0.276210	-0.626623	-4.700530	0.155540	0.155670	-0.007152	0.999718	0.001381	-0.003133	-0.023500	
55001	    0	11.516411	2.998226	-4.161734	-0.364515	-0.814103	-3.589072	0.115845	0.027832	-0.041199	0.999828	-0.001822	-0.004070	-0.017944	
55002	    0	3.675609	2.636340	-12.062486	-0.870363	-0.798262	-3.093670	0.037634	0.025261	-0.120587	0.999863	-0.004352	-0.003991	-0.015468	
55003	    0	14.592426	10.939459	-5.542548	-1.084944	-0.055506	-2.936674	0.147522	0.106934	-0.055969	0.999877	-0.005424	-0.000278	-0.014683	
55004	    0	16.416541	5.597097	-1.463794	-0.533883	0.088504	-2.595596	0.164866	0.053795	-0.014856	0.999911	-0.002669	0.000443	-0.012978	
55005	    0	17.107073	13.502975	-9.431687	-0.985553	0.563827	-2.247679	0.172302	0.132629	-0.095459	0.999920	-0.004928	0.002819	-0.011238	
55006	    0	19.565353	7.697957	-5.943092	-0.868053	0.751702	-1.965947	0.196170	0.074792	-0.060495	0.999935	-0.004340	0.003758	-0.009830	
55007	    0	26.367030	3.454541	-8.536290	-1.050589	0.815027	-1.786078	0.263611	0.031738	-0.086609	0.999938	-0.005253	0.004075	-0.008930	
55008	    0	29.271894	-2.916605	-3.963610	-1.090641	0.723088	-1.544407	0.292336	-0.031644	-0.040525	0.999949	-0.005453	0.003615	-0.007722	
55009	    0	29.478394	-0.640803	2.035113	-1.024452	0.707255	-1.393911	0.294800	-0.008362	0.019348	0.999956	-0.005122	0.003536	-0.006969	
55010	    0	28.439146	-0.319629	5.060704	-1.454381	0.464448	-1.495390	0.284475	-0.004958	0.049978	0.999943	-0.007272	0.002322	-0.007477	
55011	    0	26.456383	-6.911910	5.031304	-2.159745	0.031281	-1.179534	0.264160	-0.070129	0.051025	0.999924	-0.010798	0.000156	-0.005898	
55012	    0	22.756860	-12.500680	5.349224	-2.987403	-0.316441	-0.308621	0.227289	-0.124537	0.055715	0.999886	-0.014936	-0.001582	-0.001543	
55013	    0	17.313689	-11.352699	3.855541	-3.569222	-0.369855	-0.049594	0.173035	-0.112854	0.040894	0.999839	-0.017845	-0.001849	-0.000248	
55014	    0	15.320569	-11.638425	-2.030924	-3.772198	-0.307101	-0.166521	0.153137	-0.116864	-0.017873	0.999820	-0.018860	-0.001535	-0.000833	
55015	    0	15.814880	-7.975377	-5.992185	-2.669610	0.068095	-0.723290	0.157837	-0.081116	-0.058899	0.999904	-0.013348	0.000340	-0.003616	
55016	    0	18.511144	-4.498161	-1.952497	-1.451709	0.607692	-1.349092	0.184742	-0.046371	-0.019753	0.999946	-0.007258	0.003038	-0.006745	
55017	    0	17.079917	7.457229	-3.926507	-0.355350	0.965910	-2.468183	0.171509	0.072388	-0.040222	0.999910	-0.001777	0.004829	-0.012341	
55018	    0	10.398970	10.947708	-8.835903	-0.720647	1.275344	-3.853689	0.105501	0.107133	-0.089417	0.999787	-0.003603	0.006376	-0.019267	
55019	    0	8.982123	11.729124	-10.958818	-0.876708	1.098174	-4.785652	0.091980	0.114624	-0.110596	0.999688	-0.004383	0.005490	-0.023926	
55020	    0	16.139863	16.363395	-9.279318	-0.926530	1.044611	-5.642541	0.165430	0.158569	-0.094393	0.999578	-0.004632	0.005222	-0.028209	
55021	    0	19.629278	1.870069	-4.054599	-0.540238	1.182915	-5.690047	0.196472	0.013000	-0.041748	0.999574	-0.002701	0.005914	-0.028446	
55022	    0	24.854269	-4.120734	-1.285686	0.236358	1.076487	-6.060605	0.247068	-0.048694	-0.014244	0.999525	0.001182	0.005382	-0.030298	
55023	    0	25.627487	-6.717532	0.953889	0.665408	0.877735	-6.609818	0.253906	-0.075623	0.008179	0.999438	0.003326	0.004388	-0.033043	
55024	    0	27.445678	-4.813653	2.221706	0.210997	0.753751	-7.047795	0.272614	-0.057789	0.021130	0.999371	0.001055	0.003768	-0.035232	
55025	    0	31.230092	-2.115462	2.879204	-0.972790	0.823408	-7.465621	0.311340	-0.032654	0.027649	0.999283	-0.004863	0.004116	-0.037319	
55026	    0	34.700489	-0.675747	2.064899	-2.343107	0.883173	-8.042424	0.346453	-0.020468	0.019304	0.999113	-0.011712	0.004415	-0.040200	
55027	    0	35.258682	-3.377634	0.289450	-3.012996	0.835099	-7.923996	0.350891	-0.047668	0.002075	0.999093	-0.015060	0.004174	-0.039608	
55028	    0	33.253139	-11.607654	-2.456807	-3.009090	0.821719	-7.461865	0.327785	-0.128732	-0.024048	0.999182	-0.015041	0.004107	-0.037299	
55029	    0	31.567561	-14.405067	-4.591345	-2.360371	0.750351	-7.400865	0.309875	-0.156128	-0.045288	0.999238	-0.011799	0.003751	-0.036995	
55030	    0	28.960906	-11.494733	-5.474502	-1.850006	0.691964	-7.382473	0.284904	-0.126029	-0.054605	0.999269	-0.009248	0.003459	-0.036903	
55031	    0	26.474428	-8.960654	-4.797474	-1.976287	0.677650	-7.217579	0.261108	-0.099548	-0.047913	0.999294	-0.009879	0.003387	-0.036079	
