// Start Time: Unknown
// Update Rate: 100.0Hz
// Filter Profile: human (34.3)
// Firmware Version: 2.1.4
PacketCounter	SampleTimeFine	Acc_X	Acc_Y	Acc_Z	Gyr_X	Gyr_Y	Gyr_Z	VelInc_X	VelInc_Y	VelInc_Z	OriInc_q0	OriInc_q1	OriInc_q2	OriInc_q3	
31073	    0	3.274549	-7.607769	-0.838404	-0.359155	-0.794223	-0.486757	0.032593	-0.076172	-0.008118	0.999987	-0.001796	-0.003971	-0.002434	
31074	    0	-2.259490	-8.569090	-0.094253	0.075722	-0.638012	0.974279	-0.022174	-0.085799	-0.001046	0.999983	0.000379	-0.003190	0.004871	
31075	    0	-3.710357	-7.647971	-0.116546	0.836967	-0.549141	2.359836	-0.036194	-0.076904	-0.001587	0.999917	0.004185	-0.002746	0.011799	
31076	    0	-2.742556	-4.525895	-1.101006	0.787969	-0.468089	3.510858	-0.026600	-0.045687	-0.011252	0.999835	0.003940	-0.002340	0.017553	
31077	    0	-2.568442	-3.220692	-1.414093	0.118457	-0.484510	4.588725	-0.024902	-0.032776	-0.014221	0.999733	0.000592	-0.002422	0.022942	
31078	    0	-3.052930	-4.026321	-2.245484	-0.378660	-0.542333	5.669410	-0.029310	-0.041148	-0.022458	0.999592	-0.001893	-0.002711	0.028343	
31079	    0	-2.226121	-4.194662	-2.640352	-0.478454	-0.614093	6.725833	-0.020752	-0.042725	-0.026367	0.999427	-0.002392	-0.003070	0.033623	
31080	    0	-0.194203	-4.886657	-2.018373	-0.177046	-0.658008	7.690623	0.000005	-0.048909	-0.020143	0.999254	-0.000885	-0.003289	0.038444	
31081	    0	1.927856	-5.456163	-1.159756	0.465725	-0.628853	8.491800	0.021606	-0.053650	-0.011658	0.999090	0.002328	-0.003143	0.042446	
31082	    0	4.359306	-5.253281	-0.132787	1.017164	-0.474142	9.097996	0.045924	-0.050471	-0.001481	0.998949	0.005084	-0.002370	0.045474	
31083	    0	7.426389	-4.509353	0.139991	1.387559	-0.309682	9.515235	0.076294	-0.041504	0.001221	0.998843	0.006935	-0.001548	0.047558	
31084	    0	10.506612	-3.865286	-0.178641	1.621922	-0.213903	9.862811	0.106802	-0.033398	-0.001958	0.998751	0.008106	-0.001069	0.049294	
31085	    0	13.282021	-3.201117	-0.125513	1.654210	-0.117545	10.153861	0.134216	-0.025208	-0.001404	0.998676	0.008267	-0.000587	0.050747	
31086	    0	15.548477	-3.060649	-0.362766	1.664935	-0.056675	10.427169	0.156797	-0.022421	-0.003793	0.998606	0.008321	-0.000283	0.052112	
31087	    0	17.403451	-3.103193	-0.588240	1.664967	0.016793	10.646630	0.175354	-0.021667	-0.006104	0.998549	0.008321	0.000084	0.053207	
31088	    0	19.680745	-2.057527	-0.674262	1.763087	0.078241	10.847591	0.197532	-0.009810	-0.006938	0.998490	0.008811	0.000391	0.054211	
31089	    0	22.884648	-0.487475	-0.783338	1.922867	0.119273	11.131101	0.228638	0.007935	-0.007935	0.998405	0.009609	0.000596	0.055626	
31090	    0	26.150155	1.262191	-1.065766	1.945599	0.100190	11.255279	0.260231	0.027399	-0.010570	0.998369	0.009723	0.000501	0.056246	
31091	    0	30.168719	3.626804	-1.093666	2.025940	0.069656	11.230458	0.299011	0.053223	-0.010559	0.998372	0.010124	0.000348	0.056122	
31092	    0	33.448613	7.318029	-2.022796	2.461621	-0.080534	11.128727	0.329727	0.091862	-0.019040	0.998376	0.012301	-0.000402	0.055614	
31093	    0	34.999656	13.154998	-4.024329	2.840578	-0.025954	10.853164	0.342163	0.150818	-0.038147	0.998426	0.014195	-0.000130	0.054237	
31094	    0	35.295566	21.318825	-5.871561	3.046579	0.265443	10.421343	0.341113	0.232038	-0.055734	0.998526	0.015225	0.001327	0.052081	
31095	    0	35.554720	30.242339	-5.570618	2.788199	0.497075	9.679700	0.340210	0.319885	-0.052185	0.998729	0.013935	0.002484	0.048378	
31096	    0	36.358261	37.662176	-5.577242	2.039814	0.389227	8.618888	0.346792	0.392358	-0.052509	0.999017	0.010196	0.001945	0.043080	
31097	    0	32.045031	48.304535	-9.873208	0.878346	0.107027	7.393829	0.302246	0.494873	-0.096741	0.999307	0.004391	0.000535	0.036961	
31098	    0	18.794318	52.322494	-18.822044	-0.452494	-0.343758	6.126416	0.172136	0.528233	-0.189107	0.999526	-0.002262	-0.001719	0.030627	
31099	    0	14.020001	51.694189	-20.021348	-1.847809	-0.607353	4.130913	0.130127	0.517822	-0.204590	0.999739	-0.009238	-0.003036	0.020653	
31100	    0	9.696496	54.596342	-6.228129	-2.870127	-0.679431	1.715553	0.092511	0.545804	-0.069796	0.999854	-0.014350	-0.003397	0.008577	
31101	    0	5.232621	50.486432	2.876100	-3.682923	-0.501090	-0.353261	0.053162	0.505188	0.019592	0.999825	-0.018414	-0.002505	-0.001766	
31102	    0	4.107133	42.358410	4.871758	-3.699200	-0.168813	-2.098051	0.045481	0.423927	0.040915	0.999773	-0.018495	-0.000844	-0.010489	
31103	    0	7.241155	33.820974	6.796003	-2.595705	0.094802	-3.218308	0.077881	0.337830	0.063538	0.999785	-0.012978	0.000474	-0.016090	
31104	    0	17.866759	20.243542	2.896381	-0.918257	-0.537335	-3.775839	0.182371	0.199147	0.028531	0.999807	-0.004591	-0.002687	-0.018878	
31105	    0	9.811967	9.076978	-9.974285	-0.131046	-0.140393	-4.550564	0.100220	0.088440	-0.099731	0.999741	-0.000655	-0.000702	-0.022751	
31106	    0	21.779977	-33.740947	-31.045807	1.840141	-1.042053	-3.374704	0.213722	-0.338170	-0.312447	0.999802	0.009200	-0.005210	-0.016872	
31107	    0	48.699912	13.663114	-48.874377	7.004749	-1.541495	-5.821772	0.494751	0.139221	-0.480103	0.998933	0.035011	-0.007705	-0.029099	
31108	    0	86.201489	168.015116	66.862297	0.244916	3.596423	-13.630902	0.985474	1.614948	0.653638	0.997516	0.001224	0.017967	-0.068098	
31109	    0	30.326937	-36.254400	6.366111	-3.490246	-3.795678	-5.009013	0.292725	-0.368713	0.075684	0.999353	-0.017447	-0.018974	-0.025040	
31110	    0	-11.189284	-13.832689	22.856335	0.607597	-1.315728	-6.311375	-0.117695	-0.135365	0.227387	0.999475	0.003037	-0.006577	-0.031551	
31111	    0	-5.688937	11.288116	-0.714983	0.783108	-0.039680	-6.531940	-0.053162	0.114685	-0.006714	0.999458	0.003915	-0.000198	-0.032654	
31112	    0	14.660488	11.375324	-2.655662	1.458552	0.054748	-5.441241	0.149623	0.109900	-0.025786	0.999603	0.007292	0.000274	-0.027203	
31113	    0	10.541472	6.545623	-3.102603	0.517505	-0.070959	-4.332314	0.106812	0.063232	-0.030823	0.999762	0.002587	-0.000355	-0.021660	
31114	    0	3.272984	5.551212	-11.144688	-0.344105	-0.175104	-3.628360	0.033825	0.054713	-0.111512	0.999833	-0.001720	-0.000875	-0.018141	
31115	    0	11.858678	9.997597	-7.957873	-1.218477	0.343531	-3.267837	0.120056	0.097534	-0.080383	0.999846	-0.006092	0.001718	-0.016338	
31116	    0	16.225158	5.246056	1.451080	-0.395598	0.479334	-2.846819	0.163011	0.050172	0.014020	0.999893	-0.001978	0.002397	-0.014234	
31117	    0	21.538860	12.000926	-5.858937	-0.955994	0.667784	-2.516255	0.216675	0.117004	-0.059875	0.999904	-0.004780	0.003339	-0.012581	
31118	    0	24.084331	4.040706	-4.510499	-0.987459	0.512518	-2.200945	0.241150	0.037529	-0.045913	0.999924	-0.004937	0.002563	-0.011004	
31119	    0	27.543045	3.826988	-0.692336	-0.593389	0.301368	-2.198840	0.275818	0.035217	-0.007446	0.999933	-0.002967	0.001507	-0.010994	
31120	    0	26.473285	-0.500904	3.875354	-0.992793	0.110247	-1.866185	0.264693	-0.007287	0.038640	0.999944	-0.004964	0.000551	-0.009331	
31121	    0	23.662011	-1.335517	4.873104	-1.425200	0.056649	-1.696812	0.236511	-0.015015	0.048767	0.999938	-0.007126	0.000283	-0.008484	
31122	    0	24.336116	-4.669264	5.331294	-1.919413	0.016976	-1.536599	0.243000	-0.048046	0.053749	0.999924	-0.009597	0.000085	-0.007683	
31123	    0	22.096992	-4.644249	5.715614	-2.383495	-0.132565	-1.235236	0.220642	-0.047119	0.057861	0.999909	-0.011917	-0.000663	-0.006176	
31124	    0	18.485888	-7.216777	3.059417	-3.319143	-0.294509	-0.916527	0.184481	-0.072490	0.032067	0.999850	-0.016595	-0.001472	-0.004582	
31125	    0	15.705141	-9.794366	-4.829572	-3.884382	-0.372148	-0.808769	0.156738	-0.099487	-0.046082	0.999801	-0.019421	-0.001861	-0.004044	
31126	    0	18.126524	-13.102501	-4.972654	-3.065240	-0.076297	-0.933878	0.180667	-0.132610	-0.047633	0.999871	-0.015326	-0.000381	-0.004669	
31127	    0	15.838422	-8.068002	-3.048381	-2.026419	0.239760	-1.402319	0.157776	-0.082092	-0.029846	0.999923	-0.010132	0.001199	-0.007011	
31128	    0	14.316246	-2.169099	-2.738230	-0.994321	0.659956	-1.828230	0.142864	-0.023135	-0.027741	0.999940	-0.004972	0.003300	-0.009141	
31129	    0	11.970493	4.989907	-7.308820	0.167091	1.139306	-2.906918	0.119995	0.048218	-0.073730	0.999877	0.000835	0.005696	-0.014534	
31130	    0	10.465628	5.982153	-8.749526	-0.070196	1.627867	-4.163707	0.105154	0.057605	-0.088370	0.999749	-0.000351	0.008139	-0.020817	
31131	    0	14.005614	12.967381	-9.872542	0.817963	1.381266	-4.928378	0.142517	0.126587	-0.099182	0.999663	0.004089	0.006906	-0.024639	
31132	    0	15.423622	13.867375	-7.775327	0.872533	1.105450	-5.370258	0.157460	0.134814	-0.078024	0.999615	0.004362	0.005527	-0.026848	
31133	    0	15.619127	2.798200	-4.436269	1.218750	0.756926	-5.140533	0.156677	0.024231	-0.044800	0.999643	0.006093	0.003784	-0.025700	
31134	    0	19.473486	-0.328561	-1.535803	1.607901	0.554534	-5.147038	0.194523	-0.008167	-0.015950	0.999632	0.008039	0.002772	-0.025732	
31135	    0	21.042176	-2.344781	1.960453	1.698532	0.371792	-5.416074	0.209717	-0.029297	0.018982	0.999595	0.008492	0.001859	-0.027077	
31136	    0	21.707810	-2.397109	2.954165	1.237102	0.329258	-5.877809	0.216293	-0.030517	0.029010	0.999547	0.006185	0.001646	-0.029385	
31137	    0	23.464558	-2.696947	3.427878	0.444106	0.441245	-6.357893	0.233704	-0.034485	0.033691	0.999490	0.002220	0.002206	-0.031784	
31138	    0	27.012619	-2.641925	3.034163	-0.769386	0.525579	-6.836149	0.269094	-0.035515	0.029758	0.999405	-0.003846	0.002627	-0.034174	
31139	    0	28.819281	-3.463411	2.309402	-1.515499	0.444310	-6.728939	0.286865	-0.044128	0.022766	0.999402	-0.007576	0.002221	-0.033638	
31140	    0	27.061919	-9.233553	-0.102245	-1.833285	0.453075	-6.220959	0.267571	-0.100698	-0.000733	0.999472	-0.009165	0.002265	-0.031099	
31141	    0	26.299303	-12.997449	-1.571834	-1.444290	0.351009	-6.082384	0.258850	-0.138000	-0.015198	0.999510	-0.007220	0.001755	-0.030407	
31142	    0	24.817267	-12.804405	-4.166142	-0.920060	0.129148	-6.091319	0.244090	-0.135711	-0.041207	0.999525	-0.004600	0.000646	-0.030452	
31143	    0	22.242817	-9.900146	-4.067730	-0.842221	-0.017550	-5.935795	0.219360	-0.105713	-0.040222	0.999550	-0.004210	-0.000088	-0.029675	
31144	    0	20.242400	-7.421912	-2.547534	-0.981657	-0.161193	-5.665988	0.200232	-0.080036	-0.024930	0.999586	-0.004908	-0.000806	-0.028326	
31145	    0	19.458065	-5.428360	-1.190804	-1.110024	-0.242645	-5.332844	0.193054	-0.059509	-0.011353	0.999628	-0.005549	-0.001213	-0.026661	
31146	    0	20.438790	-4.913896	-1.332517	-1.040371	-0.240350	-4.761596	0.203156	-0.054053	-0.012808	0.999701	-0.005201	-0.001202	-0.023806	
31147	    0	21.857355	-6.465644	-1.824370	-0.807051	-0.080877	-3.839358	0.217285	-0.068909	-0.017883	0.999807	-0.004035	-0.000404	-0.019196	
31148	    0	19.530192	-8.011567	-3.764732	-0.494780	-0.092891	-2.559353	0.194272	-0.082699	-0.037354	0.999914	-0.002474	-0.000464	-0.012796	
31149	    0	15.509309	-6.807293	-2.976367	-0.768860	-0.182344	-1.327528	0.154663	-0.069214	-0.029358	0.999969	-0.003844	-0.000912	-0.006638	
31150	    0	7.722022	-5.905114	-2.220863	-0.650790	-0.614168	0.013351	0.077291	-0.059117	-0.021779	0.999990	-0.003254	-0.003071	0.000067	
31151	    0	-0.292193	-6.328489	-1.483580	0.157358	-0.545508	1.583118	-0.002380	-0.063293	-0.014893	0.999964	0.000787	-0.002728	0.007915	
31152	    0	-2.651346	-6.045141	-0.849732	1.262147	-0.334563	2.923709	-0.025612	-0.060775	-0.008924	0.999871	0.006310	-0.001673	0.014618	
31153	    0	-1.511415	-3.770932	-1.244550	1.612982	-0.077635	4.048477	-0.014343	-0.037903	-0.012756	0.999763	0.008064	-0.000388	0.020241	
31154	    0	0.776180	-1.951541	-1.558629	1.097805	0.032619	5.121817	0.008254	-0.019222	-0.015694	0.999657	0.005488	0.000163	0.025606	
31155	    0	1.688804	-1.514207	-2.127638	0.286147	0.043685	6.099886	0.017334	-0.014587	-0.021301	0.999534	0.001431	0.000218	0.030495	
31156	    0	1.872909	-1.504542	-2.505635	-0.163112	-0.069823	7.034418	0.019252	-0.014395	-0.025038	0.999381	-0.000815	-0.000349	0.035165	
31157	    0	2.708054	-1.737686	-2.494323	-0.078603	-0.249356	7.916040	0.027771	-0.016296	-0.024902	0.999215	-0.000393	-0.001246	0.039570	
31158	    0	4.145546	-2.635705	-1.944512	0.381590	-0.374721	8.677163	0.042582	-0.024488	-0.019414	0.999055	0.001907	-0.001873	0.043372	
31159	    0	5.816589	-3.568863	-1.027777	0.877125	-0.375502	9.269253	0.059753	-0.032898	-0.010315	0.998915	0.004384	-0.001877	0.046329	
31160	    0	8.300597	-4.504037	-0.291356	1.263554	-0.299002	9.731386	0.085069	-0.040915	-0.003055	0.998795	0.006315	-0.001494	0.048637	
31161	    0	11.527417	-4.427494	-0.005753	1.531311	-0.209899	10.084329	0.117310	-0.038391	-0.000244	0.998699	0.007653	-0.001049	0.050400	
31162	    0	14.365879	-3.557322	-0.415739	1.706531	-0.211623	10.392033	0.145250	-0.028015	-0.004265	0.998613	0.008529	-0.001058	0.051936	
31163	    0	16.779329	-2.406367	-0.167515	1.522046	-0.195217	10.726071	0.168762	-0.015015	-0.001648	0.998532	0.007607	-0.000976	0.053604	
31164	    0	19.699081	-1.013367	1.409173	1.322666	-0.146178	11.049059	0.197143	0.000665	0.014216	0.998452	0.006610	-0.000731	0.055217	
31165	    0	22.327074	1.635870	0.308752	1.530528	-0.346373	11.328958	0.221863	0.028931	0.003662	0.998364	0.007648	-0.001731	0.056614	
31166	    0	25.979984	5.250121	-1.042807	1.621963	-0.462028	11.465957	0.256244	0.067344	-0.009327	0.998322	0.008105	-0.002309	0.057298	
31167	    0	30.029394	9.448808	0.734013	1.810716	-0.454778	11.499422	0.294189	0.111450	0.008972	0.998303	0.009048	-0.002273	0.057465	
31168	    0	32.310966	14.362916	-0.059975	2.639709	-0.475384	11.224298	0.314377	0.161426	0.002208	0.998335	0.013191	-0.002376	0.056090	
31169	    0	33.680867	19.697129	-2.160235	3.428173	-0.267743	10.726495	0.325623	0.214966	-0.017578	0.998414	0.017132	-0.001338	0.053604	
31170	    0	34.373068	26.566007	-2.856522	3.858893	0.041219	10.017054	0.329840	0.282901	-0.023285	0.998559	0.019285	0.000206	0.050061	
31171	    0	35.794076	33.571320	-2.997745	3.766022	0.307586	8.977242	0.342346	0.351807	-0.023987	0.998814	0.018823	0.001537	0.044868	
31172	    0	37.090584	44.324995	-6.883960	3.053585	0.321289	7.697401	0.353359	0.458064	-0.062497	0.999141	0.015264	0.001606	0.038476	
31173	    0	26.293297	54.197461	-14.504475	1.500972	-0.049409	6.402216	0.245422	0.551086	-0.140869	0.999459	0.007504	-0.000247	0.032005	
31174	    0	14.215858	52.291593	-19.919334	-0.145545	-0.570545	4.853160	0.129987	0.526024	-0.199193	0.999701	-0.000728	-0.002852	0.024263	
31175	    0	12.769014	51.867550	-13.777172	-1.628753	-0.643185	2.645222	0.121277	0.519165	-0.141602	0.999874	-0.008143	-0.003216	0.013226	
31176	    0	8.119797	51.049269	-2.457256	-2.750871	-0.493448	0.497262	0.080001	0.510292	-0.031394	0.999899	-0.013754	-0.002467	0.002486	
31177	    0	5.593534	44.177087	1.370552	-3.334226	-0.226415	-1.346661	0.058899	0.441528	0.006409	0.999837	-0.016670	-0.001132	-0.006733	
31178	    0	6.292343	37.551753	2.432203	-2.992834	0.083929	-2.723689	0.068041	0.374922	0.018681	0.999795	-0.014963	0.000420	-0.013618	
31179	    0	6.919806	30.335518	4.153317	-2.372929	0.271056	-3.644087	0.074768	0.302490	0.037842	0.999763	-0.011864	0.001355	-0.018219	
31180	    0	7.589208	16.312605	6.986202	-1.626729	0.250075	-4.276459	0.079451	0.162013	0.068443	0.999737	-0.008133	0.001250	-0.021380	
31181	    0	14.569463	7.907145	1.725273	-1.554831	-0.509693	-4.546035	0.147400	0.075867	0.017029	0.999708	-0.007773	-0.002548	-0.022728	
31182	    0	6.702939	-17.423622	-21.471133	-1.366900	-1.137240	-3.657593	0.065025	-0.176898	-0.213135	0.999793	-0.006834	-0.005686	-0.018287	
31183	    0	5.216015	-27.394887	-61.475216	2.971261	-4.050002	-2.237983	0.061646	-0.265442	-0.617554	0.999621	0.014854	-0.020247	-0.011189	
31184	    0	62.537830	102.526038	-43.570590	1.573474	3.424586	-9.414128	0.665297	0.998008	-0.438948	0.998714	0.007864	0.017116	-0.047050	
31185	    0	86.623548	62.494435	82.748644	-2.932230	-0.005915	-8.637943	0.892456	0.598816	0.818604	0.998960	-0.014656	-0.000030	-0.043175	
31186	    0	13.789042	-18.153144	15.201630	-1.801495	-2.355449	-4.142065	0.132296	-0.182921	0.155240	0.999675	-0.009007	-0.011776	-0.020708	
31187	    0	-9.483017	-8.890765	9.876478	0.840307	-1.529149	-5.590856	-0.098022	-0.086609	0.097656	0.999571	0.004201	-0.007645	-0.027950	
31188	    0	-4.018584	7.180379	-0.516627	0.701602	0.120367	-5.146796	-0.038323	0.072824	-0.004889	0.999662	0.003508	0.000602	-0.025731	
31189	    0	22.606484	10.503390	3.037423	1.208809	0.251032	-4.762748	0.228516	0.099426	0.030701	0.999697	0.006043	0.001255	-0.023811	
31190	    0	13.823713	4.908687	-5.818656	0.553356	-0.376724	-3.768197	0.139240	0.046630	-0.057794	0.999817	0.002767	-0.001884	-0.018840	
31191	    0	8.313742	9.998715	-12.803931	-0.981952	-0.105863	-3.312085	0.084839	0.097961	-0.128479	0.999850	-0.004910	-0.000529	-0.016560	
31192	    0	13.435892	3.493180	-1.051726	-0.628877	0.307476	-2.951735	0.134838	0.032910	-0.010830	0.999885	-0.003144	0.001537	-0.014758	
31193	    0	20.428812	7.403625	-4.500265	-0.637647	0.650045	-2.600180	0.205078	0.071228	-0.045898	0.999905	-0.003188	0.003250	-0.013000	
31194	    0	25.049558	10.212378	-4.742569	-1.174388	0.849367	-2.174630	0.251378	0.099109	-0.049080	0.999914	-0.005872	0.004247	-0.010873	
31195	    0	25.219612	0.812307	-6.327225	-1.187733	0.568403	-1.931044	0.252075	0.005310	-0.064026	0.999931	-0.005939	0.002842	-0.009655	
31196	    0	29.378490	2.425169	-0.269530	-1.392204	0.466166	-1.745643	0.293974	0.021664	-0.003537	0.999934	-0.006961	0.002331	-0.008728	
31197	    0	28.255263	-4.224906	5.391471	-2.175775	0.174718	-1.445049	0.282288	-0.043701	0.054138	0.999914	-0.010879	0.000874	-0.007225	
31198	    0	26.886098	-7.105974	6.286998	-2.462467	0.045396	-1.319737	0.268402	-0.072051	0.063692	0.999902	-0.012312	0.000227	-0.006598	
31199	    0	26.587640	-11.839177	6.192251	-2.637381	-0.082400	-1.098670	0.265198	-0.119019	0.063599	0.999897	-0.013186	-0.000412	-0.005493	
31200	    0	20.934072	-14.099765	4.238308	-2.510524	-0.264557	-0.671787	0.208809	-0.141150	0.044431	0.999914	-0.012552	-0.001323	-0.003359	
31201	    0	14.543041	-11.909575	-3.343309	-2.998471	-0.282108	-0.659969	0.145081	-0.120056	-0.031433	0.999881	-0.014992	-0.001410	-0.003300	
31202	    0	16.509803	-10.945656	-5.671891	-2.634138	0.104908	-1.083792	0.164470	-0.111084	-0.055349	0.999898	-0.013170	0.000525	-0.005419	
31203	    0	17.840701	-8.255190	-0.977820	-1.319725	0.743883	-1.812023	0.177612	-0.084229	-0.009888	0.999929	-0.006598	0.003719	-0.009060	
31204	    0	15.879189	2.572928	-4.576168	0.290882	1.286748	-2.784839	0.158832	0.023585	-0.046748	0.999881	0.001454	0.006433	-0.013924	
31205	    0	11.217621	5.525178	-9.801718	0.270867	1.768837	-4.175927	0.112427	0.053040	-0.098938	0.999742	0.001354	0.008843	-0.020878	
31206	    0	9.026832	6.454911	-12.254991	0.499028	1.614973	-5.346045	0.090963	0.062430	-0.123125	0.999606	0.002495	0.008074	-0.026727	
31207	    0	14.891689	12.975266	-12.816850	0.505911	1.240931	-6.080084	0.151978	0.125488	-0.128784	0.999515	0.002529	0.006204	-0.030396	
31208	    0	19.193950	3.965736	-5.439164	0.440291	1.216524	-6.271480	0.192724	0.033743	-0.055484	0.999487	0.002201	0.006082	-0.031352	
31209	    0	23.029571	-0.246816	-2.140492	0.613504	0.845666	-6.189218	0.229980	-0.009521	-0.022400	0.999507	0.003067	0.004228	-0.030941	
31210	    0	25.448128	-1.147340	1.427343	0.489320	0.592335	-6.407705	0.253980	-0.019650	0.013479	0.999479	0.002446	0.002961	-0.032033	
31211	    0	27.263716	-1.196350	3.320847	-0.312864	0.383259	-6.716662	0.272095	-0.021057	0.032715	0.999433	-0.001564	0.001916	-0.033577	
31212	    0	28.800425	-1.743662	2.294154	-1.225924	0.307721	-7.044579	0.287190	-0.027424	0.022647	0.999359	-0.006128	0.001538	-0.035215	
31213	    0	30.114973	-4.364556	0.757859	-2.039057	0.271098	-7.251167	0.299316	-0.054443	0.007690	0.999290	-0.010193	0.001355	-0.036247	
31214	    0	30.713296	-7.763745	-0.602279	-2.858900	0.132595	-7.331833	0.304008	-0.088899	-0.005008	0.999226	-0.014291	0.000663	-0.036650	
31215	    0	27.699846	-12.105710	-2.133057	-3.293634	0.041399	-6.822310	0.272644	-0.130737	-0.019287	0.999282	-0.016464	0.000207	-0.034103	
31216	    0	25.237954	-13.484715	-3.000255	-3.321233	0.202986	-6.452451	0.247816	-0.143368	-0.027922	0.999341	-0.016603	0.001015	-0.032255	
31217	    0	23.370109	-12.907754	-3.839582	-2.951637	0.073448	-6.248955	0.229492	-0.136841	-0.036499	0.999402	-0.014755	0.000367	-0.031239	
31218	    0	22.073596	-12.162298	-4.848248	-2.801451	0.167305	-5.979862	0.216916	-0.128812	-0.046894	0.999454	-0.014005	0.000836	-0.029894	
31219	    0	19.775900	-10.086585	-3.174557	-2.107377	0.310565	-5.738964	0.194702	-0.106812	-0.030945	0.999531	-0.010535	0.001553	-0.028690	
31220	    0	18.409505	-9.652534	-3.332341	-1.246421	0.278318	-5.386277	0.181357	-0.101641	-0.032954	0.999617	-0.006231	0.001391	-0.026928	
31221	    0	17.313558	-10.502996	-2.785214	-0.404207	0.302154	-4.862697	0.170471	-0.109253	-0.027893	0.999701	-0.002021	0.001511	-0.024311	
31222	    0	17.047457	-11.422336	-2.322363	0.613827	0.328087	-4.019444	0.168096	-0.117545	-0.023858	0.999791	0.003069	0.001640	-0.020096	
31223	    0	15.849536	-11.518820	-3.397312	1.531476	0.370042	-2.801634	0.156799	-0.117126	-0.035156	0.999870	0.007657	0.001850	-0.014008	
31224	    0	12.156597	-8.741618	-4.222717	1.859705	0.321014	-1.257542	0.120946	-0.087779	-0.043237	0.999935	0.009298	0.001605	-0.006288	
31225	    0	6.691794	-5.677043	-2.746976	1.769471	0.134279	0.199130	0.066956	-0.056458	-0.028015	0.999960	0.008847	0.000671	0.000996	
31226	    0	-1.112225	-2.713331	-3.821285	1.987897	-0.106433	1.756338	-0.010865	-0.026848	-0.038486	0.999911	0.009939	-0.000532	0.008781	
31227	    0	-5.376867	-0.476628	-3.044627	1.983185	0.151071	3.148070	-0.053711	-0.005310	-0.030457	0.999826	0.009915	0.000755	0.015739	
31228	    0	-7.870323	-0.493517	-3.418728	2.196554	0.247220	4.640899	-0.078609	-0.006385	-0.034155	0.999669	0.010982	0.001236	0.023202	
31229	    0	-4.549232	-0.795714	-4.331313	1.600121	0.475573	5.728236	-0.045349	-0.008911	-0.043274	0.999555	0.007999	0.002378	0.028637	
31230	    0	0.104214	-1.988915	-4.194881	0.896245	0.507071	6.726227	0.001599	-0.019653	-0.042041	0.999421	0.004480	0.002535	0.033625	
31231	    0	1.118392	-2.395406	-4.308045	0.327381	0.559562	7.619807	0.011963	-0.023438	-0.043152	0.999269	0.001637	0.002797	0.038090	
31232	    0	2.221012	-2.391545	-3.353499	0.134127	0.507126	8.481479	0.023111	-0.022925	-0.033608	0.999097	0.000670	0.002535	0.042395	
31233	    0	4.944364	-2.774147	-2.580246	0.492458	0.290781	9.107316	0.050598	-0.025391	-0.025940	0.998959	0.002461	0.001453	0.045521	
31234	    0	7.175158	-2.452163	-2.012577	1.022539	0.081093	9.526081	0.072799	-0.020967	-0.020268	0.998852	0.005111	0.000405	0.047612	
31235	    0	8.394830	-2.474364	-1.309715	1.441780	-0.024996	9.778761	0.085022	-0.020508	-0.013245	0.998778	0.007206	-0.000125	0.048874	
31236	    0	9.582633	-3.024053	-1.345107	1.884328	-0.117162	10.049620	0.097187	-0.025250	-0.013648	0.998693	0.009418	-0.000586	0.050226	
31237	    0	12.095340	-3.252953	-2.151840	2.048887	-0.128234	10.440410	0.122437	-0.025940	-0.021729	0.998585	0.010240	-0.000641	0.052177	
31238	    0	15.596456	-3.243681	0.295375	1.895913	0.100950	10.869771	0.157421	-0.023931	0.002621	0.998478	0.009475	0.000504	0.054321	
31239	    0	18.503228	-0.083579	-0.102573	2.316973	0.022901	11.192309	0.184692	0.009521	-0.000977	0.998367	0.011579	0.000114	0.055931	
31240	    0	21.376327	2.631701	-0.635688	2.371404	-0.008588	11.368463	0.211806	0.038470	-0.005939	0.998314	0.011850	-0.000043	0.056810	
31241	    0	24.906925	5.080739	-1.030685	2.671266	-0.131302	11.495012	0.245605	0.065125	-0.009338	0.998259	0.013349	-0.000656	0.057442	
31242	    0	29.288735	9.185752	-2.868167	3.185610	-0.172525	11.413003	0.287023	0.108791	-0.026789	0.998244	0.015919	-0.000862	0.057032	
31243	    0	33.412592	16.425885	-3.964969	3.776414	-0.033398	11.070458	0.324341	0.183105	-0.036255	0.998290	0.018871	-0.000167	0.055321	
31244	    0	34.981195	23.089121	-4.426367	4.400336	0.088358	10.488250	0.337024	0.249693	-0.039057	0.998383	0.021990	0.000442	0.052413	
31245	    0	34.064241	26.621998	-6.015310	4.746468	0.093124	9.734524	0.327087	0.283691	-0.053711	0.998533	0.023721	0.000465	0.048649	
31246	    0	34.912337	30.253074	-6.004365	4.450863	0.235843	8.729423	0.335382	0.318612	-0.053472	0.998799	0.022245	0.001179	0.043630	
31247	    0	36.826416	37.804323	-8.419752	3.803023	0.217501	7.431664	0.353760	0.392883	-0.077209	0.999128	0.019010	0.001087	0.037148	
31248	    0	28.500933	47.380335	-14.101551	1.930374	-0.072873	6.085667	0.270444	0.483512	-0.136279	0.999490	0.009650	-0.000364	0.030423	
31249	    0	13.582352	47.506477	-20.511911	-0.099955	-0.530105	4.867277	0.124756	0.478088	-0.205017	0.999700	-0.000500	-0.002650	0.024334	
31250	    0	11.040573	45.433382	-16.275941	-1.830390	-0.704231	3.000802	0.104170	0.454415	-0.166544	0.999839	-0.009151	-0.003521	0.015003	
31251	    0	9.083840	46.082445	-3.576182	-3.050177	-0.687439	0.942272	0.088806	0.460632	-0.042480	0.999866	-0.015250	-0.003437	0.004711	
31252	    0	4.894606	41.023034	2.339802	-3.656030	-0.335332	-0.776146	0.050508	0.410374	0.015981	0.999824	-0.018279	-0.001677	-0.003881	
31253	    0	3.930122	32.830224	1.001256	-3.328928	0.168812	-2.232511	0.042969	0.327942	0.004517	0.999799	-0.016644	0.000844	-0.011162	
31254	    0	6.533345	27.115546	0.386427	-2.281340	0.344490	-3.256823	0.069740	0.270063	0.000662	0.999801	-0.011406	0.001722	-0.016283	
31255	    0	9.095791	22.763969	1.742471	-1.675547	0.311495	-4.006512	0.095520	0.225891	0.015381	0.999763	-0.008377	0.001557	-0.020031	
31256	    0	7.896262	16.727861	3.101444	-1.987855	0.239588	-4.586126	0.082810	0.165706	0.029264	0.999686	-0.009938	0.001198	-0.022928	
31257	    0	10.026946	5.869921	3.768112	-2.541660	-0.070771	-4.762847	0.101624	0.056763	0.036987	0.999635	-0.012707	-0.000354	-0.023811	
31258	    0	11.812826	-6.487460	-12.319967	-3.065639	-0.888732	-4.041355	0.117303	-0.069123	-0.121639	0.999668	-0.015326	-0.004443	-0.020205	
31259	    0	9.696387	-32.142660	-40.155874	-2.432416	-1.927888	-2.571280	0.096619	-0.327515	-0.396667	0.999797	-0.012161	-0.009639	-0.012856	
31260	    0	26.533107	38.469340	-51.640943	1.843827	-0.131811	-4.529069	0.274361	0.383286	-0.512692	0.999701	0.009218	-0.000659	-0.022643	
31261	    0	103.532737	121.059195	59.709756	-1.565174	3.700109	-12.645076	1.119873	1.146057	0.567749	0.997800	-0.007820	0.018487	-0.063179	
31262	    0	35.913003	-31.355193	11.297089	-1.751784	-3.546108	-4.558110	0.349767	-0.320553	0.122016	0.999544	-0.008758	-0.017728	-0.022787	
31263	    0	-0.749505	-3.209335	20.129997	1.529231	-2.453904	-6.222229	-0.010986	-0.033325	0.200928	0.999412	0.007645	-0.012267	-0.031105	
31264	    0	-17.359085	2.596419	-4.799118	0.506485	-0.961463	-6.204868	-0.172439	0.031449	-0.048747	0.999503	0.002532	-0.004807	-0.031019	
31265	    0	14.411605	14.736813	-4.066480	1.092100	-0.190760	-5.493120	0.148132	0.143555	-0.039734	0.999607	0.005460	-0.000954	-0.027462	
31266	    0	11.732483	2.723908	-6.717352	0.836438	-0.324847	-4.249716	0.117981	0.025017	-0.066875	0.999763	0.004182	-0.001624	-0.021247	
31267	    0	8.076035	8.874166	-15.348328	-0.578148	-0.121314	-3.529546	0.082397	0.086853	-0.153687	0.999840	-0.002891	-0.000607	-0.017647	
31268	    0	11.527330	8.170192	-5.075928	-0.840797	0.298895	-3.160619	0.116467	0.079653	-0.051270	0.999865	-0.004204	0.001494	-0.015802	
31269	    0	18.827368	8.359396	-1.263824	-0.593398	0.643182	-2.839002	0.189392	0.080872	-0.013489	0.999889	-0.002967	0.003216	-0.014194	
31270	    0	21.378842	10.773870	-4.456143	-0.847841	0.903537	-2.329894	0.214817	0.105047	-0.045979	0.999912	-0.004239	0.004518	-0.011649	
31271	    0	23.965292	5.545969	-4.298156	-0.649085	0.759905	-2.102709	0.240051	0.052795	-0.044067	0.999931	-0.003245	0.003799	-0.010513	
31272	    0	30.621584	6.411758	-1.645319	-0.755898	0.565350	-2.012485	0.306791	0.060967	-0.017554	0.999938	-0.003779	0.002827	-0.010062	
31273	    0	30.133313	-2.689339	4.820489	-1.297593	0.194553	-1.641113	0.301147	-0.029053	0.048096	0.999945	-0.006488	0.000973	-0.008205	
31274	    0	28.428665	-2.568931	7.085864	-1.836629	0.003624	-1.484524	0.284090	-0.027146	0.071098	0.999929	-0.009183	0.000018	-0.007422	
31275	    0	28.211234	-9.013775	8.895349	-2.359081	-0.176054	-1.323740	0.281433	-0.090942	0.090271	0.999907	-0.011795	-0.000880	-0.006618	
31276	    0	23.500732	-9.012004	8.689736	-2.422785	-0.393497	-0.984793	0.234390	-0.090210	0.088451	0.999912	-0.012114	-0.001967	-0.004924	
31277	    0	17.515902	-13.191140	3.810452	-3.055509	-0.607325	-0.539421	0.174683	-0.131775	0.040649	0.999874	-0.015277	-0.003036	-0.002697	
31278	    0	13.129908	-14.231534	-3.017111	-3.243595	-0.498794	-0.439855	0.131056	-0.143064	-0.027528	0.999863	-0.016217	-0.002494	-0.002199	
31279	    0	16.484697	-12.165215	-2.409355	-2.158214	0.064851	-0.871297	0.164307	-0.122620	-0.022827	0.999931	-0.010791	0.000324	-0.004356	
31280	    0	17.333726	-4.649318	-0.344642	-0.738917	0.617798	-1.495381	0.172972	-0.047801	-0.003806	0.999960	-0.003695	0.003089	-0.007477	
31281	    0	15.971016	1.312617	-2.011824	0.206953	1.114684	-2.247679	0.159729	0.011353	-0.020996	0.999920	0.001035	0.005573	-0.011238	
31282	    0	9.765757	7.409977	-9.237926	0.309774	1.587019	-3.647092	0.098252	0.072455	-0.093044	0.999801	0.001549	0.007935	-0.018234	
31283	    0	9.052351	8.409950	-11.206141	0.334392	1.505432	-4.677292	0.091614	0.082153	-0.112610	0.999697	0.001672	0.007526	-0.023384	
31284	    0	15.056351	19.220458	-11.699076	0.410710	0.995012	-5.698430	0.155378	0.188064	-0.117367	0.999579	0.002053	0.004974	-0.028488	
31285	    0	16.076210	6.578127	-6.095204	0.064095	0.731184	-5.589272	0.162292	0.061279	-0.061523	0.999602	0.000320	0.003655	-0.027943	
31286	    0	20.915967	1.471565	-3.561919	-0.183700	0.421003	-5.376896	0.209378	0.009055	-0.036070	0.999636	-0.000918	0.002105	-0.026881	
31287	    0	23.483049	-2.699716	-0.389093	-0.377514	0.167869	-5.604528	0.233948	-0.033569	-0.004028	0.999605	-0.001887	0.000839	-0.028019	
31288	    0	23.738255	-3.709102	0.387602	-0.729674	0.036627	-6.048947	0.236117	-0.044231	0.003985	0.999536	-0.003648	0.000183	-0.030240	
31289	    0	25.792790	-3.575034	-0.053846	-1.435161	0.191533	-6.467859	0.256592	-0.044067	-0.000488	0.999451	-0.007174	0.000957	-0.032333	
31290	    0	28.458986	-4.131731	0.832178	-2.265657	0.365146	-6.831312	0.282975	-0.050908	0.008345	0.999351	-0.011326	0.001825	-0.034149	
31291	    0	31.028786	-5.153060	-0.260500	-3.253983	0.355046	-6.997132	0.308228	-0.062378	-0.002197	0.999253	-0.016266	0.001775	-0.034977	
31292	    0	28.274635	-9.373398	-1.842321	-3.498478	0.262701	-6.431492	0.279509	-0.103065	-0.017043	0.999329	-0.017488	0.001313	-0.032150	
31293	    0	26.139793	-12.751094	-3.243342	-3.260685	0.243617	-6.064279	0.257324	-0.135864	-0.030579	0.999406	-0.016300	0.001218	-0.030315	
31294	    0	23.980994	-12.612232	-4.195719	-2.585488	0.190959	-5.984032	0.235845	-0.133749	-0.040487	0.999468	-0.012925	0.000955	-0.029915	
31295	    0	21.163971	-9.433731	-4.374544	-2.156233	0.158718	-5.923680	0.208679	-0.101013	-0.042847	0.999502	-0.010779	0.000793	-0.029613	
31296	    0	20.111788	-7.403431	-3.360806	-1.768179	0.244939	-5.636273	0.198879	-0.079955	-0.033163	0.999562	-0.008840	0.001225	-0.028177	
31297	    0	20.212261	-6.244522	-1.503841	-1.223901	0.438933	-5.186317	0.200378	-0.067749	-0.015076	0.999642	-0.006119	0.002194	-0.025928	
31298	    0	20.815949	-6.626712	-0.279454	-0.462381	0.672970	-4.455184	0.206604	-0.070889	-0.003331	0.999743	-0.002312	0.003365	-0.022274	
31299	    0	18.508436	-7.799022	-2.024912	0.576047	0.627357	-3.260195	0.183716	-0.080933	-0.021057	0.999858	0.002880	0.003137	-0.016300	
31300	    0	14.328084	-6.596852	-3.159298	0.853365	0.482760	-1.969186	0.142546	-0.067238	-0.032223	0.999939	0.004267	0.002414	-0.009846	
31301	    0	8.708096	-5.486849	-2.051069	0.885015	0.135232	-0.777440	0.086853	-0.055115	-0.020813	0.999982	0.004425	0.000676	-0.003887	
31302	    0	0.968906	-4.982518	-3.131939	1.343739	0.026131	0.570684	0.009827	-0.049585	-0.031654	0.999973	0.006719	0.000131	0.002853	
31303	    0	-2.197159	-2.922481	-1.933705	1.882988	0.183301	1.785329	-0.021729	-0.029236	-0.019592	0.999915	0.009415	0.000916	0.008926	
31304	    0	-4.877862	-1.043877	-3.139227	2.147225	0.284593	3.011304	-0.048662	-0.010835	-0.031438	0.999827	0.010736	0.001423	0.015056	
31305	    0	-4.836448	-0.179567	-4.091081	1.657430	0.399813	4.068323	-0.048401	-0.002441	-0.040833	0.999756	0.008286	0.001999	0.020340	
31306	    0	-3.072441	-1.446685	-4.900296	0.932229	0.454955	5.151006	-0.030454	-0.015025	-0.049003	0.999655	0.004661	0.002275	0.025752	
31307	    0	-1.768862	-1.500354	-5.237801	0.380768	0.446582	6.165536	-0.017334	-0.015442	-0.052368	0.999520	0.001904	0.002233	0.030823	
31308	    0	-1.389304	-0.969094	-4.667071	0.096341	0.359420	7.091295	-0.013622	-0.010155	-0.046651	0.999370	0.000482	0.001797	0.035449	
31309	    0	-0.019356	-1.388503	-3.459690	0.142134	0.260992	7.844269	0.000305	-0.013855	-0.034607	0.999229	0.000710	0.001305	0.039211	
31310	    0	1.731521	-2.145744	-2.866024	0.542991	0.160264	8.381256	0.018168	-0.020630	-0.028731	0.999118	0.002714	0.000801	0.041894	
31311	    0	3.916802	-2.837547	-2.749828	0.929754	0.122873	8.798036	0.040344	-0.026489	-0.027649	0.999022	0.004647	0.000614	0.043976	
31312	    0	6.582511	-3.326064	-2.460234	1.186410	0.076893	9.148790	0.067240	-0.030059	-0.024813	0.998936	0.005930	0.000384	0.045728	
31313	    0	9.243910	-3.328233	-2.352952	1.365613	0.014501	9.493079	0.093872	-0.028687	-0.023743	0.998850	0.006825	0.000072	0.047447	
31314	    0	11.414566	-2.188655	-2.270128	1.362975	-0.059724	9.795175	0.115036	-0.016110	-0.022790	0.998777	0.006812	-0.000299	0.048956	
31315	    0	13.391835	-1.535374	-0.478936	1.180767	0.043697	10.004841	0.134460	-0.008606	-0.004883	0.998731	0.005901	0.000218	0.050003	
31316	    0	15.195609	-0.406135	-0.928482	1.671584	-0.146359	10.220327	0.151903	0.003781	-0.009164	0.998659	0.008354	-0.000731	0.051079	
31317	    0	17.896647	0.622151	-2.422933	2.058038	-0.263337	10.389991	0.178345	0.015747	-0.023865	0.998596	0.010285	-0.001316	0.051926	
31318	    0	21.338779	2.597671	-2.356769	2.372367	-0.297691	10.526044	0.211653	0.037424	-0.022853	0.998544	0.011856	-0.001488	0.052605	
31319	    0	25.023006	5.295551	-2.119793	2.867972	-0.283954	10.506294	0.247009	0.066284	-0.019958	0.998516	0.014333	-0.001419	0.052505	
31320	    0	27.513105	9.278015	-2.548659	3.585679	-0.276130	10.276338	0.269902	0.107173	-0.023275	0.998518	0.017920	-0.001380	0.051356	
31321	    0	28.505102	14.446841	-3.909383	4.187713	-0.199224	9.956623	0.277405	0.159180	-0.035583	0.998541	0.020928	-0.000996	0.049759	
31322	    0	28.179895	19.735765	-5.837052	4.383959	0.024044	9.547809	0.271911	0.211714	-0.053866	0.998620	0.021910	0.000120	0.047717	
31323	    0	28.577741	25.462297	-6.502200	4.177463	0.262558	8.968198	0.273865	0.268372	-0.059875	0.998775	0.020879	0.001312	0.044823	
31324	    0	30.084052	33.244252	-7.050813	3.518483	0.344197	8.086731	0.286931	0.345410	-0.065008	0.999026	0.017587	0.001720	0.040421	
31325	    0	28.687585	41.988238	-10.408663	2.172557	0.160443	6.856490	0.272156	0.430481	-0.099670	0.999352	0.010860	0.000802	0.034275	
31326	    0	19.822288	45.092615	-16.794591	0.418530	-0.330780	5.747830	0.185428	0.456728	-0.166680	0.999583	0.002092	-0.001654	0.028735	
31327	    0	13.335694	41.987718	-20.323115	-1.075647	-0.653896	4.374310	0.124817	0.421570	-0.205078	0.999741	-0.005378	-0.003269	0.021870	
31328	    0	10.811252	44.311766	-12.218696	-2.123162	-0.723298	2.313714	0.103439	0.443005	-0.126511	0.999869	-0.010615	-0.003616	0.011568	
31329	    0	5.899602	45.855429	-2.678840	-3.002097	-0.754578	0.360122	0.058289	0.458191	-0.033447	0.999878	-0.015010	-0.003773	0.001801	
31330	    0	4.898933	39.221369	0.560238	-3.505912	-0.564227	-1.204752	0.051348	0.391929	-0.001127	0.999824	-0.017529	-0.002821	-0.006023	
31331	    0	5.798410	32.258200	0.985659	-3.151910	-0.342392	-2.393498	0.061829	0.321960	0.004883	0.999803	-0.015759	-0.001712	-0.011967	
31332	    0	6.495404	28.589895	1.470021	-2.941947	-0.279640	-3.335847	0.069695	0.284939	0.010599	0.999751	-0.014709	-0.001398	-0.016678	
31333	    0	11.654542	19.576642	3.689003	-2.952881	-0.374451	-3.990585	0.120361	0.193909	0.034241	0.999690	-0.014763	-0.001872	-0.019951	
31334	    0	10.698017	4.460875	-8.384716	-2.886321	-1.057358	-4.059086	0.108283	0.041209	-0.083888	0.999676	-0.014430	-0.005286	-0.020293	
31335	    0	17.631212	-18.233523	-19.595948	-2.908597	-0.713224	-3.669319	0.173584	-0.188354	-0.192627	0.999719	-0.014542	-0.003566	-0.018345	
31336	    0	23.068673	-18.287899	-39.577985	3.335697	-1.724407	-2.942174	0.231446	-0.179667	-0.396801	0.999715	0.016677	-0.008621	-0.014709	
31337	    0	103.723479	164.180546	24.758048	0.750142	4.534838	-14.740897	1.159546	1.558411	0.228149	0.997021	0.003747	0.022652	-0.073631	
31338	    0	57.293205	-25.130353	33.560013	-2.694818	-4.335938	-5.934705	0.557732	-0.263343	0.351298	0.999233	-0.013471	-0.021674	-0.029666	
31339	    0	-8.713276	-16.111309	28.894002	1.648449	-2.148077	-6.135946	-0.095154	-0.160645	0.286621	0.999437	0.008241	-0.010738	-0.030674	
31340	    0	-20.856075	4.599433	-5.937800	0.939757	-1.388269	-6.891169	-0.206388	0.053414	-0.060576	0.999371	0.004698	-0.006940	-0.034449	
31341	    0	6.508918	16.874996	-0.292797	1.159834	-0.546915	-5.720576	0.069885	0.166809	-0.001770	0.999570	0.005798	-0.002734	-0.028599	
31342	    0	9.731189	11.341884	-8.380556	0.128565	-0.362043	-4.323154	0.099885	0.111332	-0.083554	0.999764	0.000643	-0.001810	-0.021614	
31343	    0	5.737845	2.550033	-10.916856	-0.464655	-0.539236	-3.511235	0.058105	0.024231	-0.109070	0.999839	-0.002323	-0.002696	-0.017555	
31344	    0	10.887490	14.515059	-9.350203	-1.042986	0.016213	-3.145553	0.111127	0.142924	-0.094260	0.999863	-0.005215	0.000081	-0.015727	
31345	    0	15.296882	7.601079	-1.057570	-0.596448	0.165563	-2.767274	0.153992	0.073853	-0.010925	0.999899	-0.002982	0.000828	-0.013836	
31346	    0	18.865994	13.568175	-3.960535	-0.818847	0.525107	-2.335038	0.190120	0.133303	-0.040652	0.999920	-0.004094	0.002625	-0.011675	
31347	    0	23.019657	7.526040	-5.055533	-1.056691	0.546466	-1.780735	0.230713	0.072937	-0.051575	0.999942	-0.005283	0.002732	-0.008904	
31348	    0	28.777921	2.387807	-5.776944	-0.804341	0.428778	-1.659609	0.287838	0.021255	-0.058475	0.999955	-0.004022	0.002144	-0.008298	
31349	    0	30.481848	4.554096	1.720758	-1.062790	0.203899	-1.544975	0.305176	0.043274	0.016663	0.999955	-0.005314	0.001019	-0.007725	
31350	    0	27.977497	-3.151073	6.136235	-1.656943	0.019646	-1.225684	0.279583	-0.032715	0.061603	0.999947	-0.008285	0.000098	-0.006128	
31351	    0	27.660262	-2.106480	6.722395	-2.069716	-0.083925	-1.338230	0.276428	-0.022217	0.067566	0.999924	-0.010348	-0.000420	-0.006691	
31352	    0	28.069054	-7.338525	8.742475	-2.601324	-0.300798	-0.852230	0.280245	-0.073431	0.088801	0.999905	-0.013006	-0.001504	-0.004261	
31353	    0	21.598836	-8.731489	6.791578	-3.447136	-0.553732	-0.226605	0.215698	-0.086365	0.070007	0.999846	-0.017235	-0.002769	-0.001133	
31354	    0	16.011973	-13.668167	2.499509	-4.149358	-0.527802	-0.034335	0.160025	-0.136146	0.028246	0.999781	-0.020745	-0.002639	-0.000172	
31355	    0	13.919215	-12.181398	-5.087985	-4.009518	-0.293561	-0.269336	0.139099	-0.122986	-0.048218	0.999797	-0.020046	-0.001468	-0.001347	
31356	    0	17.322887	-9.921008	-4.396638	-2.164321	0.387201	-1.012445	0.172638	-0.100555	-0.043218	0.999927	-0.010821	0.001936	-0.005062	
31357	    0	17.354558	-0.345128	-2.448142	-0.291448	0.844778	-1.749448	0.173401	-0.005005	-0.025208	0.999951	-0.001457	0.004224	-0.008747	
31358	    0	12.636687	5.572416	-5.309139	0.627545	1.336346	-2.866106	0.126792	0.054077	-0.053766	0.999869	0.003138	0.006681	-0.014330	
31359	    0	7.126327	8.585857	-9.838882	0.057226	1.765027	-4.273605	0.072205	0.084351	-0.098999	0.999732	0.000286	0.008824	-0.021366	
31360	    0	13.043272	13.959021	-12.092204	-0.303306	1.444995	-5.234410	0.133143	0.135944	-0.122086	0.999630	-0.001516	0.007224	-0.026169	
31361	    0	15.331666	15.990987	-9.805328	-0.468516	1.289754	-5.882394	0.157288	0.155090	-0.099426	0.999543	-0.002342	0.006448	-0.029408	
31362	    0	18.831158	3.692514	-6.621022	-0.787461	1.042317	-5.563349	0.188888	0.031412	-0.067325	0.999591	-0.003937	0.005211	-0.027813	
31363	    0	23.385106	-1.231649	-3.338549	-0.691129	0.939309	-5.661799	0.233215	-0.019043	-0.034424	0.999582	-0.003455	0.004696	-0.028305	
31364	    0	24.189498	-4.680890	0.486168	-0.360545	0.878471	-6.035981	0.240355	-0.054071	0.003897	0.999533	-0.001802	0.004392	-0.030175	
31365	    0	25.902484	-4.541224	1.789241	-0.409010	0.939539	-6.507524	0.257446	-0.053772	0.016785	0.999457	-0.002045	0.004697	-0.032532	
31366	    0	28.745803	-3.953110	1.271390	-0.946820	1.027327	-7.031039	0.285894	-0.049545	0.011461	0.999357	-0.004733	0.005136	-0.035148	
31367	    0	31.542216	-4.422840	0.078286	-1.858034	1.039385	-7.474110	0.313477	-0.055969	-0.000366	0.999245	-0.009288	0.005196	-0.037361	
31368	    0	32.708726	-7.719558	-1.188390	-2.347382	0.938457	-7.275854	0.323931	-0.089164	-0.012409	0.999258	-0.011734	0.004691	-0.036370	
31369	    0	30.277481	-14.435552	-2.863991	-2.180163	0.846463	-6.596958	0.297668	-0.154541	-0.028259	0.999387	-0.010899	0.004231	-0.032978	
31370	    0	26.937035	-16.091582	-4.459544	-1.546948	0.577840	-6.370359	0.263929	-0.169724	-0.044073	0.999458	-0.007733	0.002889	-0.031846	
31371	    0	23.522237	-13.036215	-4.239923	-1.053801	0.474058	-6.331201	0.230835	-0.137939	-0.042236	0.999482	-0.005268	0.002370	-0.031651	
31372	    0	20.899933	-8.596054	-2.758700	-0.868365	0.399654	-6.146659	0.206169	-0.092446	-0.027609	0.999516	-0.004341	0.001998	-0.030728	
31373	    0	20.122652	-6.719918	-1.737878	-0.653740	0.309797	-5.745737	0.199158	-0.072998	-0.017456	0.999580	-0.003268	0.001549	-0.028725	
31374	    0	20.873779	-5.935419	-0.900062	-0.526106	0.318563	-5.178084	0.207093	-0.064754	-0.009166	0.999660	-0.002630	0.001593	-0.025887	
31375	    0	21.368705	-6.397263	-0.563398	-0.205819	0.334194	-4.348337	0.212219	-0.068604	-0.005920	0.999762	-0.001029	0.001671	-0.021740	
31376	    0	18.814423	-8.073522	-2.282653	0.376527	0.215349	-3.156986	0.186814	-0.083648	-0.023184	0.999872	0.001883	0.001077	-0.015784	
31377	    0	14.318184	-6.629449	-5.078517	0.506790	0.012970	-1.790645	0.142578	-0.067444	-0.050964	0.999956	0.002534	0.000065	-0.008953	
31378	    0	9.762349	-5.163068	-3.357995	-0.036812	-0.324822	-0.664522	0.097506	-0.051961	-0.033412	0.999992	-0.000184	-0.001624	-0.003323	
31379	    0	0.488950	-3.862297	-3.496002	-0.163079	-0.650027	0.641634	0.005127	-0.038635	-0.034912	0.999989	-0.000815	-0.003250	0.003208	
31380	    0	-4.954501	-3.006498	-2.175381	0.386246	-0.553142	2.073520	-0.049170	-0.030534	-0.021949	0.999940	0.001931	-0.002766	0.010367	
31381	    0	-6.577977	-2.043460	-2.545867	1.001984	-0.401328	3.410521	-0.065369	-0.021423	-0.025696	0.999840	0.005010	-0.002007	0.017052	
31382	    0	-3.905087	-0.487360	-2.815546	0.892526	-0.238630	4.459194	-0.038898	-0.005616	-0.028226	0.999741	0.004462	-0.001193	0.022294	
31383	    0	-1.714559	-1.156883	-3.340422	0.409178	-0.222806	5.470963	-0.016785	-0.011963	-0.033447	0.999622	0.002046	-0.001114	0.027351	
31384	    0	-1.432339	-2.077083	-4.178589	0.109501	-0.251241	6.397005	-0.013597	-0.021191	-0.041815	0.999487	0.000547	-0.001256	0.031980	
31385	    0	-0.910064	-2.518975	-4.134175	0.225308	-0.272430	7.305247	-0.008118	-0.025452	-0.041382	0.999331	0.001126	-0.001362	0.036518	
31386	    0	1.390345	-2.032073	-3.255499	0.616241	-0.323956	8.032876	0.014754	-0.019639	-0.032593	0.999187	0.003080	-0.001619	0.040154	
31387	    0	3.575684	-1.606100	-2.178435	0.969424	-0.371667	8.565126	0.036438	-0.014404	-0.021790	0.999069	0.004846	-0.001858	0.042812	
31388	    0	4.912072	-2.635474	-1.528989	1.273213	-0.348402	9.008467	0.050264	-0.024010	-0.015361	0.998963	0.006364	-0.001741	0.045027	
31389	    0	7.142993	-4.051552	-1.400856	1.656970	-0.285257	9.389240	0.073242	-0.036987	-0.014221	0.998862	0.008282	-0.001426	0.046928	
31390	    0	9.981609	-3.659530	-1.742433	1.940577	-0.259888	9.773485	0.101461	-0.031492	-0.017615	0.998757	0.009699	-0.001299	0.048847	
31391	    0	12.515512	-2.366504	-1.908407	1.899039	-0.259324	10.160012	0.126160	-0.017090	-0.019104	0.998664	0.009491	-0.001296	0.050777	
31392	    0	14.987617	-1.612442	-0.713399	1.618002	-0.085489	10.504708	0.150448	-0.008172	-0.007157	0.998588	0.008086	-0.000427	0.052499	
31393	    0	16.929338	0.050249	-1.214875	1.812116	-0.148656	10.753620	0.168945	0.009705	-0.011963	0.998513	0.009056	-0.000743	0.053741	
31394	    0	19.261243	1.782707	-2.416852	1.867095	-0.190450	10.861936	0.191281	0.028466	-0.023753	0.998481	0.009331	-0.000952	0.054282	
31395	    0	22.825289	3.412364	-2.588638	2.068638	-0.263923	10.959204	0.225952	0.046814	-0.025146	0.998445	0.010338	-0.001319	0.054768	
31396	    0	27.056903	5.739887	-3.085615	2.509292	-0.353045	10.946500	0.266930	0.072456	-0.029536	0.998422	0.012540	-0.001764	0.054704	
31397	    0	30.074908	10.083941	-3.302929	3.176413	-0.332049	10.633207	0.294861	0.117126	-0.030762	0.998459	0.015874	-0.001659	0.053139	
31398	    0	31.082482	15.440676	-3.581955	3.901898	-0.233767	10.208443	0.302427	0.170644	-0.032238	0.998507	0.019500	-0.001168	0.051017	
31399	    0	30.568546	21.561850	-4.729365	4.275412	0.011449	9.686989	0.294739	0.231018	-0.042480	0.998598	0.021367	0.000057	0.048412	
31400	    0	30.614944	27.113491	-4.924875	4.055168	0.169633	9.077951	0.293364	0.285573	-0.043807	0.998764	0.020267	0.000848	0.045371	
31401	    0	32.256539	32.517680	-6.660885	3.340673	0.125926	8.219554	0.308777	0.339111	-0.061218	0.999016	0.016698	0.000629	0.041084	
31402	    0	30.136661	40.801867	-10.928305	1.964426	-0.193257	6.967732	0.286992	0.419230	-0.104919	0.999344	0.009820	-0.000966	0.034831	
31403	    0	19.712324	42.549778	-16.788507	0.547870	-0.732337	5.816728	0.185242	0.431458	-0.166016	0.999566	0.002739	-0.003661	0.029079	
31404	    0	14.883437	41.394766	-16.499367	-0.669531	-0.914263	4.161013	0.140944	0.416381	-0.165729	0.999767	-0.003347	-0.004571	0.020803	
31405	    0	10.677411	45.686618	-5.976479	-1.631215	-0.855854	1.995148	0.102478	0.457397	-0.063049	0.999907	-0.008156	-0.004279	0.009975	
31406	    0	4.555903	45.360557	0.740200	-2.535893	-0.702878	0.135616	0.045238	0.453683	0.001809	0.999912	-0.012679	-0.003514	0.000678	
31407	    0	4.224236	37.481956	1.383609	-2.868771	-0.384347	-1.245169	0.044556	0.374695	0.008545	0.999875	-0.014343	-0.001922	-0.006226	
31408	    0	5.659741	30.982108	1.295256	-2.239513	-0.180824	-2.254200	0.060076	0.309277	0.009541	0.999873	-0.011197	-0.000904	-0.011271	
31409	    0	6.984474	26.819954	1.822719	-1.831728	-0.086217	-3.138143	0.074036	0.267212	0.015808	0.999834	-0.009158	-0.000431	-0.015690	
31410	    0	16.274698	17.864464	2.297423	-1.942780	-0.321412	-3.749746	0.166025	0.175766	0.021523	0.999775	-0.009713	-0.001607	-0.018747	
31411	    0	7.411096	3.066511	-12.531743	-1.858676	-0.913124	-3.968379	0.075256	0.028015	-0.125244	0.999749	-0.009293	-0.004565	-0.019840	
31412	    0	18.180045	-10.381451	-22.919955	-2.281775	-0.939453	-3.923004	0.180754	-0.109966	-0.227118	0.999731	-0.011408	-0.004697	-0.019613	
31413	    0	26.041842	-21.040362	-50.316326	4.656230	-2.972715	-3.055317	0.264771	-0.202698	-0.504028	0.999501	0.023277	-0.014861	-0.015274	
31414	    0	103.385378	168.055906	26.406050	0.409967	5.176046	-15.552006	1.166469	1.592719	0.238321	0.996641	0.002048	0.025851	-0.077673	
31415	    0	56.716203	-21.896015	38.958561	-3.230914	-4.258282	-5.682288	0.552246	-0.228333	0.405090	0.999239	-0.016150	-0.021286	-0.028404	
31416	    0	-8.280447	-21.512685	27.599720	0.277954	-1.923743	-6.532407	-0.092424	-0.212595	0.274842	0.999419	0.001390	-0.009617	-0.032656	
31417	    0	-15.633425	2.970539	0.725651	1.510980	-1.179594	-7.309173	-0.155151	0.035339	0.006592	0.999286	0.007553	-0.005897	-0.036537	
31418	    0	6.806801	12.873371	-1.441971	1.629718	-0.468713	-6.075913	0.071970	0.126698	-0.013216	0.999502	0.008147	-0.002343	-0.030375	
31419	    0	9.699899	13.885007	-7.913113	0.416797	-0.466203	-4.866516	0.100525	0.136597	-0.078613	0.999699	0.002084	-0.002331	-0.024330	
31420	    0	1.183251	-0.866971	-6.591187	-0.032999	-0.597041	-4.005134	0.011852	-0.008918	-0.065875	0.999795	-0.000165	-0.002985	-0.020024	
31421	    0	11.265488	13.891986	-12.979813	-1.206854	-0.123604	-3.647838	0.115234	0.136047	-0.130554	0.999815	-0.006034	-0.000618	-0.018238	
31422	    0	16.207347	7.907378	-3.725669	-0.987671	0.017167	-3.191333	0.163302	0.076289	-0.037652	0.999860	-0.004938	0.000086	-0.015956	
31423	    0	17.796369	8.587949	-1.397787	-0.704981	0.145154	-2.815346	0.179138	0.083313	-0.014404	0.999894	-0.003525	0.000726	-0.014076	
31424	    0	21.632356	10.767269	-6.426421	-1.182783	0.279244	-2.432135	0.217518	0.104649	-0.065192	0.999907	-0.005914	0.001396	-0.012160	
31425	    0	24.422085	2.944608	-2.166865	-0.714890	0.168041	-2.205708	0.244507	0.026672	-0.021973	0.999932	-0.003574	0.000840	-0.011028	
31426	    0	27.469675	5.476488	1.946805	-0.686659	0.074388	-2.080578	0.275254	0.051970	0.019184	0.999940	-0.003433	0.000372	-0.010403	
31427	    0	25.932459	1.009020	5.253018	-1.045817	-0.004578	-1.732665	0.259399	0.008118	0.052490	0.999949	-0.005229	-0.000023	-0.008663	
31428	    0	25.170442	-0.375898	4.694661	-1.364733	-0.039292	-1.616317	0.251656	-0.005472	0.047029	0.999944	-0.006824	-0.000196	-0.008081	
31429	    0	26.109851	-5.683204	6.550972	-1.707492	-0.076105	-1.361111	0.260681	-0.058044	0.066101	0.999940	-0.008537	-0.000381	-0.006805	
31430	    0	22.722060	-6.909467	5.317302	-2.300321	-0.332650	-0.863670	0.226831	-0.069454	0.054348	0.999923	-0.011501	-0.001663	-0.004318	
31431	    0	17.279232	-6.379673	3.156024	-2.949637	-0.459879	-0.537130	0.172546	-0.063782	0.032898	0.999885	-0.014748	-0.002299	-0.002686	
31432	    0	14.376980	-10.099169	-3.920723	-3.406314	-0.377102	-0.516727	0.143579	-0.102008	-0.037205	0.999849	-0.017031	-0.001885	-0.002584	
31433	    0	17.516840	-14.462578	-3.983362	-2.455015	-0.028230	-0.675983	0.174683	-0.145691	-0.038025	0.999918	-0.012275	-0.000141	-0.003380	
31434	    0	16.998632	-9.554885	-1.144488	-1.009761	0.386433	-1.138890	0.169416	-0.096572	-0.011287	0.999969	-0.005049	0.001932	-0.005694	
31435	    0	17.162838	-4.051759	-0.081405	0.246433	0.913444	-1.722745	0.171265	-0.041992	-0.001648	0.999951	0.001232	0.004567	-0.008614	
31436	    0	12.697417	2.609138	-4.847135	0.827257	1.392813	-2.977132	0.127005	0.024404	-0.049253	0.999856	0.004136	0.006964	-0.014885	
31437	    0	8.075050	4.632039	-8.766217	0.304629	1.488621	-4.238487	0.081055	0.044739	-0.088196	0.999746	0.001523	0.007442	-0.021191	
31438	    0	11.676481	16.414062	-11.442522	0.614046	0.855926	-5.157685	0.120461	0.161417	-0.114437	0.999653	0.003070	0.004279	-0.025785	
31439	    0	13.123067	13.588928	-6.963191	-0.344895	0.766285	-5.614462	0.134705	0.132019	-0.070374	0.999597	-0.001724	0.003831	-0.028069	
31440	    0	19.154899	4.632492	-3.345796	-0.672232	0.518671	-5.341800	0.192605	0.041076	-0.034101	0.999634	-0.003361	0.002593	-0.026706	
31441	    0	25.613096	-0.702616	-1.398726	-0.498260	0.300825	-5.356483	0.255798	-0.013916	-0.014343	0.999637	-0.002491	0.001504	-0.026779	
31442	    0	26.412404	-4.564987	-1.053212	-0.273361	0.168824	-5.743246	0.262659	-0.053222	-0.010685	0.999586	-0.001367	0.000844	-0.028712	
31443	    0	26.880234	-7.629352	-0.807977	-0.758482	0.306178	-6.099901	0.266296	-0.084473	-0.008179	0.999526	-0.003792	0.001531	-0.030495	
31444	    0	30.142816	-10.669704	0.132525	-1.517763	0.473681	-6.423024	0.297799	-0.116290	0.001475	0.999453	-0.007587	0.002368	-0.032109	
31445	    0	31.694029	-10.178403	0.283320	-2.777714	0.511473	-6.718406	0.313293	-0.112305	0.003540	0.999335	-0.013885	0.002557	-0.033585	
31446	    0	26.430784	-10.118616	1.396489	-3.634281	0.392235	-6.187435	0.261045	-0.109026	0.015385	0.999354	-0.018167	0.001961	-0.030931	
31447	    0	22.686539	-11.226123	-0.054174	-3.806871	0.243426	-5.756759	0.223511	-0.118713	0.001404	0.999403	-0.019031	0.001217	-0.028778	
31448	    0	21.016320	-11.630359	-3.100472	-3.608398	0.232357	-5.477744	0.206829	-0.122536	-0.029073	0.999461	-0.018039	0.001162	-0.027384	
31449	    0	19.758403	-10.528709	-4.502291	-3.264176	0.220524	-5.191091	0.194702	-0.111084	-0.043457	0.999529	-0.016318	0.001102	-0.025951	
31450	    0	19.040896	-9.750572	-4.843334	-2.627694	0.218418	-4.735954	0.187967	-0.102603	-0.047314	0.999632	-0.013137	0.001092	-0.023677	
31451	    0	18.882751	-9.690164	-3.768021	-1.735065	0.248166	-4.041617	0.186768	-0.101013	-0.037048	0.999757	-0.008675	0.001241	-0.020206	
31452	    0	19.079213	-9.701737	-3.070552	-0.651576	0.268374	-2.983019	0.189275	-0.099948	-0.030638	0.999882	-0.003258	0.001342	-0.014915	
31453	    0	16.546319	-8.644840	-2.706379	0.068665	0.155069	-1.760124	0.164673	-0.087891	-0.027222	0.999961	0.000343	0.000775	-0.008801	
31454	    0	13.011498	-4.708225	-2.166232	0.000000	-0.069809	-0.609780	0.129978	-0.047479	-0.021617	0.999995	0.000000	-0.000349	-0.003049	
31455	    0	7.509619	-1.988549	-1.540382	-0.689700	-0.529292	0.595096	0.075195	-0.019714	-0.015137	0.999986	-0.003448	-0.002646	0.002975	
31456	    0	-0.331462	-2.452669	-1.557881	-0.451671	-0.841734	2.227647	-0.002975	-0.024596	-0.015536	0.999926	-0.002258	-0.004209	0.011138	
31457	    0	-3.486790	-3.202135	-2.684710	0.322169	-0.809524	3.573810	-0.034180	-0.032593	-0.027039	0.999830	0.001611	-0.004047	0.017868	
31458	    0	-2.259515	-2.774120	-3.268234	0.905692	-0.640546	4.557264	-0.021852	-0.028096	-0.032880	0.999724	0.004528	-0.003202	0.022784	
31459	    0	0.856806	-1.625638	-2.985697	0.962954	-0.600320	5.455723	0.009094	-0.015869	-0.029907	0.999612	0.004814	-0.003001	0.027275	
31460	    0	2.551860	-1.951066	-2.850420	0.791492	-0.655094	6.278334	0.026205	-0.018582	-0.028494	0.999494	0.003957	-0.003275	0.031386	
31461	    0	3.376955	-2.355819	-2.632425	0.941670	-0.726284	7.083890	0.034668	-0.022217	-0.026306	0.999354	0.004707	-0.003631	0.035412	
31462	    0	4.628094	-1.937332	-2.216672	1.419446	-0.781458	7.832898	0.047074	-0.017383	-0.022112	0.999200	0.007095	-0.003906	0.039154	
31463	    0	6.394767	-0.790449	-1.711978	1.757592	-0.828617	8.381186	0.064270	-0.005066	-0.016907	0.999074	0.008785	-0.004142	0.041893	
31464	    0	7.732133	-0.412887	-1.902613	1.922122	-0.888557	8.823942	0.077481	-0.000531	-0.018699	0.998970	0.009607	-0.004441	0.044105	
31465	    0	9.415630	-0.560763	-2.063209	1.718770	-0.828666	9.189927	0.094360	-0.001099	-0.020264	0.998899	0.008591	-0.004142	0.045933	
31466	    0	11.189826	-1.039824	-1.544917	1.440413	-0.713815	9.488334	0.112274	-0.004967	-0.015098	0.998842	0.007199	-0.003568	0.047423	
31467	    0	13.399072	-1.389027	-2.000927	1.271001	-0.709822	9.767304	0.134521	-0.007202	-0.019592	0.998781	0.006352	-0.003548	0.048817	
31468	    0	16.376831	-0.947071	-0.919727	1.242777	-0.642283	9.931912	0.163996	-0.001273	-0.008696	0.998742	0.006211	-0.003210	0.049639	
31469	    0	18.571936	0.930071	-1.603569	1.777862	-0.886164	10.104256	0.184998	0.018799	-0.015076	0.998674	0.008885	-0.004429	0.050499	
31470	    0	21.405446	3.124974	-1.629180	2.004011	-0.899153	10.227670	0.212149	0.042289	-0.014948	0.998631	0.010015	-0.004494	0.051115	
31471	    0	24.875060	5.910831	-1.148748	2.353441	-0.899166	10.328961	0.245300	0.071960	-0.009583	0.998587	0.011762	-0.004494	0.051620	
31472	    0	28.347494	10.494617	-1.276363	2.905508	-0.845929	10.236640	0.277654	0.119419	-0.009915	0.998575	0.014521	-0.004228	0.051159	
31473	    0	30.146579	15.158802	-2.201283	3.535577	-0.734861	9.920531	0.293518	0.166626	-0.018066	0.998607	0.017670	-0.003673	0.049580	
31474	    0	29.809024	18.935367	-3.080339	4.031593	-0.510628	9.352539	0.288860	0.203567	-0.026049	0.998700	0.020149	-0.002552	0.046742	
31475	    0	29.384562	23.057798	-3.813513	4.166639	-0.218283	8.519124	0.283691	0.243530	-0.032837	0.998875	0.020825	-0.001091	0.042580	
31476	    0	29.565410	29.495952	-4.824060	3.869441	-0.035869	7.496768	0.284312	0.306618	-0.042331	0.999110	0.019341	-0.000179	0.037473	
31477	    0	26.020489	37.997140	-9.810892	2.950322	-0.099203	6.381777	0.247925	0.389404	-0.092285	0.999382	0.014749	-0.000496	0.031902	
31478	    0	18.135352	42.519303	-15.375438	1.763388	-0.534892	5.341096	0.170295	0.431170	-0.149505	0.999600	0.008816	-0.002674	0.026702	
31479	    0	11.480793	43.192213	-15.119402	0.282498	-0.906436	4.003426	0.106812	0.434326	-0.150085	0.999788	0.001412	-0.004532	0.020016	
31480	    0	9.854200	42.055628	-7.642443	-1.010544	-0.977164	2.308534	0.094061	0.421268	-0.078085	0.999908	-0.005053	-0.004886	0.011542	
31481	    0	8.200950	40.445969	-0.043954	-1.921690	-0.735488	0.567638	0.080872	0.404663	-0.004028	0.999943	-0.009608	-0.003677	0.002838	
31482	    0	5.928500	36.147122	1.635264	-2.215821	-0.472843	-0.876258	0.060836	0.361360	0.012491	0.999926	-0.011079	-0.002364	-0.004381	
31483	    0	5.349563	31.686985	2.461218	-1.894439	-0.196654	-2.000491	0.056641	0.316528	0.021667	0.999904	-0.009472	-0.000983	-0.010002	
31484	    0	5.072098	27.379803	3.900478	-1.412259	-0.112729	-2.808877	0.054541	0.273316	0.037104	0.999876	-0.007061	-0.000564	-0.014044	
31485	    0	5.755146	18.867332	5.633667	-1.242898	-0.029566	-3.450969	0.060791	0.187988	0.055176	0.999831	-0.006214	-0.000148	-0.017254	
31486	    0	16.065683	8.978059	2.418334	-1.236810	-0.604290	-3.823734	0.162263	0.086838	0.024129	0.999793	-0.006184	-0.003021	-0.019117	
31487	    0	5.559368	6.716980	-8.152404	-1.202481	-0.689558	-3.978260	0.057190	0.065552	-0.081726	0.999778	-0.006012	-0.003448	-0.019890	
31488	    0	12.482639	-4.313930	-39.595132	1.071062	-2.297394	-3.561876	0.128595	-0.043291	-0.394720	0.999761	0.005355	-0.011486	-0.017808	
31489	    0	52.245249	48.861308	-57.729861	3.139687	0.357143	-6.957412	0.538208	0.479065	-0.570679	0.999269	0.015695	0.001785	-0.034779	
31490	    0	99.623313	99.685429	81.746675	-1.830559	2.212665	-12.323589	1.064246	0.940007	0.797157	0.997999	-0.009147	0.011056	-0.061577	
31491	    0	21.363216	-32.701294	4.469468	-1.056635	-3.413890	-4.720233	0.205017	-0.331665	0.049988	0.999561	-0.005282	-0.017067	-0.023598	
31492	    0	-12.825450	-0.265426	16.045403	1.516092	-2.067624	-6.664166	-0.129924	0.000447	0.159112	0.999362	0.007579	-0.010336	-0.033314	
31493	    0	-7.965359	7.907004	0.510019	1.014309	-0.667685	-6.252583	-0.077148	0.081482	0.005249	0.999493	0.005071	-0.003338	-0.031258	
31494	    0	14.575388	14.517785	-4.646417	1.212656	-0.204303	-5.398295	0.149652	0.141451	-0.045447	0.999617	0.006063	-0.001021	-0.026988	
31495	    0	10.934260	2.692231	-4.815351	0.537151	-0.425562	-4.248375	0.109985	0.024719	-0.047852	0.999768	0.002686	-0.002128	-0.021240	
31496	    0	7.325692	8.547264	-15.042051	-0.961742	-0.247016	-3.630089	0.074969	0.083398	-0.150733	0.999823	-0.004808	-0.001235	-0.018149	
31497	    0	15.429568	6.212000	-3.385137	-1.053672	0.092511	-3.295300	0.155273	0.059387	-0.034241	0.999850	-0.005268	0.000463	-0.016476	
31498	    0	18.861770	7.756904	-1.339823	-0.676182	0.262652	-3.002858	0.189735	0.074679	-0.013903	0.999880	-0.003381	0.001313	-0.015014	
31499	    0	22.222787	11.193343	-5.281020	-1.064337	0.393118	-2.639861	0.223572	0.108704	-0.053833	0.999896	-0.005322	0.001966	-0.013199	
31500	    0	26.150274	5.111217	-1.535514	-0.727673	0.227362	-2.423924	0.262078	0.047881	-0.015831	0.999919	-0.003638	0.001137	-0.012119	
31501	    0	29.120399	4.912593	0.513824	-0.793477	0.089457	-2.311001	0.291748	0.045776	0.004822	0.999925	-0.003967	0.000447	-0.011555	
31502	    0	25.900484	-4.690193	5.539255	-1.164841	-0.088312	-1.862182	0.258531	-0.048986	0.055788	0.999939	-0.005824	-0.000442	-0.009311	
31503	    0	24.531923	-4.558319	5.218862	-1.710362	-0.169377	-1.720471	0.244873	-0.047241	0.052795	0.999926	-0.008552	-0.000847	-0.008602	
31504	    0	25.173463	-4.581569	7.301201	-1.870396	-0.192457	-1.687285	0.251269	-0.047250	0.073691	0.999920	-0.009352	-0.000962	-0.008436	
31505	    0	23.159783	-9.014591	6.418443	-2.428514	-0.389684	-1.268809	0.230896	-0.090820	0.065735	0.999904	-0.012142	-0.001948	-0.006344	
31506	    0	16.144670	-9.775119	1.159019	-2.826228	-0.580429	-0.989189	0.160924	-0.098367	0.013445	0.999884	-0.014131	-0.002902	-0.004946	
31507	    0	15.697893	-13.207554	-4.488081	-2.794560	-0.380721	-0.945317	0.156433	-0.133423	-0.042725	0.999889	-0.013972	-0.001904	-0.004726	
31508	    0	17.189074	-12.290225	-2.653144	-1.795234	-0.029946	-1.318005	0.171079	-0.124263	-0.025394	0.999937	-0.008976	-0.000150	-0.006590	
31509	    0	16.641195	-6.557762	1.766526	-0.705732	0.535021	-1.881443	0.165833	-0.067078	0.017456	0.999946	-0.003529	0.002675	-0.009407	
31510	    0	13.906822	-1.878355	-2.513700	0.427832	1.131285	-2.503094	0.138674	-0.020466	-0.025965	0.999903	0.002139	0.005656	-0.012515	
31511	    0	11.180249	1.823543	-8.030843	0.701192	1.663520	-3.765380	0.111450	0.016418	-0.081177	0.999782	0.003506	0.008317	-0.018826	
31512	    0	11.014853	4.911268	-9.969755	1.263766	1.500495	-4.907225	0.110569	0.047035	-0.100224	0.999650	0.006318	0.007502	-0.024533	
31513	    0	15.416524	16.106603	-11.977159	1.010457	0.762278	-5.512972	0.158081	0.157349	-0.119568	0.999599	0.005052	0.003811	-0.027561	
31514	    0	17.365190	7.860094	-5.159041	0.533555	0.583916	-5.548822	0.175594	0.073885	-0.051900	0.999607	0.002667	0.002919	-0.027740	
31515	    0	21.070806	2.489498	-2.923280	0.383994	0.157184	-5.251156	0.211243	0.019409	-0.029358	0.999653	0.001920	0.000786	-0.026253	
31516	    0	23.757442	-1.028913	-0.077762	0.114646	-0.072488	-5.499198	0.237172	-0.016814	-0.000700	0.999621	0.000573	-0.000362	-0.027493	
31517	    0	23.729110	-3.566805	0.199258	-0.231205	-0.185231	-5.969364	0.236084	-0.042725	0.002258	0.999553	-0.001156	-0.000926	-0.029842	
31518	    0	26.250831	-6.742903	-0.080320	-0.949065	-0.116559	-6.269934	0.260223	-0.075614	-0.000305	0.999496	-0.004745	-0.000583	-0.031344	
31519	    0	29.966761	-9.073713	0.540299	-1.592360	-0.238081	-6.487719	0.296509	-0.100342	0.006531	0.999441	-0.007960	-0.001190	-0.032433	
31520	    0	27.784842	-12.846129	-0.509156	-2.171314	-0.492371	-5.992002	0.273843	-0.136746	-0.002959	0.999489	-0.010855	-0.002461	-0.029955	
31521	    0	23.356539	-13.324876	0.632798	-2.470027	-0.554554	-5.625282	0.229675	-0.139648	0.008667	0.999524	-0.012348	-0.002772	-0.028122	
31522	    0	19.996767	-11.582167	-0.600967	-2.385874	-0.756376	-5.409469	0.196754	-0.121227	-0.003837	0.999556	-0.011928	-0.003781	-0.027043	
31523	    0	18.279663	-9.057193	-3.010401	-2.599515	-0.822566	-5.181099	0.180481	-0.095642	-0.028137	0.999571	-0.012996	-0.004112	-0.025902	
31524	    0	18.131891	-6.839248	-3.475828	-2.649079	-0.719545	-4.862463	0.179699	-0.073221	-0.033161	0.999610	-0.013244	-0.003597	-0.024309	
31525	    0	18.099762	-6.256210	-3.354447	-2.401236	-0.657536	-4.511760	0.179626	-0.067017	-0.032166	0.999667	-0.012005	-0.003287	-0.022556	
31526	    0	18.514988	-7.689119	-2.686017	-1.699768	-0.525133	-3.888999	0.183674	-0.080694	-0.025702	0.999771	-0.008498	-0.002625	-0.019444	
31527	    0	18.566281	-10.177884	-1.770460	-0.694301	-0.342382	-2.873336	0.184204	-0.104492	-0.017029	0.999888	-0.003471	-0.001712	-0.014366	
31528	    0	15.591040	-8.873142	-1.883535	0.094796	-0.247576	-1.557748	0.155236	-0.089933	-0.018685	0.999969	0.000474	-0.001238	-0.007789	
31529	    0	12.151391	-5.665213	0.377571	-0.043297	-0.295258	-0.384522	0.121399	-0.056885	0.003967	0.999996	-0.000216	-0.001476	-0.001923	
31530	    0	3.793540	-2.392494	0.147472	0.022507	-0.599293	1.080138	0.038059	-0.023720	0.001586	0.999980	0.000113	-0.002996	0.005401	
31531	    0	-1.364308	-2.118099	0.127855	0.748468	-0.581951	2.627649	-0.013367	-0.021362	0.001160	0.999902	0.003742	-0.002910	0.013138	
31532	    0	-3.303163	-1.160863	-1.487797	1.525229	-0.416024	3.914361	-0.032766	-0.012137	-0.015038	0.999777	0.007626	-0.002080	0.019570	
31533	    0	-1.725451	-0.599832	-2.460034	1.566678	-0.112928	4.902427	-0.017090	-0.006226	-0.024658	0.999668	0.007833	-0.000565	0.024509	
31534	    0	1.629392	-1.318287	-2.611569	1.262279	0.049789	5.824188	0.016659	-0.012536	-0.026200	0.999556	0.006310	0.000249	0.029117	
31535	    0	3.452078	-1.868325	-2.754347	0.894334	0.147466	6.673166	0.035095	-0.017395	-0.027649	0.999433	0.004471	0.000737	0.033360	
31536	    0	4.117739	-1.536966	-2.005597	0.874153	0.171511	7.459105	0.041693	-0.013733	-0.020154	0.999294	0.004370	0.000857	0.037287	
31537	    0	5.300597	-0.708422	-1.831175	1.154651	0.103980	8.113080	0.053223	-0.004822	-0.018372	0.999160	0.005772	0.000520	0.040554	
31538	    0	6.992479	0.739173	-1.478359	1.200860	0.012974	8.572775	0.069519	0.010467	-0.014731	0.999063	0.006002	0.000065	0.042850	
31539	    0	8.063339	0.458893	-1.116386	1.080877	-0.043502	8.927110	0.080322	0.008240	-0.011108	0.998989	0.005403	-0.000217	0.044621	
31540	    0	9.238521	-1.122294	-1.116294	1.061629	-0.054761	9.214844	0.092772	-0.006894	-0.011182	0.998924	0.005306	-0.000274	0.046058	
31541	    0	11.077650	-1.773196	-1.392232	1.155718	-0.048847	9.457923	0.111450	-0.012390	-0.013977	0.998865	0.005776	-0.000244	0.047272	
31542	    0	13.403121	-1.132958	-1.431854	1.127696	-0.075180	9.756194	0.134374	-0.004698	-0.014307	0.998794	0.005636	-0.000376	0.048761	
31543	    0	16.176340	-0.378445	-0.198950	0.979456	-0.035110	10.025448	0.161682	0.004333	-0.001953	0.998732	0.004895	-0.000175	0.050106	
31544	    0	18.699047	0.730139	0.083975	1.294719	-0.229367	10.311955	0.186282	0.016914	0.001143	0.998649	0.006471	-0.001146	0.051537	
31545	    0	21.323855	2.366872	-1.132573	1.458671	-0.392910	10.578610	0.211609	0.034973	-0.010681	0.998572	0.007290	-0.001964	0.052868	
31546	    0	25.174543	5.069102	-0.534393	1.550668	-0.428981	10.702588	0.248564	0.064090	-0.004346	0.998536	0.007750	-0.002144	0.053487	
31547	    0	29.026988	9.528779	-1.063030	2.042057	-0.490048	10.656635	0.284668	0.110657	-0.008850	0.998526	0.010205	-0.002449	0.053257	
31548	    0	32.136276	14.876360	-2.462893	2.661628	-0.440233	10.305317	0.313175	0.165349	-0.021806	0.998581	0.013302	-0.002200	0.051502	
31549	    0	32.697533	19.003872	-2.138586	3.163745	-0.281455	9.650757	0.317322	0.205811	-0.017761	0.998710	0.015812	-0.001407	0.048233	
31550	    0	31.329688	21.757358	-2.313123	3.380496	-0.128412	8.778758	0.303353	0.231383	-0.019100	0.998894	0.016896	-0.000642	0.043878	
31551	    0	31.607214	27.164683	-2.751190	3.264988	0.003816	7.656018	0.305359	0.283875	-0.022949	0.999134	0.016320	0.000019	0.038269	
31552	    0	28.780729	35.770593	-8.285043	2.815061	-0.028807	6.426794	0.276106	0.367823	-0.077680	0.999384	0.014072	-0.000144	0.032127	
31553	    0	19.675238	42.869244	-15.695547	2.045726	-0.449243	5.389392	0.185425	0.435364	-0.152100	0.999581	0.010227	-0.002246	0.026943	
31554	    0	11.292206	44.784095	-16.274690	0.569192	-0.823268	3.939137	0.104733	0.450418	-0.161025	0.999793	0.002846	-0.004116	0.019694	
31555	    0	7.680876	44.651284	-8.429932	-0.912308	-0.916313	2.099663	0.072510	0.446899	-0.085999	0.999924	-0.004561	-0.004581	0.010498	
31556	    0	6.858038	43.824689	-0.672013	-2.146194	-0.578511	0.280386	0.067994	0.438238	-0.011226	0.999937	-0.010731	-0.002892	0.001402	
31557	    0	4.328144	39.454933	0.013877	-2.730663	-0.255404	-1.232194	0.045715	0.394226	-0.005188	0.999887	-0.013653	-0.001277	-0.006161	
31558	    0	5.817227	33.262834	-2.010004	-2.449533	-0.056460	-2.309145	0.062012	0.331648	-0.024149	0.999858	-0.012247	-0.000282	-0.011545	
31559	    0	7.762659	28.596543	-0.638422	-1.912036	-0.037958	-3.174773	0.082153	0.284607	-0.009094	0.999827	-0.009560	-0.000190	-0.015873	
31560	    0	7.631934	21.810016	1.006913	-1.973123	-0.018884	-3.969136	0.080627	0.216614	0.007935	0.999754	-0.009865	-0.000094	-0.019844	
31561	    0	5.012589	11.758082	2.035598	-2.256445	-0.146119	-4.547226	0.052771	0.116621	0.019074	0.999676	-0.011281	-0.000731	-0.022734	
31562	    0	15.339308	7.446441	-0.554510	-2.941871	-0.747772	-4.469271	0.155026	0.070926	-0.006028	0.999635	-0.014708	-0.003738	-0.022344	
31563	    0	8.396483	-12.231368	-17.671071	-2.300441	-0.990182	-3.517424	0.082642	-0.125793	-0.174866	0.999766	-0.011501	-0.004951	-0.017586	
31564	    0	9.617818	-18.675216	-50.470644	2.444456	-2.620136	-2.381508	0.100615	-0.181756	-0.505650	0.999768	0.012221	-0.013100	-0.011907	
31565	    0	82.909053	118.685931	-11.063767	0.788021	4.598730	-11.112070	0.890503	1.138977	-0.126099	0.998184	0.003938	0.022980	-0.055527	
31566	    0	81.788056	34.167782	65.797789	-2.173492	-1.624013	-7.958277	0.825439	0.316101	0.661133	0.999116	-0.010864	-0.008118	-0.039780	
31567	    0	11.113705	-26.011384	20.247231	1.221239	-2.446865	-4.779084	0.102386	-0.263865	0.202157	0.999619	0.006105	-0.012233	-0.023892	
31568	    0	-17.672027	1.408829	4.735428	1.618522	-1.541259	-6.604006	-0.176494	0.019543	0.046137	0.999392	0.008091	-0.007705	-0.033013	
31569	    0	1.941706	8.835727	3.113258	1.050718	-0.209648	-5.754148	0.021912	0.087585	0.031616	0.999572	0.005253	-0.001048	-0.028767	
31570	    0	20.398055	12.282342	-4.459483	0.882435	-0.205634	-5.014771	0.207023	0.117852	-0.043856	0.999675	0.004412	-0.001028	-0.025071	
31571	    0	9.310464	1.805903	-8.194591	0.061230	-0.589794	-4.085068	0.093689	0.016174	-0.081665	0.999786	0.000306	-0.002949	-0.020424	
31572	    0	8.045161	10.265405	-12.588213	-1.158022	-0.128945	-3.649744	0.082379	0.100431	-0.126415	0.999816	-0.005790	-0.000645	-0.018248	
31573	    0	14.114519	4.530471	-1.501628	-0.919196	0.231182	-3.286140	0.141846	0.042908	-0.015381	0.999853	-0.004596	0.001156	-0.016430	
31574	    0	20.216394	8.880807	-5.183174	-1.010366	0.573946	-2.976544	0.203302	0.085523	-0.052852	0.999872	-0.005052	0.002870	-0.014882	
31575	    0	22.621609	7.461479	-7.309162	-1.226089	0.657106	-2.642157	0.226929	0.071167	-0.074280	0.999888	-0.006130	0.003285	-0.013210	
31576	    0	24.884754	4.410980	-3.834729	-1.012453	0.485054	-2.514919	0.249280	0.040780	-0.039164	0.999905	-0.005062	0.002425	-0.012574	
31577	    0	27.651774	3.048140	0.220371	-1.253357	0.361644	-2.363658	0.276855	0.027222	0.001526	0.999908	-0.006267	0.001808	-0.011818	
31578	    0	25.283327	-4.980357	4.965695	-1.541940	0.209051	-1.932194	0.252391	-0.051860	0.049788	0.999923	-0.007710	0.001045	-0.009661	
31579	    0	24.133048	-3.916274	4.944495	-1.927241	0.226027	-1.780752	0.241028	-0.040833	0.049561	0.999913	-0.009636	0.001130	-0.008904	
31580	    0	23.909710	-6.801831	6.660276	-2.016697	0.212866	-1.661539	0.238596	-0.069327	0.067043	0.999913	-0.010083	0.001064	-0.008307	
31581	    0	22.275567	-8.145602	4.570869	-2.146205	0.017739	-1.293216	0.222229	-0.082397	0.046570	0.999921	-0.010731	0.000089	-0.006466	
31582	    0	17.556758	-8.248129	-1.809552	-2.549252	-0.260361	-1.005014	0.175172	-0.083582	-0.016807	0.999905	-0.012746	-0.001302	-0.005025	
31583	    0	17.427529	-13.890383	-3.993560	-2.298031	-0.070764	-0.834677	0.173706	-0.140076	-0.038269	0.999925	-0.011490	-0.000354	-0.004173	
31584	    0	16.207786	-12.087106	-0.961842	-1.504923	0.263028	-1.264784	0.161297	-0.121962	-0.008916	0.999950	-0.007524	0.001315	-0.006324	
31585	    0	16.181976	-8.610222	1.628330	-0.676740	0.953883	-1.754030	0.161133	-0.087463	0.015808	0.999944	-0.003384	0.004769	-0.008770	
31586	    0	14.010852	-3.616483	-4.233789	0.910792	1.418166	-2.441877	0.139349	-0.037673	-0.043497	0.999889	0.004554	0.007091	-0.012209	
31587	    0	11.909835	2.408437	-10.010269	1.503110	1.515508	-3.797450	0.118774	0.022583	-0.100830	0.999763	0.007515	0.007577	-0.018986	
31588	    0	8.780887	3.558444	-9.380936	1.853582	1.350938	-4.701197	0.087992	0.034389	-0.094081	0.999658	0.009267	0.006754	-0.023503	
31589	    0	15.226698	16.491714	-8.307016	2.059487	1.056260	-5.584804	0.156372	0.161438	-0.082214	0.999543	0.010296	0.005280	-0.027920	
31590	    0	16.416715	6.076531	-1.469194	2.049941	0.707350	-5.555022	0.165721	0.056327	-0.014684	0.999555	0.010248	0.003536	-0.027771	
31591	    0	20.537564	1.316916	-0.037041	1.899968	0.143642	-5.274892	0.205627	0.007751	-0.000427	0.999606	0.009499	0.000718	-0.026371	
31592	    0	23.534067	-2.427185	0.128838	1.536007	-0.232538	-5.509557	0.234551	-0.030751	0.001342	0.999590	0.007679	-0.001163	-0.027544	
31593	    0	24.339019	-3.556330	0.244878	0.641919	-0.151085	-5.947237	0.242188	-0.042786	0.002502	0.999552	0.003209	-0.000755	-0.029732	
31594	    0	27.954269	-5.174618	1.594574	-0.824684	-0.142503	-6.265730	0.277729	-0.060400	0.016381	0.999500	-0.004123	-0.000712	-0.031323	
31595	    0	30.737259	-6.116975	0.917208	-1.891492	-0.368569	-6.437368	0.305176	-0.070923	0.010376	0.999435	-0.009456	-0.001842	-0.032181	
31596	    0	27.240439	-10.888836	0.034588	-2.763672	-0.568492	-5.927960	0.269013	-0.116870	0.002692	0.999461	-0.013816	-0.002842	-0.029634	
31597	    0	22.764524	-13.242867	-0.344169	-3.150713	-0.603397	-5.523858	0.223877	-0.138672	-0.000610	0.999490	-0.015751	-0.003016	-0.027615	
31598	    0	20.800533	-12.904586	-2.119711	-3.119589	-0.583933	-5.339146	0.204514	-0.134840	-0.018523	0.999517	-0.015595	-0.002919	-0.026691	
31599	    0	19.871760	-10.025764	-2.916151	-3.219911	-0.456308	-5.146821	0.196106	-0.105774	-0.027039	0.999537	-0.016097	-0.002281	-0.025730	
31600	    0	18.948668	-6.487085	-3.955798	-3.231127	-0.472518	-4.847072	0.187922	-0.070061	-0.038009	0.999573	-0.016153	-0.002362	-0.024232	
31601	    0	18.989440	-4.844269	-4.323985	-2.961888	-0.381515	-4.387417	0.188843	-0.053223	-0.042114	0.999647	-0.014808	-0.001907	-0.021935	
31602	    0	19.291133	-6.019731	-4.330995	-2.419861	-0.170149	-3.716965	0.191778	-0.064285	-0.042385	0.999753	-0.012098	-0.000851	-0.018583	
31603	    0	18.675577	-8.149553	-4.139430	-1.541006	0.020600	-2.598671	0.185669	-0.084229	-0.040771	0.999886	-0.007705	0.000103	-0.012993	
31604	    0	15.485442	-7.560990	-3.831393	-1.072133	0.114061	-1.275268	0.154346	-0.076799	-0.037992	0.999965	-0.005361	0.000570	-0.006376	
31605	    0	11.312209	-4.270789	-1.187315	-1.001553	-0.109864	-0.141907	0.113098	-0.042847	-0.011597	0.999987	-0.005008	-0.000549	-0.000710	
31606	    0	1.487172	-2.608011	-2.056468	-0.418095	-0.387958	1.370824	0.015090	-0.026020	-0.020481	0.999972	-0.002090	-0.001940	0.006854	
31607	    0	-2.124022	-2.124025	-1.395281	0.605031	-0.195128	2.723783	-0.020935	-0.021484	-0.014038	0.999902	0.003025	-0.000976	0.013618	
31608	    0	-3.627150	-0.418111	-2.418247	1.233182	0.107963	3.786719	-0.036199	-0.004718	-0.024191	0.999801	0.006166	0.000540	0.018932	
31609	    0	-1.351846	0.458308	-3.044536	1.264507	0.314362	4.695594	-0.013672	0.004456	-0.030396	0.999702	0.006322	0.001572	0.023476	
31610	    0	1.677437	-0.934696	-3.889643	0.993099	0.336120	5.578408	0.016957	-0.008682	-0.038969	0.999597	0.004965	0.001680	0.027888	
31611	    0	2.325926	-1.398453	-3.963696	0.860936	0.334989	6.399888	0.023621	-0.013062	-0.039734	0.999477	0.004304	0.001675	0.031994	
31612	    0	2.369501	0.005885	-3.678287	1.081705	0.215005	7.181221	0.023628	0.001107	-0.036804	0.999340	0.005407	0.001075	0.035898	
31613	    0	4.022527	1.103312	-3.564538	1.234188	0.067919	7.841261	0.039734	0.012817	-0.035583	0.999212	0.006169	0.000340	0.039196	
31614	    0	5.621275	0.887129	-2.816617	1.275628	-0.043882	8.302077	0.055781	0.011373	-0.028087	0.999118	0.006376	-0.000219	0.041498	
31615	    0	6.254028	0.225963	-2.521896	1.406735	-0.138136	8.616323	0.062378	0.005127	-0.025146	0.999046	0.007031	-0.000690	0.043068	
31616	    0	7.295321	-0.375803	-2.691795	1.493958	-0.141001	8.872355	0.073037	-0.000318	-0.026877	0.998987	0.007467	-0.000705	0.044347	
31617	    0	9.413097	-0.893981	-2.882711	1.575273	-0.137951	9.153987	0.094421	-0.004395	-0.028809	0.998921	0.007874	-0.000690	0.045753	
31618	    0	12.156620	-0.738272	-3.373217	1.605078	-0.219429	9.465612	0.121762	-0.001351	-0.033626	0.998847	0.008022	-0.001097	0.047310	
31619	    0	14.671213	0.540102	-1.863514	1.364682	-0.264655	9.706953	0.146240	0.012634	-0.018372	0.998797	0.006821	-0.001323	0.048515	
31620	    0	16.100948	1.935178	-1.256347	1.478435	-0.541724	9.917611	0.159817	0.027389	-0.011947	0.998739	0.007389	-0.002707	0.049567	
31621	    0	17.759486	3.480345	-1.496898	1.463949	-0.717282	10.043089	0.175598	0.043762	-0.014038	0.998706	0.007317	-0.003585	0.050194	
31622	    0	20.951781	5.631563	-1.351037	1.505183	-0.891890	10.159222	0.206352	0.066949	-0.012108	0.998672	0.007523	-0.004457	0.050774	
31623	    0	24.710745	8.160179	-1.274848	1.786262	-0.985392	10.116488	0.242615	0.094055	-0.010742	0.998669	0.008927	-0.004925	0.050560	
31624	    0	27.734816	12.034321	-2.006296	2.454863	-0.976602	9.826130	0.271075	0.133990	-0.017139	0.998706	0.012269	-0.004881	0.049109	
31625	    0	29.197724	16.069077	-1.894621	3.052989	-0.721078	9.325355	0.284119	0.174316	-0.015320	0.998790	0.015259	-0.003604	0.046608	
31626	    0	29.261503	20.908880	-1.027571	3.379110	-0.413660	8.563019	0.283322	0.221480	-0.006010	0.998939	0.016890	-0.002068	0.042800	
31627	    0	29.587860	28.347291	-0.041626	3.142850	-0.209867	7.541466	0.284912	0.294312	0.004456	0.999165	0.015710	-0.001049	0.037697	
31628	    0	28.585212	37.328276	-3.019457	2.434642	-0.123430	6.461855	0.273606	0.382585	-0.025403	0.999403	0.012171	-0.000617	0.032303	
31629	    0	21.460017	44.087838	-8.795890	1.344675	-0.300639	5.570222	0.202332	0.447205	-0.084656	0.999588	0.006722	-0.001503	0.027847	
31630	    0	13.113593	43.143623	-14.169692	0.360518	-0.558898	4.324877	0.122157	0.434397	-0.140566	0.999761	0.001802	-0.002794	0.021623	
31631	    0	9.883026	43.066659	-10.588046	-0.384341	-0.680561	2.466652	0.093872	0.431641	-0.106384	0.999916	-0.001922	-0.003403	0.012333	
31632	    0	9.034882	42.475547	-3.541210	-1.044473	-0.550275	0.748640	0.088860	0.424898	-0.037385	0.999975	-0.005222	-0.002751	0.003743	
31633	    0	6.001216	38.955548	0.524994	-1.524945	-0.326542	-0.778971	0.061523	0.389343	0.002380	0.999962	-0.007625	-0.001633	-0.003895	
31634	    0	5.386896	34.978735	0.213746	-1.668408	-0.166135	-2.085557	0.057512	0.349202	-0.000731	0.999910	-0.008342	-0.000831	-0.010427	
31635	    0	5.873643	31.421362	1.068766	-1.751036	-0.174531	-3.027498	0.063477	0.313354	0.007996	0.999846	-0.008755	-0.000873	-0.015137	
31636	    0	6.389507	22.617132	2.891116	-1.975200	-0.209823	-3.626319	0.067956	0.225235	0.026753	0.999785	-0.009875	-0.001049	-0.018130	
31637	    0	7.027208	12.951177	5.973170	-2.283685	-0.252365	-4.057680	0.072815	0.128723	0.058350	0.999728	-0.011417	-0.001262	-0.020287	
31638	    0	11.844594	5.835247	-4.155670	-2.533391	-1.047043	-3.916160	0.119769	0.055489	-0.041647	0.999714	-0.012666	-0.005235	-0.019579	
31639	    0	8.141527	-8.484898	-27.647800	-2.417177	-1.550221	-3.175597	0.082153	-0.089478	-0.274780	0.999770	-0.012085	-0.007751	-0.015877	
31640	    0	11.392341	-8.183220	-78.657405	3.261248	-4.169079	-2.171431	0.129497	-0.070370	-0.785192	0.999590	0.016304	-0.020843	-0.010856	
31641	    0	103.606865	134.571673	28.709025	-1.485907	5.736673	-13.923192	1.133789	1.270935	0.245850	0.997139	-0.007422	0.028656	-0.069550	
31642	    0	60.699424	-9.928095	38.232249	-3.142081	-3.444270	-5.480613	0.597362	-0.109608	0.394335	0.999352	-0.015707	-0.017218	-0.027397	
31643	    0	5.253143	-12.930004	34.356296	0.924819	-2.045550	-5.497787	0.045410	-0.132202	0.343445	0.999558	0.004623	-0.010226	-0.027485	
31644	    0	-16.059551	5.339010	4.347872	1.080523	-1.449283	-6.434685	-0.159083	0.058293	0.042628	0.999441	0.005402	-0.007245	-0.032167	
31645	    0	5.526520	11.736936	-0.831101	0.596692	-0.102056	-5.399224	0.058411	0.115845	-0.007935	0.999631	0.002983	-0.000510	-0.026993	
31646	    0	17.038885	6.994260	-4.552002	0.618989	-0.245116	-4.554197	0.171980	0.066178	-0.045101	0.999735	0.003095	-0.001225	-0.022769	
31647	    0	6.312507	3.849390	-9.701111	0.085454	-0.414872	-3.708864	0.064026	0.037354	-0.096863	0.999825	0.000427	-0.002074	-0.018543	
31648	    0	10.129277	11.375789	-11.903393	-1.203984	0.048640	-3.406328	0.103173	0.111292	-0.119734	0.999836	-0.006020	0.000243	-0.017031	
31649	    0	15.594815	4.568349	-0.432231	-0.667409	0.294507	-3.061802	0.156616	0.043274	-0.004700	0.999876	-0.003337	0.001472	-0.015308	
31650	    0	19.847644	9.923362	-4.177553	-0.815992	0.622962	-2.720547	0.199668	0.096350	-0.042793	0.999894	-0.004080	0.003115	-0.013602	
31651	    0	21.558774	7.063746	-6.764460	-1.187170	0.736450	-2.298806	0.216125	0.067749	-0.068848	0.999909	-0.005936	0.003682	-0.011494	
31652	    0	25.497119	1.652315	-4.693510	-0.877403	0.538077	-2.241382	0.255006	0.013457	-0.047685	0.999924	-0.004387	0.002690	-0.011207	
31653	    0	27.917948	2.940286	0.170432	-1.139098	0.365648	-2.178248	0.279480	0.026367	0.001038	0.999923	-0.005695	0.001828	-0.010891	
31654	    0	26.127256	-2.874549	6.097613	-1.398882	0.237280	-1.881452	0.261062	-0.030776	0.060877	0.999930	-0.006994	0.001186	-0.009407	
31655	    0	24.802155	-1.465859	5.144679	-1.924761	0.167089	-1.769307	0.247925	-0.016357	0.051392	0.999914	-0.009624	0.000835	-0.008846	
31656	    0	24.308547	-8.281467	7.046528	-2.144110	0.122074	-1.417008	0.242537	-0.083774	0.071212	0.999917	-0.010720	0.000610	-0.007085	
31657	    0	20.112203	-8.189131	5.007223	-2.198082	-0.110438	-0.998712	0.200684	-0.082336	0.051086	0.999927	-0.010990	-0.000552	-0.004993	
31658	    0	15.307602	-7.586653	0.609997	-2.283151	-0.265891	-0.659577	0.152816	-0.076293	0.007173	0.999928	-0.011415	-0.001329	-0.003298	
31659	    0	14.226044	-9.820836	-5.863448	-2.211810	-0.150112	-0.556195	0.142029	-0.099243	-0.057434	0.999934	-0.011059	-0.000751	-0.002781	
31660	    0	17.061739	-10.996084	-3.629474	-1.077088	0.270464	-0.804335	0.170124	-0.110840	-0.035930	0.999976	-0.005385	0.001352	-0.004022	
31661	    0	17.810309	-5.065371	0.381925	-0.160791	0.703436	-1.244365	0.177795	-0.051758	0.003235	0.999973	-0.000804	0.003517	-0.006222	
31662	    0	16.791567	1.945911	-2.162175	0.378236	1.055359	-2.009245	0.167983	0.017814	-0.022473	0.999933	0.001891	0.005277	-0.010046	
31663	    0	11.511893	8.554556	-7.581329	-0.256933	1.382519	-3.267842	0.115967	0.083557	-0.076721	0.999842	-0.001285	0.006912	-0.016338	
31664	    0	10.214773	11.122702	-10.655842	-0.544020	1.063051	-4.235609	0.103899	0.108747	-0.107406	0.999758	-0.002720	0.005315	-0.021176	
31665	    0	13.992717	16.122769	-11.773982	-0.925547	0.594586	-5.022221	0.143555	0.157104	-0.118896	0.999669	-0.004627	0.002973	-0.025108	
31666	    0	15.355455	4.532420	-6.582427	-1.182112	0.531636	-4.933511	0.154428	0.041130	-0.066485	0.999674	-0.005910	0.002658	-0.024665	
31667	    0	20.573477	-0.345861	-2.932894	-1.210720	0.425002	-4.832962	0.205505	-0.008606	-0.029724	0.999687	-0.006053	0.002125	-0.024162	
31668	    0	22.684707	-4.475310	0.518365	-1.116504	0.371596	-5.217411	0.225587	-0.050621	0.005035	0.999642	-0.005582	0.001858	-0.026084	
31669	    0	22.532536	-5.096830	1.263679	-1.250641	0.419106	-5.780876	0.223755	-0.057373	0.012512	0.999560	-0.006252	0.002095	-0.028900	
31670	    0	24.291331	-4.996775	1.571868	-1.772046	0.566391	-6.204545	0.241255	-0.057332	0.015520	0.999475	-0.008859	0.002831	-0.031017	
31671	    0	27.747634	-5.099556	1.054684	-2.737819	0.599798	-6.576412	0.275635	-0.059937	0.010498	0.999361	-0.013686	0.002998	-0.032875	
31672	    0	29.642174	-6.964422	-0.173945	-3.034487	0.608385	-6.515580	0.293939	-0.079272	-0.001482	0.999350	-0.015169	0.003041	-0.032571	
31673	    0	28.216510	-12.330503	-2.229824	-2.885041	0.533398	-6.143612	0.278137	-0.132202	-0.021179	0.999420	-0.014422	0.002666	-0.030712	
31674	    0	25.942861	-13.864880	-3.011322	-2.178750	0.456887	-5.952502	0.255076	-0.146605	-0.029131	0.999495	-0.010892	0.002284	-0.029757	
31675	    0	23.957543	-12.242056	-4.265315	-1.532222	0.419873	-5.919811	0.235718	-0.129761	-0.042175	0.999530	-0.007660	0.002099	-0.029594	
31676	    0	21.846899	-9.186913	-3.706764	-1.123212	0.410712	-5.813689	0.215596	-0.098372	-0.036972	0.999559	-0.005615	0.002053	-0.029064	
31677	    0	20.223573	-6.751282	-2.454918	-0.886655	0.362636	-5.595386	0.200195	-0.073242	-0.024597	0.999597	-0.004433	0.001813	-0.027973	
31678	    0	19.663379	-5.565971	-1.823681	-0.552622	0.377889	-5.206515	0.195061	-0.060802	-0.018443	0.999655	-0.002763	0.001889	-0.026030	
31679	    0	20.530482	-6.015432	-1.731304	-0.028804	0.507400	-4.623830	0.203796	-0.064880	-0.017822	0.999729	-0.000144	0.002537	-0.023117	
31680	    0	20.891724	-7.644359	-2.452016	0.740860	0.633088	-3.720131	0.207369	-0.080217	-0.025471	0.999813	0.003704	0.003165	-0.018600	
31681	    0	18.049022	-7.160780	-4.756857	1.393556	0.576611	-2.416692	0.179471	-0.073444	-0.048594	0.999898	0.006968	0.002883	-0.012083	
31682	    0	14.091253	-4.063790	-5.086167	1.236933	0.486190	-1.305218	0.140520	-0.041239	-0.051457	0.999956	0.006185	0.002431	-0.006526	
31683	    0	6.985146	-1.702188	-4.421643	1.444448	0.099183	-0.062562	0.069824	-0.016724	-0.044373	0.999973	0.007222	0.000496	-0.000313	
31684	    0	-0.759568	0.012517	-5.123770	1.548220	0.167849	1.203366	-0.007641	0.000476	-0.051229	0.999951	0.007741	0.000839	0.006017	
31685	    0	-4.105589	-0.118641	-3.750976	1.754826	0.518246	2.359096	-0.041138	-0.001343	-0.037415	0.999888	0.008774	0.002591	0.011795	
31686	    0	-5.005655	-0.707076	-4.773367	1.744384	0.749446	3.474844	-0.050107	-0.007525	-0.047610	0.999804	0.008721	0.003747	0.017373	
31687	    0	-2.317951	-0.122133	-5.203397	1.297118	0.873075	4.457507	-0.023376	-0.001404	-0.051941	0.999721	0.006485	0.004365	0.022285	
31688	    0	-0.461087	-0.468334	-5.040521	0.626643	0.857651	5.379588	-0.004702	-0.004651	-0.050400	0.999623	0.003133	0.004288	0.026895	
31689	    0	-0.664057	-0.294096	-4.439544	0.168638	0.760967	6.255613	-0.006714	-0.003113	-0.044373	0.999503	0.000843	0.003804	0.031273	
31690	    0	-0.614996	-0.506263	-4.045414	0.183527	0.538751	7.172606	-0.006073	-0.005244	-0.040442	0.999352	0.000917	0.002693	0.035855	
31691	    0	1.352246	-1.033758	-3.626892	0.485357	0.333683	7.927502	0.013855	-0.009705	-0.036316	0.999209	0.002426	0.001668	0.039627	
31692	    0	2.962246	-1.242410	-2.919873	0.801709	0.169233	8.465266	0.030085	-0.011040	-0.029270	0.999096	0.004007	0.000846	0.042314	
31693	    0	4.262042	-1.765603	-2.229639	1.037181	0.087958	8.885104	0.043335	-0.015625	-0.022400	0.999000	0.005184	0.000440	0.044411	
31694	    0	6.222327	-2.395366	-1.926594	1.270568	0.018508	9.280355	0.063239	-0.020911	-0.019411	0.998903	0.006351	0.000093	0.046385	
31695	    0	9.006280	-2.617973	-1.749663	1.318884	-0.022706	9.679447	0.091187	-0.021667	-0.017639	0.998807	0.006592	-0.000113	0.048378	
31696	    0	11.929773	-2.687862	-1.040070	1.209583	-0.042361	10.035400	0.120445	-0.020789	-0.010513	0.998723	0.006045	-0.000212	0.050156	
31697	    0	14.247206	-2.589388	0.810731	1.323725	-0.038164	10.321887	0.143555	-0.018555	0.007996	0.998646	0.006616	-0.000191	0.051586	
31698	    0	16.337434	-0.821812	-0.029643	1.824670	-0.245783	10.497865	0.163506	0.000366	-0.000118	0.998580	0.009119	-0.001228	0.052464	
31699	    0	19.259946	1.216416	-0.409662	2.098549	-0.371735	10.685675	0.191589	0.022461	-0.003540	0.998516	0.010488	-0.001858	0.053402	
31700	    0	22.602098	3.467235	0.425585	2.300680	-0.468494	10.846362	0.223690	0.046793	0.005274	0.998461	0.011497	-0.002341	0.054204	
31701	    0	26.525675	7.140695	-0.037283	2.831420	-0.527468	10.850882	0.260864	0.085632	0.001465	0.998425	0.014150	-0.002636	0.054226	
31702	    0	29.311978	12.750060	-0.858181	3.603724	-0.446935	10.605833	0.285826	0.142909	-0.005454	0.998429	0.018009	-0.002234	0.053001	
31703	    0	30.582080	18.377541	-2.235421	4.165457	-0.161634	10.168996	0.295959	0.199402	-0.018066	0.998490	0.020817	-0.000808	0.050819	
31704	    0	30.927604	24.096264	-2.225733	4.181995	0.299014	9.412351	0.297446	0.255549	-0.017465	0.998672	0.020901	0.001494	0.047041	
31705	    0	32.472466	31.874306	-0.999556	3.539920	0.589955	8.343321	0.311035	0.332031	-0.005127	0.998968	0.017694	0.002949	0.041702	
31706	    0	34.015368	41.590756	-3.112694	2.272167	0.670776	6.980187	0.325264	0.427760	-0.027419	0.999320	0.011358	0.003353	0.034893	
31707	    0	24.870221	47.812412	-11.237038	0.606816	0.405180	5.863280	0.234314	0.485474	-0.111389	0.999563	0.003034	0.002026	0.029312	
31708	    0	15.518155	43.768943	-19.676956	-0.509117	0.025179	4.618679	0.145003	0.440614	-0.197907	0.999730	-0.002545	0.000126	0.023091	
31709	    0	11.939628	45.643876	-16.901705	-1.104581	-0.159459	2.549826	0.113708	0.456970	-0.171448	0.999903	-0.005523	-0.000797	0.012749	
31710	    0	6.875973	48.151875	-6.004173	-1.925883	-0.215343	0.590144	0.067408	0.481112	-0.064603	0.999949	-0.009629	-0.001077	0.002951	
31711	    0	3.461904	42.814603	-0.241494	-2.898332	-0.060275	-1.077313	0.036926	0.427856	-0.008606	0.999880	-0.014491	-0.000301	-0.005386	
31712	    0	5.932842	35.545757	-0.978886	-3.185683	0.127420	-2.526457	0.063802	0.354454	-0.015480	0.999793	-0.015927	0.000637	-0.012631	
31713	    0	7.912678	31.575586	-2.279577	-3.148177	0.058179	-3.481612	0.084595	0.313904	-0.027771	0.999724	-0.015739	0.000291	-0.017406	
31714	    0	7.976691	22.973880	-0.150228	-3.297425	0.009538	-4.115963	0.084471	0.227966	-0.005275	0.999652	-0.016485	0.000048	-0.020577	
31715	    0	14.147072	10.138018	-0.824177	-3.400673	-0.569227	-4.395866	0.143677	0.098083	-0.009521	0.999609	-0.017001	-0.002846	-0.021976	
31716	    0	6.995691	-8.963718	-16.341162	-3.681637	-0.783826	-3.925044	0.068776	-0.093979	-0.161437	0.999630	-0.018406	-0.003919	-0.019623	
31717	    0	9.345419	-27.951255	-51.066504	0.360134	-3.167766	-2.726946	0.097717	-0.279907	-0.509644	0.999780	0.001801	-0.015838	-0.013634	
31718	    0	60.960844	86.176474	-44.518834	0.747785	3.188626	-9.155828	0.641067	0.834572	-0.452089	0.998817	0.003737	0.015937	-0.045761	
31719	    0	93.282312	66.041941	84.076280	-1.979827	0.618278	-10.544319	0.968750	0.618225	0.831543	0.998556	-0.009894	0.003090	-0.052696	
31720	    0	19.647204	-22.875138	17.797524	-0.212317	-2.791214	-5.000417	0.188165	-0.233335	0.180886	0.999589	-0.001061	-0.013954	-0.024999	
31721	    0	-12.410895	0.071592	13.116029	1.204920	-2.072363	-6.460323	-0.125366	0.003967	0.129883	0.999406	0.006023	-0.010360	-0.032295	
31722	    0	-10.013069	8.414779	-1.590454	0.117128	-0.369699	-5.939788	-0.097544	0.087080	-0.016036	0.999557	0.000586	-0.001848	-0.029695	
31723	    0	14.610914	11.020749	-4.853539	0.570742	-0.013544	-5.106916	0.148865	0.106567	-0.048218	0.999669	0.002853	-0.000068	-0.025532	
31724	    0	8.978478	1.465857	-4.555341	0.332665	-0.103195	-4.075907	0.090083	0.012900	-0.045485	0.999790	0.001663	-0.000516	-0.020378	
31725	    0	7.866584	10.513372	-14.819528	-0.707095	-0.006867	-3.651639	0.080566	0.103149	-0.148560	0.999826	-0.003535	-0.000034	-0.018257	
31726	    0	13.457730	9.473759	-4.477588	-0.825352	0.349253	-3.370837	0.136067	0.092266	-0.045397	0.999847	-0.004127	0.001746	-0.016853	
31727	    0	17.630975	8.306459	0.921115	-0.491162	0.664547	-2.982449	0.177551	0.080444	0.008423	0.999880	-0.002456	0.003323	-0.014912	
31728	    0	20.913616	11.262507	-6.542584	-1.056899	0.924334	-2.538007	0.210233	0.109611	-0.066980	0.999894	-0.005284	0.004622	-0.012690	
31729	    0	22.633332	4.282924	-4.495692	-0.661296	0.819419	-2.330081	0.226624	0.040039	-0.046021	0.999918	-0.003306	0.004097	-0.011650	
31730	    0	26.851795	5.049135	-2.523680	-0.711841	0.715656	-2.266179	0.268973	0.047353	-0.026371	0.999923	-0.003559	0.003578	-0.011331	
31731	    0	26.862274	-1.298568	3.379167	-0.996992	0.447092	-1.953166	0.268555	-0.015442	0.033264	0.999937	-0.004985	0.002235	-0.009766	
31732	    0	25.284210	0.281446	6.369520	-1.108382	0.392540	-1.838721	0.252980	0.000840	0.063190	0.999940	-0.005542	0.001963	-0.009193	
31733	    0	25.549419	-5.811818	5.864173	-1.822707	0.316055	-1.557197	0.255127	-0.059570	0.058777	0.999927	-0.009113	0.001580	-0.007786	
31734	    0	23.662644	-7.548662	6.818677	-1.797521	0.172428	-1.228357	0.236218	-0.076323	0.068666	0.999940	-0.008987	0.000862	-0.006142	
31735	    0	20.600472	-7.477240	3.451278	-2.199414	-0.119784	-0.786609	0.205688	-0.075195	0.035461	0.999931	-0.010997	-0.000599	-0.003933	
31736	    0	14.845145	-6.581050	-4.162324	-2.296122	-0.338563	-0.629631	0.148312	-0.066748	-0.040609	0.999928	-0.011480	-0.001693	-0.003148	
31737	    0	16.674274	-12.478213	-6.055681	-1.563281	-0.007439	-0.579078	0.166382	-0.125732	-0.059570	0.999965	-0.007816	-0.000037	-0.002895	
31738	    0	15.249416	-11.149074	-3.268745	-0.389291	0.331308	-0.863460	0.151957	-0.112211	-0.032722	0.999987	-0.001946	0.001657	-0.004317	
31739	    0	16.770688	-5.109264	2.148864	0.210573	0.814254	-1.204692	0.167480	-0.052124	0.020752	0.999972	0.001053	0.004071	-0.006023	
31740	    0	14.918245	3.427709	-4.191646	0.571456	1.227409	-2.013447	0.149258	0.032896	-0.042737	0.999926	0.002857	0.006137	-0.010067	
31741	    0	11.651411	7.937380	-10.194895	0.001526	1.428490	-3.286919	0.117065	0.077454	-0.102783	0.999839	0.000008	0.007142	-0.016434	
31742	    0	10.906871	12.076894	-11.543415	0.277350	0.910638	-4.196109	0.111046	0.118613	-0.115771	0.999768	0.001387	0.004553	-0.020979	
31743	    0	13.647784	17.325523	-11.233700	0.048261	0.539453	-4.919936	0.140381	0.169861	-0.112671	0.999693	0.000241	0.002697	-0.024597	
31744	    0	15.453620	4.834553	-6.375997	0.190752	0.361094	-4.685071	0.155498	0.044771	-0.063996	0.999723	0.000954	0.001805	-0.023423	
31745	    0	18.506011	-0.175505	-2.347065	0.038150	0.161185	-4.574221	0.184937	-0.005981	-0.023621	0.999738	0.000191	0.000806	-0.022869	
31746	    0	20.235881	-4.155284	0.871323	-0.014879	-0.047307	-4.976214	0.201240	-0.046569	0.008764	0.999690	-0.000074	-0.000237	-0.024879	
31747	    0	20.890180	-4.865804	1.318981	-0.511043	-0.099958	-5.479360	0.207458	-0.054321	0.013428	0.999620	-0.002555	-0.000500	-0.027393	
31748	    0	23.247389	-6.045120	1.880356	-1.251987	0.086989	-5.962722	0.230545	-0.067225	0.019110	0.999536	-0.006259	0.000435	-0.029809	
31749	    0	27.000082	-6.279558	2.488957	-2.151712	0.174747	-6.435867	0.267822	-0.071167	0.025391	0.999424	-0.010756	0.000874	-0.032173	
31750	    0	28.874541	-7.091103	2.082518	-2.385029	0.186575	-6.383224	0.286312	-0.079823	0.021474	0.999419	-0.011923	0.000933	-0.031910	
31751	    0	27.146478	-9.677305	2.260678	-2.398934	0.157195	-6.209949	0.268311	-0.104858	0.023621	0.999445	-0.011992	0.000786	-0.031044	
31752	    0	24.953713	-10.071104	0.513634	-1.897372	-0.058184	-6.104937	0.246308	-0.108208	0.006211	0.999489	-0.009485	-0.000291	-0.030519	
31753	    0	23.349797	-8.487521	-2.238371	-1.618263	-0.150323	-5.979350	0.230835	-0.091980	-0.021484	0.999519	-0.008090	-0.000751	-0.029892	
31754	    0	21.939036	-5.724525	-3.032168	-1.563692	-0.160051	-5.839284	0.217614	-0.063850	-0.029665	0.999542	-0.007817	-0.000800	-0.029192	
31755	    0	20.520532	-4.303232	-2.753130	-1.497669	-0.197629	-5.592365	0.203918	-0.048950	-0.026978	0.999580	-0.007487	-0.000988	-0.027958	
31756	    0	19.389981	-4.067964	-1.148606	-1.411045	-0.143451	-5.329426	0.192731	-0.045905	-0.011036	0.999619	-0.007054	-0.000717	-0.026644	
31757	    0	18.736424	-4.619510	-0.250177	-0.997266	-0.063140	-4.903924	0.186157	-0.050781	-0.002197	0.999686	-0.004986	-0.000316	-0.024517	
31758	    0	18.824641	-5.905733	-0.396699	-0.420029	0.071340	-4.154889	0.186964	-0.062959	-0.003904	0.999782	-0.002100	0.000357	-0.020773	
31759	    0	17.722685	-5.226582	-1.484266	0.051119	0.248156	-3.022119	0.176392	-0.054932	-0.015076	0.999885	0.000256	0.001241	-0.015110	
31760	    0	14.245355	-3.405829	-2.096701	-0.137331	0.240901	-1.790453	0.142116	-0.035346	-0.021114	0.999958	-0.000687	0.001204	-0.008952	
31761	    0	6.892474	-2.946527	-1.925443	-0.128174	-0.027275	-0.538636	0.068848	-0.029663	-0.019226	0.999995	-0.000641	-0.000136	-0.002693	
31762	    0	-1.570066	-2.197306	-2.502343	0.683407	-0.138284	0.982481	-0.015575	-0.021964	-0.025109	0.999981	0.003417	-0.000691	0.004912	
31763	    0	-6.092384	-1.319439	-2.618303	1.620536	0.155835	2.268293	-0.060791	-0.013672	-0.026245	0.999902	0.008102	0.000779	0.011341	
31764	    0	-6.102950	-0.748417	-2.267238	1.952292	0.502427	3.280461	-0.060955	-0.008264	-0.022597	0.999814	0.009761	0.002512	0.016401	
31765	    0	-3.181682	0.136806	-2.501668	1.821494	0.656188	4.262932	-0.031921	0.000916	-0.024902	0.999725	0.009107	0.003281	0.021313	
31766	    0	-0.719149	-0.094142	-3.160813	1.228859	0.672611	5.143584	-0.007274	-0.000934	-0.031590	0.999644	0.006144	0.003363	0.025715	
31767	    0	-0.442679	-0.027193	-3.089715	0.660045	0.638870	6.025866	-0.004517	-0.000305	-0.030884	0.999536	0.003300	0.003194	0.030125	
31768	    0	-1.278875	0.011923	-2.770115	0.494295	0.536456	6.950076	-0.012858	-0.000258	-0.027667	0.999389	0.002471	0.002682	0.034743	
31769	    0	0.246865	-0.699688	-2.182577	0.551171	0.445668	7.708376	0.002686	-0.006836	-0.021851	0.999250	0.002755	0.002228	0.038532	
31770	    0	2.169284	-1.100257	-1.942657	0.825166	0.312704	8.265777	0.022090	-0.010015	-0.019504	0.999136	0.004125	0.001563	0.041317	
31771	    0	3.555318	-1.216720	-2.034664	1.088490	0.222850	8.688080	0.036011	-0.010498	-0.020447	0.999041	0.005441	0.001114	0.043427	
31772	    0	5.238549	-1.660828	-1.982365	1.187740	0.167524	9.085783	0.053047	-0.014090	-0.019957	0.998950	0.005937	0.000837	0.045413	
31773	    0	7.450788	-2.103417	-1.528923	1.168502	0.116965	9.451051	0.075378	-0.017395	-0.015442	0.998866	0.005840	0.000585	0.047237	
31774	    0	9.964849	-1.766244	-1.410836	1.063395	0.021562	9.792471	0.100349	-0.012684	-0.014195	0.998787	0.005315	0.000108	0.048943	
31775	    0	12.264261	-1.217360	-0.424219	0.796083	-0.002862	10.045296	0.123047	-0.005981	-0.004272	0.998731	0.003979	-0.000014	0.050205	
31776	    0	13.819843	-0.832505	0.714750	0.970882	-0.121169	10.183388	0.138380	-0.001315	0.007214	0.998692	0.004852	-0.000606	0.050895	
31777	    0	15.540440	0.071241	0.247833	1.393943	-0.370192	10.272244	0.155090	0.008667	0.002808	0.998655	0.006967	-0.001850	0.051338	
31778	    0	18.384218	1.342515	-0.280983	1.709589	-0.657769	10.407330	0.182819	0.022979	-0.002038	0.998604	0.008544	-0.003287	0.052012	
31779	    0	21.806845	2.999025	0.396821	2.116850	-0.814452	10.555816	0.216064	0.041382	0.005249	0.998543	0.010579	-0.004070	0.052753	
31780	    0	26.140998	7.152064	-0.323454	2.747180	-0.802438	10.520805	0.257175	0.085153	-0.001089	0.998514	0.013729	-0.004010	0.052578	
31781	    0	29.724106	12.651880	-0.958657	3.499809	-0.620386	10.302492	0.290222	0.141724	-0.006287	0.998515	0.017490	-0.003100	0.051487	
31782	    0	30.894309	17.342573	-1.600518	4.039376	-0.327073	9.825180	0.299946	0.188580	-0.011802	0.998588	0.020187	-0.001635	0.049103	
31783	    0	30.864275	20.840631	-2.305364	4.150028	0.015265	9.117887	0.298706	0.222595	-0.018555	0.998745	0.020741	0.000076	0.045570	
31784	    0	32.821623	27.775733	-0.962231	3.579155	0.375106	8.049902	0.316672	0.290779	-0.005096	0.999028	0.017890	0.001875	0.040236	
31785	    0	33.799821	38.059421	-3.595668	2.458153	0.485335	6.771796	0.324768	0.392151	-0.031982	0.999348	0.012288	0.002426	0.033852	
31786	    0	26.347252	44.611905	-11.234515	1.076851	0.294346	5.719994	0.250399	0.454003	-0.110290	0.999575	0.005383	0.001472	0.028596	
31787	    0	15.516695	42.626800	-19.528457	0.258087	-0.121318	4.589485	0.145447	0.429932	-0.194641	0.999735	0.001290	-0.000607	0.022945	
31788	    0	10.745489	44.029078	-14.463650	-0.797870	-0.350201	2.663127	0.101840	0.441091	-0.146214	0.999902	-0.003989	-0.001751	0.013315	
31789	    0	8.204040	44.617259	-3.150559	-1.961555	-0.284391	0.819413	0.080261	0.446167	-0.035767	0.999942	-0.009808	-0.001422	0.004097	
31790	    0	4.895626	40.138798	0.996864	-2.879823	-0.020600	-0.846132	0.050653	0.401264	0.004195	0.999887	-0.014399	-0.000103	-0.004230	
31791	    0	4.576995	33.555890	-2.065284	-2.953510	0.145921	-2.273691	0.049561	0.334656	-0.025635	0.999825	-0.014767	0.000730	-0.011368	
31792	    0	6.979665	30.159982	-1.436136	-2.713216	0.224512	-3.244833	0.074656	0.300182	-0.018522	0.999775	-0.013565	0.001122	-0.016223	
31793	    0	7.796151	23.151658	1.391547	-2.737495	0.193042	-3.890596	0.082458	0.230103	0.010681	0.999716	-0.013686	0.000965	-0.019451	
31794	    0	14.457196	10.790984	0.152208	-2.728951	-0.259809	-4.319090	0.146856	0.104764	0.000268	0.999673	-0.013643	-0.001299	-0.021593	
31795	    0	6.809218	-1.294043	-12.739150	-3.331966	-0.538700	-4.173780	0.068115	-0.016479	-0.126953	0.999640	-0.016658	-0.002693	-0.020866	
31796	    0	13.980221	-21.636574	-35.448769	-1.676105	-2.012394	-3.155548	0.139879	-0.221525	-0.351238	0.999789	-0.008380	-0.010061	-0.015777	
31797	    0	37.443337	35.007730	-62.770438	2.820287	-0.501906	-5.585634	0.385742	0.348206	-0.621826	0.999507	0.014099	-0.002509	-0.027924	
31798	    0	102.605282	117.279807	71.884788	-1.468332	3.793000	-13.399006	1.114921	1.105187	0.689970	0.997550	-0.007336	0.018950	-0.066940	
31799	    0	34.290378	-38.159827	9.162736	-1.277183	-3.615409	-5.027082	0.331421	-0.389404	0.100159	0.999500	-0.006385	-0.018074	-0.025131	
31800	    0	-9.038839	-2.297779	22.876749	1.926091	-2.024723	-6.785198	-0.093455	-0.022038	0.227616	0.999327	0.009628	-0.010121	-0.033918	
31801	    0	-14.752399	4.788857	-1.368131	0.763087	-0.754502	-6.715924	-0.145752	0.052856	-0.014038	0.999421	0.003815	-0.003772	-0.033573	
31802	    0	9.250741	16.281993	-2.396405	1.094406	-0.111596	-5.820744	0.097208	0.160164	-0.023029	0.999561	0.005471	-0.000558	-0.029099	
31803	    0	8.317800	4.320229	-5.794588	0.309971	0.099191	-4.558960	0.084106	0.041382	-0.057922	0.999739	0.001550	0.000496	-0.022793	
31804	    0	5.726364	6.509228	-13.545273	-0.484878	0.083738	-3.849271	0.058441	0.063646	-0.135633	0.999811	-0.002424	0.000419	-0.019245	
31805	    0	14.104089	10.719382	-8.327012	-1.200174	0.460270	-3.521935	0.142700	0.104187	-0.084229	0.999824	-0.006001	0.002301	-0.017609	
31806	    0	17.292487	5.766692	-0.182671	-0.703652	0.667792	-3.111596	0.173786	0.054959	-0.002603	0.999866	-0.003518	0.003339	-0.015557	
31807	    0	18.986739	11.350948	-4.293887	-0.820765	0.830874	-2.865715	0.191284	0.110596	-0.044189	0.999880	-0.004104	0.004154	-0.014328	
31808	    0	21.212283	8.231348	-3.424117	-0.797487	0.881604	-2.465516	0.212960	0.079552	-0.035500	0.999906	-0.003987	0.004408	-0.012327	
31809	    0	26.048185	4.939832	-0.530755	-0.518051	0.703641	-2.484203	0.261047	0.046143	-0.006348	0.999913	-0.002590	0.003518	-0.012421	
31810	    0	27.300571	-0.076602	2.953358	-0.671784	0.498592	-2.203420	0.273048	-0.003676	0.028862	0.999930	-0.003359	0.002493	-0.011017	
31811	    0	25.791384	-0.026446	5.624077	-0.671399	0.357253	-1.975287	0.257996	-0.002625	0.055786	0.999944	-0.003357	0.001786	-0.009876	
31812	    0	26.714104	-3.727541	6.139118	-1.253915	0.309950	-1.737247	0.266901	-0.039210	0.061219	0.999941	-0.006269	0.001550	-0.008686	
31813	    0	25.275700	-6.490280	6.108746	-1.441219	0.175670	-1.492337	0.252319	-0.066345	0.061340	0.999946	-0.007206	0.000878	-0.007462	
31814	    0	22.658736	-6.345789	4.054372	-1.894036	-0.148013	-1.149773	0.226189	-0.064370	0.041318	0.999938	-0.009470	-0.000740	-0.005749	
31815	    0	16.872498	-8.217646	-2.416223	-2.555163	-0.473609	-0.779748	0.168457	-0.083130	-0.022705	0.999907	-0.012775	-0.002368	-0.003899	
31816	    0	16.271708	-14.208250	-3.347425	-2.073138	-0.253301	-0.644697	0.162298	-0.142941	-0.031790	0.999940	-0.010365	-0.001266	-0.003223	
31817	    0	14.697177	-12.432600	-3.167932	-1.361099	-0.008965	-0.880442	0.146423	-0.125183	-0.030823	0.999967	-0.006805	-0.000045	-0.004402	
31818	    0	17.003851	-8.586980	2.856505	-0.608449	0.507359	-1.193057	0.169595	-0.086796	0.028398	0.999974	-0.003042	0.002537	-0.005965	
31819	    0	16.375719	-1.131341	-1.072334	0.109293	1.133752	-1.920358	0.163574	-0.012878	-0.011658	0.999937	0.000546	0.005669	-0.009602	
31820	    0	13.684563	7.274709	-9.405805	0.565180	1.329118	-3.442201	0.137445	0.070652	-0.094769	0.999825	0.002826	0.006645	-0.017210	
31821	    0	9.016930	5.580696	-9.083197	0.655421	1.178271	-4.342262	0.090820	0.054138	-0.091187	0.999742	0.003277	0.005891	-0.021709	
31822	    0	16.868822	17.564915	-10.062300	1.200059	0.749870	-5.223721	0.172832	0.171773	-0.100227	0.999634	0.006000	0.003749	-0.026115	
31823	    0	16.675937	5.272839	-3.270196	1.371361	0.569986	-5.214567	0.167969	0.048584	-0.032837	0.999632	0.006856	0.002850	-0.026070	
31824	    0	19.859452	0.037602	-0.234509	1.379738	0.157564	-4.963471	0.198521	-0.004535	-0.002522	0.999667	0.006898	0.000788	-0.024815	
31825	    0	23.374495	-2.930680	1.953971	1.258242	-0.121132	-5.278663	0.232849	-0.035583	0.019470	0.999631	0.006290	-0.000606	-0.026390	
31826	    0	23.816416	-3.774484	1.561668	0.750650	-0.235973	-5.845345	0.236906	-0.044741	0.015738	0.999565	0.003753	-0.001180	-0.029222	
31827	    0	25.958652	-3.920829	1.943352	-0.190766	-0.089851	-6.272392	0.258179	-0.047302	0.019592	0.999507	-0.000954	-0.000449	-0.031357	
31828	    0	30.786485	-4.627472	2.215778	-1.358864	-0.180088	-6.628539	0.306089	-0.056287	0.022794	0.999427	-0.006793	-0.000900	-0.033136	
31829	    0	30.355672	-7.575227	0.702778	-2.020631	-0.456130	-6.276319	0.300964	-0.085144	0.008545	0.999454	-0.010101	-0.002280	-0.031376	
31830	    0	26.726975	-11.033983	0.489745	-2.199343	-0.587369	-5.844693	0.263877	-0.118016	0.006946	0.999508	-0.010995	-0.002936	-0.029219	
31831	    0	24.144111	-11.444859	-1.137804	-1.982420	-0.718608	-5.676374	0.238098	-0.121338	-0.009338	0.999541	-0.009911	-0.003592	-0.028378	
31832	    0	22.004349	-9.140381	-2.252140	-2.046892	-0.664048	-5.596045	0.217439	-0.097732	-0.020818	0.999550	-0.010233	-0.003320	-0.027976	
31833	    0	19.959537	-5.351092	-2.685269	-2.246994	-0.639437	-5.438263	0.198120	-0.059204	-0.025574	0.999561	-0.011233	-0.003197	-0.027187	
31834	    0	19.132923	-2.743821	-2.753056	-2.377637	-0.648204	-5.102077	0.190628	-0.032627	-0.026545	0.999599	-0.011887	-0.003241	-0.025507	
31835	    0	19.135574	-3.037560	-2.849273	-2.201885	-0.498252	-4.494187	0.190674	-0.034973	-0.027649	0.999683	-0.011008	-0.002491	-0.022469	
31836	    0	18.539393	-5.147132	-2.307560	-1.835186	-0.236909	-3.616009	0.184447	-0.055019	-0.022363	0.999793	-0.009175	-0.001184	-0.018079	
31837	    0	15.326747	-5.779289	-2.612346	-1.517347	-0.212104	-2.390370	0.152588	-0.059814	-0.025513	0.999899	-0.007586	-0.001060	-0.011951	
31838	    0	10.509143	-5.184580	-0.932455	-1.517893	-0.378424	-1.235982	0.104785	-0.052562	-0.008729	0.999949	-0.007589	-0.001892	-0.006180	
31839	    0	1.694021	-4.888853	-1.537378	-1.002508	-0.621609	0.169374	0.017029	-0.048950	-0.015076	0.999982	-0.005013	-0.003108	0.000847	
31840	    0	-2.761725	-5.121823	-1.044310	0.117875	-0.494581	1.558131	-0.027191	-0.051425	-0.010541	0.999966	0.000589	-0.002473	0.007791	
31841	    0	-4.882044	-3.238161	-1.639769	1.186607	-0.290691	2.786362	-0.048340	-0.032959	-0.016663	0.999884	0.005933	-0.001453	0.013931	
31842	    0	-4.232322	-1.520010	-1.982117	1.441483	-0.071531	3.812672	-0.042018	-0.015860	-0.019949	0.999792	0.007207	-0.000358	0.019062	
31843	    0	-2.191112	-1.751260	-2.191341	1.318494	-0.029567	4.768858	-0.021484	-0.017883	-0.022034	0.999694	0.006592	-0.000148	0.023842	
31844	    0	-0.756128	-1.895669	-2.271123	1.116526	-0.033574	5.664659	-0.007019	-0.019033	-0.022819	0.999583	0.005582	-0.000168	0.028319	
31845	    0	-0.312875	-0.936399	-2.179675	1.113335	-0.123428	6.582338	-0.002808	-0.009338	-0.021851	0.999442	0.005566	-0.000617	0.032906	
31846	    0	0.569725	-0.462120	-1.971642	1.259725	-0.169986	7.484517	0.005878	-0.004279	-0.019739	0.999279	0.006297	-0.000850	0.037414	
31847	    0	2.289966	-0.604861	-1.438882	1.461446	-0.205098	8.139833	0.023132	-0.005005	-0.014404	0.999145	0.007305	-0.001025	0.040688	
31848	    0	3.774579	-1.188215	-1.351610	1.783377	-0.234298	8.639850	0.038224	-0.010117	-0.013567	0.999026	0.008914	-0.001171	0.043185	
31849	    0	5.384600	-1.581437	-1.713925	1.958596	-0.239649	9.070028	0.054504	-0.013184	-0.017212	0.998922	0.009789	-0.001198	0.045334	
31850	    0	7.836698	-2.088603	-2.336756	1.899312	-0.269041	9.459925	0.079262	-0.016928	-0.023435	0.998836	0.009493	-0.001345	0.047281	
31851	    0	10.468929	-2.276729	-1.888245	1.583177	-0.216001	9.797877	0.105652	-0.017456	-0.018921	0.998768	0.007913	-0.001080	0.048969	
31852	    0	12.834506	-1.682930	-1.397644	1.354989	-0.263327	10.049550	0.128989	-0.010262	-0.013891	0.998713	0.006772	-0.001316	0.050226	
31853	    0	14.772259	-1.288455	-0.749972	1.313595	-0.306645	10.167573	0.148132	-0.005310	-0.007324	0.998685	0.006565	-0.001533	0.050816	
31854	    0	16.427719	0.497901	-0.927829	1.593931	-0.575708	10.292523	0.163754	0.013489	-0.008721	0.998640	0.007966	-0.002877	0.051439	
31855	    0	18.896734	2.475652	-1.289953	1.622196	-0.790775	10.440369	0.187378	0.034668	-0.011902	0.998596	0.008107	-0.003952	0.052177	
31856	    0	22.289833	4.443956	0.032856	1.600075	-0.869784	10.544848	0.220140	0.056088	0.001708	0.998569	0.007997	-0.004347	0.052699	
31857	    0	25.785482	8.377852	0.304742	2.040309	-0.938672	10.454198	0.252991	0.097046	0.005188	0.998570	0.010197	-0.004691	0.052246	
31858	    0	28.658531	13.435114	-0.644589	2.716763	-0.881035	10.204702	0.279256	0.148787	-0.003248	0.998596	0.013577	-0.004403	0.051000	
31859	    0	29.918179	18.506516	-0.853433	3.150980	-0.565585	9.723331	0.289734	0.199402	-0.004639	0.998690	0.015748	-0.002827	0.048595	
31860	    0	29.468222	23.070115	-0.655175	3.282477	-0.298424	9.037450	0.283867	0.243754	-0.002192	0.998843	0.016406	-0.001492	0.045170	
31861	    0	31.274260	28.504212	0.054457	2.810014	-0.021941	8.154535	0.300781	0.297424	0.004700	0.999070	0.014046	-0.000110	0.040760	
31862	    0	32.929184	36.266266	-2.016785	1.983706	0.112177	7.059726	0.316208	0.374157	-0.016674	0.999328	0.009916	0.000561	0.035291	
31863	    0	27.190012	41.965564	-7.609450	0.898307	-0.020602	5.970145	0.259216	0.427856	-0.074158	0.999544	0.004491	-0.000103	0.029846	
31864	    0	17.144883	40.468045	-13.908557	0.294522	-0.333245	4.713689	0.162077	0.408778	-0.138210	0.999720	0.001472	-0.001666	0.023566	
31865	    0	12.373113	40.977982	-11.133280	-0.305759	-0.444810	2.949634	0.117920	0.411377	-0.111694	0.999887	-0.001529	-0.002224	0.014748	
31866	    0	8.957097	43.219493	-1.699544	-0.956735	-0.304416	1.150715	0.087111	0.432613	-0.018930	0.999970	-0.004784	-0.001522	0.005754	
31867	    0	3.607363	40.844532	3.096204	-1.513497	-0.122835	-0.515753	0.037109	0.408569	0.027893	0.999968	-0.007567	-0.000614	-0.002579	
31868	    0	3.109815	33.292332	1.353295	-1.530877	0.076868	-1.924373	0.034305	0.332694	0.010973	0.999924	-0.007654	0.000384	-0.009622	
31869	    0	6.588019	28.207859	1.730537	-0.997967	0.270283	-3.003819	0.070129	0.281128	0.015808	0.999873	-0.004990	0.001351	-0.015018	
31870	    0	7.683126	24.183975	3.220111	-0.651019	0.281733	-3.818561	0.081475	0.240417	0.031304	0.999811	-0.003255	0.001409	-0.019092	
31871	    0	6.796780	18.438553	4.584880	-0.694333	0.302340	-4.410921	0.072083	0.182983	0.045105	0.999749	-0.003471	0.001512	-0.022053	
31872	    0	12.915515	7.331411	0.911634	-0.827484	-0.252365	-4.606287	0.130787	0.070352	0.008986	0.999725	-0.004137	-0.001262	-0.023029	
31873	    0	7.135394	-10.671065	-22.891270	-2.044649	-1.072778	-3.701313	0.070557	-0.110352	-0.227417	0.999762	-0.010222	-0.005363	-0.018505	
31874	    0	13.854415	-33.090035	-55.324450	-0.316447	-2.990699	-2.092478	0.143312	-0.333256	-0.550599	0.999832	-0.001582	-0.014953	-0.010462	
31875	    0	54.353714	67.302608	-60.601372	0.764676	1.276177	-7.994756	0.566040	0.653015	-0.607056	0.999173	0.003822	0.006379	-0.039963	
31876	    0	101.571159	84.120084	79.964859	-1.988424	1.284011	-11.580532	1.067465	0.788222	0.784888	0.998254	-0.009936	0.006416	-0.057869	
31877	    0	29.762474	-28.156977	13.875768	-1.983084	-3.491144	-5.635432	0.287048	-0.288330	0.146667	0.999401	-0.009913	-0.017452	-0.028172	
31878	    0	-17.422720	-4.411650	23.602812	1.261426	-2.433950	-6.864966	-0.178490	-0.039516	0.233614	0.999316	0.006306	-0.012167	-0.034317	
31879	    0	-12.119347	5.425870	-1.321426	0.738855	-0.605124	-6.638818	-0.119263	0.058289	-0.013367	0.999437	0.003694	-0.003025	-0.033188	
31880	    0	16.494066	18.977449	-5.126620	0.822178	-0.299303	-5.627821	0.170272	0.185241	-0.050246	0.999594	0.004110	-0.001496	-0.028135	
31881	    0	4.567848	0.938942	-6.561190	-0.061612	-0.273917	-4.392597	0.045959	0.008362	-0.065552	0.999758	-0.000308	-0.001369	-0.021961	
31882	    0	3.708606	6.351402	-11.364909	-0.096708	-0.113876	-3.819698	0.038354	0.062735	-0.113658	0.999817	-0.000484	-0.000569	-0.019097	
31883	    0	15.066962	12.059325	-11.279022	-0.995691	0.271812	-3.499034	0.152588	0.117371	-0.113586	0.999833	-0.004978	0.001359	-0.017494	
31884	    0	16.485583	9.058930	-0.336278	-0.512336	0.504134	-3.103769	0.166225	0.088007	-0.004008	0.999872	-0.002562	0.002521	-0.015518	
31885	    0	17.846806	12.854211	-5.401489	-0.972782	0.742557	-2.629944	0.179932	0.125916	-0.055298	0.999894	-0.004864	0.003713	-0.013149	
31886	    0	21.606955	7.496092	-6.470290	-1.082833	0.902392	-2.201334	0.216578	0.072224	-0.066075	0.999914	-0.005414	0.004512	-0.011006	
31887	    0	26.317798	2.760637	-2.358919	-0.698106	0.697533	-2.128650	0.263367	0.024719	-0.024597	0.999930	-0.003490	0.003488	-0.010643	
31888	    0	28.529891	1.338078	2.130296	-0.943202	0.538646	-1.858747	0.285463	0.010826	0.020479	0.999942	-0.004716	0.002693	-0.009294	
31889	    0	27.950108	0.955185	7.278001	-1.046008	0.424392	-1.689177	0.279724	0.007568	0.072144	0.999948	-0.005230	0.002122	-0.008446	
31890	    0	27.548679	-1.542668	7.027744	-1.778452	0.305183	-1.468882	0.275474	-0.016827	0.070003	0.999932	-0.008892	0.001526	-0.007344	
31891	    0	26.156957	-6.468546	8.777190	-2.008865	0.082590	-1.153590	0.261230	-0.065308	0.088318	0.999932	-0.010044	0.000413	-0.005768	
31892	    0	22.704437	-7.030684	5.939094	-2.640425	-0.291833	-0.673315	0.226720	-0.070275	0.060650	0.999906	-0.013202	-0.001459	-0.003366	
31893	    0	15.821998	-9.902586	0.384356	-3.086218	-0.536941	-0.375382	0.158020	-0.099243	0.005798	0.999875	-0.015430	-0.002685	-0.001877	
31894	    0	15.337153	-14.541855	-3.049944	-2.578236	-0.257309	-0.309953	0.153183	-0.146031	-0.028422	0.999914	-0.012891	-0.001287	-0.001550	
31895	    0	15.592962	-11.997639	-2.052005	-1.340306	0.157930	-0.556951	0.155579	-0.120544	-0.019836	0.999973	-0.006701	0.000790	-0.002785	
31896	    0	17.650998	-5.276149	1.699344	-0.209428	0.667767	-0.999075	0.176299	-0.053625	0.016460	0.999981	-0.001047	0.003339	-0.004995	
31897	    0	15.972728	2.416915	-1.815186	0.419626	1.099610	-1.957745	0.159851	0.022644	-0.018982	0.999934	0.002098	0.005498	-0.009789	
31898	    0	9.982637	8.340601	-8.548662	-0.155648	1.429062	-3.289781	0.100565	0.081689	-0.086267	0.999839	-0.000778	0.007145	-0.016448	
31899	    0	10.540865	11.099181	-11.329251	-0.160230	1.074495	-4.238467	0.107117	0.108643	-0.113953	0.999761	-0.000801	0.005372	-0.021191	
31900	    0	12.175984	17.450791	-10.777384	-0.308644	0.765123	-5.114555	0.125751	0.171159	-0.108516	0.999664	-0.001543	0.003825	-0.025570	
31901	    0	14.845436	5.036333	-5.984783	-0.614804	0.576844	-5.002367	0.149475	0.046448	-0.060425	0.999678	-0.003074	0.002884	-0.025009	
31902	    0	19.844478	0.462121	-2.526231	-0.717045	0.482036	-4.864997	0.198416	-0.000298	-0.025745	0.999695	-0.003585	0.002410	-0.024323	
31903	    0	22.109704	-3.835995	0.128146	-0.688247	0.352707	-5.071815	0.220032	-0.043945	0.001038	0.999671	-0.003441	0.001763	-0.025356	
31904	    0	22.342339	-4.659389	1.045773	-0.920036	0.384191	-5.551502	0.222036	-0.052723	0.010263	0.999602	-0.004600	0.001921	-0.027754	
31905	    0	23.376650	-4.756990	1.136663	-1.435317	0.543490	-5.974763	0.232239	-0.054443	0.011108	0.999524	-0.007175	0.002717	-0.029869	
31906	    0	25.229533	-4.821649	1.428351	-1.883469	0.680857	-6.305891	0.250659	-0.056005	0.013931	0.999453	-0.009416	0.003404	-0.031524	
31907	    0	27.643382	-4.880336	0.470730	-2.615138	0.614485	-6.535936	0.274658	-0.057739	0.004578	0.999375	-0.013073	0.003072	-0.032673	
31908	    0	27.381447	-6.500350	-1.016238	-2.873992	0.604750	-6.250097	0.271572	-0.073659	-0.009969	0.999404	-0.014367	0.003023	-0.031244	
31909	    0	25.674174	-10.444180	-2.198445	-2.549224	0.704313	-5.816114	0.253479	-0.112122	-0.021484	0.999489	-0.012744	0.003521	-0.029076	
31910	    0	24.066072	-10.964811	-3.340992	-2.162319	0.549975	-5.714740	0.237300	-0.116818	-0.032828	0.999529	-0.010810	0.002749	-0.028569	
31911	    0	21.944467	-9.193781	-4.128510	-1.670129	0.491405	-5.670234	0.216614	-0.098450	-0.041016	0.999559	-0.008349	0.002457	-0.028347	
31912	    0	19.757268	-6.817458	-3.786722	-1.361079	0.427686	-5.538932	0.195498	-0.073866	-0.037797	0.999591	-0.006804	0.002138	-0.027691	
31913	    0	18.741832	-5.874933	-2.665886	-1.053746	0.431303	-5.251181	0.185730	-0.063782	-0.026733	0.999639	-0.005268	0.002156	-0.026253	
31914	    0	18.657116	-4.908329	-1.667595	-0.461433	0.518659	-4.807945	0.185275	-0.053587	-0.017037	0.999704	-0.002307	0.002593	-0.024037	
31915	    0	19.712921	-4.608836	-1.521902	0.220505	0.669334	-3.987394	0.196106	-0.049988	-0.015930	0.999795	0.001102	0.003346	-0.019936	
31916	    0	18.181951	-4.367987	-3.307995	0.710702	0.664352	-2.688881	0.181100	-0.045999	-0.033843	0.999897	0.003553	0.003322	-0.013444	
31917	    0	14.377775	-3.363973	-3.245938	0.540167	0.567061	-1.470964	0.143433	-0.034607	-0.032959	0.999965	0.002701	0.002835	-0.007355	
31918	    0	8.657682	-2.087660	-2.943923	0.703623	0.078774	-0.211907	0.086543	-0.020864	-0.029547	0.999992	0.003518	0.000394	-0.001060	
31919	    0	1.549437	-1.192102	-4.017215	0.923164	-0.053978	1.000221	0.015564	-0.011658	-0.040222	0.999976	0.004616	-0.000270	0.005001	
31920	    0	-2.607065	-0.083994	-3.331980	1.259454	0.169377	2.085547	-0.026090	-0.000902	-0.033303	0.999925	0.006297	0.000847	0.010427	
31921	    0	-5.219068	0.304407	-4.088502	1.413799	0.361842	3.176279	-0.052307	0.002502	-0.040771	0.999846	0.007069	0.001809	0.015881	
31922	    0	-3.693718	1.045570	-4.363247	1.036532	0.513879	4.123431	-0.037257	0.009915	-0.043485	0.999770	0.005182	0.002569	0.020616	
31923	    0	-1.339398	-0.269244	-4.037222	0.515804	0.526677	5.087841	-0.013428	-0.002930	-0.040344	0.999669	0.002579	0.002633	0.025436	
31924	    0	-0.648722	-1.009642	-3.471078	0.228916	0.455352	5.952385	-0.006263	-0.010245	-0.034708	0.999554	0.001144	0.002276	0.029757	
31925	    0	-0.894665	-0.940484	-3.448003	0.348731	0.270324	6.822007	-0.008667	-0.009644	-0.034485	0.999415	0.001743	0.001351	0.034103	
31926	    0	0.519201	-1.122151	-3.384205	0.689864	0.112561	7.585643	0.005590	-0.010898	-0.033883	0.999274	0.003448	0.000563	0.037919	
31927	    0	1.993177	-1.167004	-2.850481	1.144924	-0.033579	8.157366	0.020386	-0.010681	-0.028564	0.999151	0.005723	-0.000168	0.040775	
31928	    0	2.994745	-1.548682	-2.448571	1.549069	-0.080516	8.600301	0.030581	-0.013990	-0.024586	0.999045	0.007743	-0.000402	0.042988	
31929	    0	4.542718	-2.007398	-2.077660	1.794297	-0.035680	8.976064	0.046265	-0.017822	-0.020935	0.998952	0.008968	-0.000178	0.044865	
31930	    0	6.924352	-2.108928	-1.973364	1.886699	-0.000382	9.334658	0.070121	-0.017642	-0.019911	0.998866	0.009430	-0.000002	0.046656	
31931	    0	9.673051	-2.243624	-1.628793	1.844197	0.029767	9.667292	0.097656	-0.017578	-0.016479	0.998789	0.009217	0.000149	0.048317	
31932	    0	12.083312	-2.525382	-0.128656	1.916556	0.099797	9.918616	0.121885	-0.019211	-0.001551	0.998724	0.009579	0.000499	0.049572	
31933	    0	13.884300	-1.097778	-1.052426	2.465607	-0.059536	10.156294	0.139160	-0.003784	-0.010559	0.998634	0.012322	-0.000298	0.050758	
31934	    0	16.210795	0.800674	-1.913836	2.663170	-0.141211	10.379226	0.161407	0.016650	-0.018841	0.998565	0.013309	-0.000706	0.051871	
31935	    0	18.701761	2.471492	-0.901056	2.580202	-0.131291	10.583388	0.185364	0.034668	-0.008484	0.998516	0.012895	-0.000656	0.052891	
31936	    0	21.879262	4.498695	-1.435180	2.712657	-0.224798	10.630600	0.216001	0.056707	-0.013391	0.998494	0.013556	-0.001123	0.053126	
31937	    0	25.602440	8.019009	-2.509685	3.187653	-0.330330	10.563682	0.251343	0.093933	-0.023254	0.998477	0.015930	-0.001651	0.052792	
31938	    0	28.413887	13.116367	-3.636140	3.687026	-0.281093	10.294132	0.276918	0.146179	-0.033365	0.998505	0.018426	-0.001405	0.051445	
31939	    0	29.493895	17.565010	-5.084818	3.872357	-0.007633	9.747968	0.285889	0.190674	-0.047241	0.998625	0.019353	-0.000038	0.048717	
31940	    0	30.183868	23.548628	-4.822948	3.612220	0.215997	9.007366	0.290758	0.249573	-0.044124	0.998822	0.018054	0.001080	0.045019	
31941	    0	32.598178	32.412748	-4.664355	2.762078	0.312897	7.910184	0.312744	0.337280	-0.042542	0.999121	0.013806	0.001564	0.039539	
31942	    0	30.340852	43.046445	-7.231500	1.251081	0.246859	6.692082	0.288687	0.440732	-0.069942	0.999419	0.006254	0.001234	0.033454	
31943	    0	19.745401	47.711332	-14.215320	-0.577626	-0.115029	5.752602	0.183716	0.482117	-0.143433	0.999581	-0.002888	-0.000575	0.028759	
