// Start Time: Unknown
// Update Rate: 100.0Hz
// Filter Profile: human (34.3)
// Firmware Version: 2.1.4
PacketCounter	SampleTimeFine	Acc_X	Acc_Y	Acc_Z	Gyr_X	Gyr_Y	Gyr_Z	VelInc_X	VelInc_Y	VelInc_Z	OriInc_q0	OriInc_q1	OriInc_q2	OriInc_q3	
22695	    0	14.668929	-4.591519	-4.792470	-0.483527	0.213629	2.587966	0.147217	-0.044128	-0.047974	0.999912	-0.002418	0.001068	0.012939	
22696	    0	15.763405	-0.604984	-6.162376	0.479142	0.063517	2.767654	0.157677	-0.003720	-0.061685	0.999901	0.002396	0.000318	0.013838	
22697	    0	18.232084	2.011656	-7.239784	0.678468	0.003815	2.841288	0.182007	0.022949	-0.072327	0.999893	0.003392	0.000019	0.014206	
22698	    0	19.477554	5.448900	-7.331448	0.437178	-0.037004	2.675520	0.194036	0.057248	-0.073155	0.999907	0.002186	-0.000185	0.013377	
22699	    0	18.006326	8.328037	-5.967324	0.288590	-0.182348	2.594831	0.179016	0.085693	-0.059387	0.999914	0.001443	-0.000912	0.012974	
22700	    0	16.278569	7.041266	-4.584630	0.362788	-0.425160	2.589301	0.161952	0.072596	-0.045371	0.999912	0.001814	-0.002126	0.012946	
22701	    0	15.790708	4.717832	-2.225720	0.379955	-0.631542	2.584154	0.157349	0.049255	-0.021667	0.999909	0.001900	-0.003158	0.012920	
22702	    0	15.613404	4.969309	-0.867161	0.451483	-0.769257	2.547151	0.155516	0.051695	-0.007957	0.999908	0.002257	-0.003846	0.012735	
22703	    0	14.010016	6.290208	-0.732913	0.695249	-0.824762	2.450635	0.139343	0.064636	-0.006531	0.999910	0.003476	-0.004124	0.012253	
22704	    0	13.121240	6.844220	-0.822805	0.952558	-0.813890	2.359842	0.130424	0.070021	-0.007365	0.999910	0.004763	-0.004069	0.011799	
22705	    0	12.285596	7.115854	-0.678569	1.167523	-0.826288	2.249975	0.122070	0.072571	-0.005859	0.999910	0.005837	-0.004131	0.011250	
22706	    0	11.814629	6.757068	-0.640575	1.425785	-0.801301	2.111688	0.117447	0.068854	-0.005446	0.999910	0.007129	-0.004006	0.010558	
22707	    0	10.850996	6.014402	-0.119513	1.715904	-0.793291	1.978364	0.107910	0.061218	-0.000244	0.999906	0.008579	-0.003966	0.009892	
22708	    0	9.552922	5.606102	0.450838	1.929351	-0.852996	1.988290	0.094944	0.056957	0.005461	0.999894	0.009646	-0.004265	0.009941	
22709	    0	8.899193	5.240500	0.548685	2.045516	-0.858148	1.986005	0.088440	0.053223	0.006409	0.999888	0.010227	-0.004291	0.009930	
22710	    0	8.147923	5.056146	0.336964	2.066687	-0.809699	1.925538	0.080972	0.051302	0.004226	0.999891	0.010333	-0.004048	0.009627	
22711	    0	7.482582	5.279603	-0.000084	1.932015	-0.751519	1.814327	0.074341	0.053467	0.000793	0.999905	0.009660	-0.003757	0.009071	
22712	    0	7.019336	5.871808	-0.070276	1.657909	-0.696391	1.683850	0.069696	0.059308	0.000031	0.999924	0.008289	-0.003482	0.008419	
22713	    0	6.485320	6.620369	-0.059910	1.338413	-0.666059	1.570923	0.064331	0.066711	0.000061	0.999941	0.006692	-0.003330	0.007854	
22714	    0	6.189940	7.042237	0.561361	1.084727	-0.689899	1.506449	0.061346	0.070853	0.006209	0.999950	0.005424	-0.003449	0.007532	
22715	    0	6.401390	6.538895	-0.122850	0.464064	-0.887310	1.462574	0.063538	0.065857	-0.000793	0.999960	0.002320	-0.004436	0.007313	
22716	    0	6.217922	6.503013	-0.145262	-0.058747	-1.024068	1.341645	0.061748	0.065445	-0.001155	0.999964	-0.000294	-0.005120	0.006708	
22717	    0	5.750880	5.988677	0.233420	-0.411038	-1.019299	1.222243	0.057129	0.060242	0.002502	0.999966	-0.002055	-0.005096	0.006111	
22718	    0	5.568820	5.282638	0.360829	-0.717552	-0.969325	1.095784	0.055380	0.053144	0.003687	0.999967	-0.003588	-0.004847	0.005479	
22719	    0	5.390823	4.995584	0.603615	-0.833901	-0.801666	0.933846	0.053650	0.050232	0.006042	0.999972	-0.004169	-0.004008	0.004669	
22720	    0	4.685441	5.734982	0.248952	-0.887305	-0.571255	0.727468	0.046638	0.057530	0.002368	0.999979	-0.004436	-0.002856	0.003637	
22721	    0	4.110884	6.185213	-0.109899	-0.845341	-0.385095	0.505831	0.040955	0.061951	-0.001282	0.999986	-0.004227	-0.001925	0.002529	
22722	    0	4.409356	6.132300	-0.945043	-1.095778	-0.293543	0.240327	0.044034	0.061323	-0.009722	0.999983	-0.005479	-0.001468	0.001202	
22723	    0	4.871862	5.818735	-0.449908	-1.572244	-0.302127	0.067902	0.048706	0.058167	-0.004883	0.999968	-0.007861	-0.001511	0.000340	
22724	    0	6.528720	3.097640	1.314305	-1.379406	-0.177194	-0.193979	0.065306	0.031003	0.012987	0.999975	-0.006897	-0.000886	-0.000970	
22725	    0	7.382256	1.527993	-0.837985	-1.573961	-0.041008	-0.373081	0.073853	0.015076	-0.008484	0.999967	-0.007870	-0.000205	-0.001865	
22726	    0	6.449552	1.116244	-3.910561	-1.985776	-0.312239	-0.468262	0.064582	0.010623	-0.039112	0.999947	-0.009929	-0.001561	-0.002341	
22727	    0	6.976059	-1.032786	-5.422496	-2.348961	-0.581375	-0.593582	0.069885	-0.011169	-0.053894	0.999922	-0.011744	-0.002907	-0.002968	
22728	    0	9.155448	-7.219320	-4.906350	-2.345721	-0.626200	-0.802634	0.091413	-0.073127	-0.047923	0.999918	-0.011728	-0.003131	-0.004013	
22729	    0	10.771550	-15.623668	-3.413027	-1.367203	-0.414090	-0.852213	0.107117	-0.156921	-0.032837	0.999965	-0.006836	-0.002070	-0.004261	
22730	    0	11.568254	-23.211930	-4.732948	0.364114	-0.147438	-0.655748	0.114956	-0.232410	-0.047668	0.999992	0.001821	-0.000737	-0.003279	
22731	    0	12.931260	-23.029702	-7.696963	1.866179	0.167277	-0.455482	0.128723	-0.229858	-0.079224	0.999953	0.009331	0.000836	-0.002277	
22732	    0	12.726467	-15.410882	-8.973449	2.626311	0.740837	-0.288019	0.126705	-0.153091	-0.092219	0.999906	0.013131	0.003704	-0.001440	
22733	    0	10.375112	-8.196741	-5.933679	2.820704	1.417028	-0.123601	0.103271	-0.081177	-0.061218	0.999875	0.014103	0.007085	-0.000618	
22734	    0	8.533349	-2.800190	-1.062199	2.671536	1.469097	-0.114064	0.085235	-0.027900	-0.011621	0.999883	0.013357	0.007345	-0.000570	
22735	    0	10.767861	4.430286	-0.293862	2.529412	0.908689	-0.278481	0.107727	0.044189	-0.002869	0.999908	0.012647	0.004543	-0.001392	
22736	    0	13.103550	11.632592	-1.707268	2.072564	0.244336	-0.461587	0.131284	0.116193	-0.016028	0.999943	0.010363	0.001222	-0.002308	
22737	    0	18.429503	-5.475689	-2.863983	0.860601	-0.669674	-0.454715	0.184265	-0.055054	-0.028259	0.999982	0.004303	-0.003348	-0.002274	
22738	    0	18.587706	-16.230851	-4.416926	1.238263	-0.643164	-0.640875	0.185499	-0.162628	-0.044579	0.999970	0.006191	-0.003216	-0.003204	
22739	    0	14.538602	5.338780	0.764404	3.067334	0.298322	-0.644710	0.145569	0.052795	0.008240	0.999876	0.015336	0.001492	-0.003223	
22740	    0	9.339328	17.604076	2.908500	1.795987	0.333982	-0.551995	0.093928	0.175512	0.030506	0.999954	0.008980	0.001670	-0.002760	
22741	    0	9.839759	15.789755	2.623731	-0.553705	0.088501	-0.515748	0.098816	0.157715	0.025757	0.999992	-0.002769	0.000443	-0.002579	
22742	    0	10.160120	5.767227	-1.663393	-0.423242	0.100518	-0.621797	0.101771	0.057321	-0.016807	0.999992	-0.002116	0.000503	-0.003109	
22743	    0	8.279169	8.187037	-4.964864	0.153351	0.085640	-0.880435	0.083130	0.081543	-0.049622	0.999990	0.000767	0.000428	-0.004402	
22744	    0	8.464486	11.435613	-6.187155	-0.278474	0.050545	-1.062208	0.085235	0.113818	-0.062052	0.999985	-0.001392	0.000253	-0.005311	
22745	    0	10.051944	9.460216	-7.023351	-0.511173	0.042916	-1.211557	0.101074	0.093811	-0.070496	0.999978	-0.002556	0.000215	-0.006058	
22746	    0	11.528648	4.826090	-8.729440	-0.507169	0.012779	-1.452842	0.115626	0.047200	-0.087422	0.999969	-0.002536	0.000064	-0.007264	
22747	    0	11.268844	2.480396	-9.191827	-0.838482	-0.068475	-1.630424	0.112915	0.023499	-0.091980	0.999957	-0.004192	-0.000342	-0.008152	
22748	    0	10.897228	3.269188	-6.847633	-1.030367	-0.057031	-1.693944	0.109262	0.031414	-0.068609	0.999950	-0.005152	-0.000285	-0.008470	
22749	    0	11.222749	3.060152	-3.976653	-1.049632	-0.010681	-1.731902	0.112488	0.029419	-0.039917	0.999949	-0.005248	-0.000053	-0.008659	
22750	    0	10.817583	2.426509	-1.995953	-1.227974	0.000381	-1.719888	0.108378	0.023211	-0.020104	0.999944	-0.006140	0.000002	-0.008599	
22751	    0	10.023106	2.790424	-0.994158	-1.208518	0.050546	-1.725038	0.100464	0.026978	-0.010132	0.999944	-0.006042	0.000253	-0.008625	
22752	    0	10.051884	2.813035	-1.108744	-1.051348	0.114252	-1.712637	0.100748	0.027209	-0.011290	0.999949	-0.005257	0.000571	-0.008563	
22753	    0	10.211799	2.250261	-1.599810	-0.984017	0.134280	-1.717405	0.102295	0.021545	-0.016174	0.999950	-0.004920	0.000671	-0.008587	
22754	    0	9.918585	1.964127	-2.095970	-0.841917	0.152209	-1.714351	0.099333	0.018702	-0.021115	0.999953	-0.004210	0.000761	-0.008572	
22755	    0	9.695531	1.380313	-2.519492	-0.794995	0.169566	-1.699091	0.097046	0.012878	-0.025330	0.999955	-0.003975	0.000848	-0.008495	
22756	    0	9.223467	0.635481	-2.838102	-0.888456	0.191310	-1.672579	0.092256	0.005457	-0.028495	0.999954	-0.004442	0.000957	-0.008363	
22757	    0	8.589386	0.233743	-3.152041	-1.013200	0.202373	-1.659420	0.085876	0.001465	-0.031616	0.999951	-0.005066	0.001012	-0.008297	
22758	    0	8.058633	-0.281935	-3.185167	-1.096934	0.233273	-1.632145	0.080522	-0.003652	-0.031927	0.999950	-0.005485	0.001166	-0.008161	
22759	    0	7.665810	-1.027141	-3.140704	-1.045243	0.215343	-1.597620	0.076538	-0.011047	-0.031433	0.999953	-0.005226	0.001077	-0.007988	
22760	    0	7.572097	-0.714537	-2.655257	-0.860798	0.211719	-1.569388	0.075633	-0.007854	-0.026600	0.999959	-0.004304	0.001059	-0.007847	
22761	    0	7.809079	0.032299	-1.973542	-0.812350	0.260166	-1.559469	0.078064	-0.000366	-0.019836	0.999960	-0.004062	0.001301	-0.007797	
22762	    0	8.275913	0.408502	-1.617465	-0.886929	0.273899	-1.536771	0.082765	0.003377	-0.016304	0.999959	-0.004435	0.001369	-0.007684	
22763	    0	8.720228	0.600173	-1.730318	-0.949682	0.290684	-1.536581	0.087219	0.005249	-0.017456	0.999958	-0.004748	0.001453	-0.007683	
22764	    0	9.116945	0.021956	-1.759976	-0.979628	0.340848	-1.536582	0.091137	-0.000567	-0.017754	0.999956	-0.004898	0.001704	-0.007683	
22765	    0	9.454624	-0.427926	-1.313565	-0.925459	0.406843	-1.535056	0.094482	-0.005066	-0.013306	0.999957	-0.004627	0.002034	-0.007675	
22766	    0	9.673020	-1.091886	-1.138126	-0.780498	0.471122	-1.558325	0.096614	-0.011717	-0.011564	0.999959	-0.003902	0.002356	-0.007792	
22767	    0	9.088515	-1.871140	-1.571861	-0.602539	0.459295	-1.567097	0.090698	-0.019470	-0.015869	0.999962	-0.003013	0.002296	-0.007835	
22768	    0	8.346707	-2.745185	-2.350138	-0.484854	0.393872	-1.563472	0.083202	-0.028160	-0.023598	0.999964	-0.002424	0.001969	-0.007817	
22769	    0	8.418884	-4.427961	-2.748845	-0.466924	0.340465	-1.522844	0.083801	-0.044983	-0.027527	0.999967	-0.002335	0.001702	-0.007614	
22770	    0	9.048216	-5.900856	-2.675670	-0.354198	0.268748	-1.496330	0.090001	-0.059731	-0.026772	0.999969	-0.001771	0.001344	-0.007482	
22771	    0	10.254589	-6.104522	-2.407144	-0.161745	0.290111	-1.494613	0.102051	-0.061829	-0.024170	0.999970	-0.000809	0.001451	-0.007473	
22772	    0	10.746592	-6.560831	-2.265940	-0.033951	0.303843	-1.407635	0.106966	-0.066366	-0.022811	0.999973	-0.000170	0.001519	-0.007038	
22773	    0	10.402387	-7.577123	-2.113352	0.029183	0.302126	-1.249703	0.103516	-0.076416	-0.021301	0.999979	0.000146	0.001511	-0.006248	
22774	    0	9.501196	-8.961993	-2.697146	-0.000954	0.261499	-0.975994	0.094538	-0.090082	-0.027095	0.999987	-0.000005	0.001307	-0.004880	
22775	    0	9.019569	-9.400799	-3.264704	0.019074	0.266457	-0.654603	0.089844	-0.094299	-0.032776	0.999993	0.000095	0.001332	-0.003273	
22776	    0	9.079732	-9.250466	-3.445070	0.066185	0.382233	-0.273133	0.090605	-0.092617	-0.034655	0.999997	0.000331	0.001911	-0.001366	
22777	    0	9.905035	-7.356981	-2.389359	-0.122833	0.525857	0.198365	0.099060	-0.073486	-0.024109	0.999995	-0.000614	0.002629	0.000992	
22778	    0	12.017589	-7.530647	-0.871502	-0.804143	0.537113	0.775533	0.120443	-0.074875	-0.008737	0.999980	-0.004021	0.002686	0.003878	
22779	    0	13.949831	-10.019513	-0.193418	-1.562529	0.615894	1.292444	0.140137	-0.099304	-0.001587	0.999944	-0.007812	0.003079	0.006462	
22780	    0	14.004988	-7.658149	0.053028	-1.817182	0.764487	1.695108	0.140695	-0.075385	0.000682	0.999915	-0.009086	0.003822	0.008475	
22781	    0	13.457117	-8.516241	-0.160994	-1.935651	0.719670	2.214135	0.135498	-0.083679	-0.001282	0.999885	-0.009678	0.003598	0.011070	
22782	    0	14.464007	-8.144420	-1.802517	-1.501335	0.510236	2.687945	0.145673	-0.079625	-0.017794	0.999878	-0.007506	0.002551	0.013439	
22783	    0	16.793091	-5.044369	-5.378943	-0.315677	0.215920	2.890117	0.168579	-0.048096	-0.053894	0.999893	-0.001578	0.001080	0.014450	
22784	    0	19.016923	-1.624450	-7.678617	0.512142	0.074771	2.933992	0.190350	-0.013256	-0.076894	0.999888	0.002561	0.000374	0.014669	
22785	    0	22.077657	2.453438	-9.050342	0.646424	-0.021363	2.891646	0.220398	0.028015	-0.090393	0.999889	0.003232	-0.000107	0.014458	
22786	    0	21.229053	6.351317	-9.211951	0.547236	-0.068476	2.760215	0.211416	0.066687	-0.091867	0.999901	0.002736	-0.000342	0.013801	
22787	    0	19.060290	6.971555	-8.664521	0.230606	-0.144200	2.707756	0.189697	0.072388	-0.086426	0.999907	0.001153	-0.000721	0.013538	
22788	    0	17.820904	5.827217	-6.989434	-0.127224	-0.357830	2.744572	0.177512	0.060667	-0.069614	0.999904	-0.000636	-0.001789	0.013722	
22789	    0	16.413052	4.994362	-4.608644	-0.253877	-0.458542	2.809239	0.163513	0.052185	-0.045776	0.999897	-0.001269	-0.002293	0.014046	
22790	    0	14.595764	5.135048	-2.462122	0.044824	-0.640700	2.769945	0.145306	0.053371	-0.024143	0.999899	0.000224	-0.003203	0.013849	
22791	    0	12.911315	5.424942	-2.010478	0.485436	-0.872068	2.598656	0.128479	0.055969	-0.019409	0.999903	0.002427	-0.004360	0.012993	
22792	    0	11.684431	5.901318	-1.857016	0.897056	-1.091040	2.440533	0.116210	0.060514	-0.017666	0.999900	0.004485	-0.005455	0.012202	
22793	    0	10.836874	6.343472	-1.862661	1.364949	-1.241921	2.339259	0.107727	0.064819	-0.017517	0.999888	0.006824	-0.006209	0.011696	
22794	    0	10.397965	6.680480	-1.701957	1.882254	-1.295528	2.285675	0.103311	0.068140	-0.015712	0.999869	0.009411	-0.006477	0.011428	
22795	    0	10.086505	6.705838	-1.016814	2.366187	-1.268833	2.253076	0.100159	0.068298	-0.008728	0.999846	0.011830	-0.006344	0.011265	
22796	    0	9.582787	6.299621	-0.595352	2.773251	-1.170034	2.129485	0.095179	0.064081	-0.004512	0.999829	0.013865	-0.005850	0.010647	
22797	    0	8.297028	6.152916	-0.205945	3.062045	-1.060548	1.865496	0.082397	0.062317	-0.000671	0.999825	0.015309	-0.005302	0.009327	
22798	    0	6.804071	6.762319	-0.207043	3.173433	-0.920728	1.566402	0.067513	0.068172	-0.000680	0.999832	0.015866	-0.004603	0.007832	
22799	    0	6.079632	7.279866	-0.280985	3.029971	-0.785866	1.371069	0.060303	0.073242	-0.001465	0.999853	0.015149	-0.003929	0.006855	
22800	    0	5.762619	8.249023	-0.771503	2.541251	-0.738170	1.248786	0.057135	0.082935	-0.006452	0.999892	0.012706	-0.003691	0.006244	
22801	    0	5.592449	9.337617	-1.188263	2.004482	-0.725573	1.163511	0.055420	0.093811	-0.010742	0.999926	0.010022	-0.003628	0.005817	
22802	    0	5.621516	10.067491	-1.500672	1.512744	-0.750936	1.098461	0.055715	0.101090	-0.014033	0.999949	0.007564	-0.003755	0.005492	
22803	    0	5.473796	10.811575	-1.084010	1.004231	-0.828562	1.073469	0.054199	0.108459	-0.010071	0.999964	0.005021	-0.004143	0.005367	
22804	    0	5.371353	11.158940	0.208769	0.585370	-0.882728	0.949486	0.053172	0.111835	0.002650	0.999974	0.002927	-0.004414	0.004747	
22805	    0	4.856418	10.223829	1.497438	0.104714	-0.956732	0.773626	0.048096	0.102417	0.015259	0.999981	0.000524	-0.004784	0.003868	
22806	    0	4.187271	9.055907	1.922698	-0.733191	-1.007088	0.661665	0.041476	0.090767	0.019104	0.999974	-0.003666	-0.005035	0.003308	
22807	    0	3.626445	8.623581	2.124627	-1.509687	-0.875867	0.516517	0.035950	0.086487	0.020752	0.999958	-0.007548	-0.004379	0.002583	
22808	    0	3.906458	8.295618	2.486810	-1.436820	-0.450139	0.241663	0.038909	0.083179	0.024359	0.999970	-0.007184	-0.002251	0.001208	
22809	    0	5.135213	5.712186	6.362476	-0.500298	0.019836	-0.115967	0.051392	0.057251	0.063477	0.999996	-0.002501	0.000099	-0.000580	
22810	    0	6.593058	2.902919	5.605302	-0.671198	0.033379	-0.373841	0.065994	0.029094	0.055944	0.999992	-0.003356	0.000167	-0.001869	
22811	    0	6.405511	3.428029	0.908064	-0.984770	-0.376894	-0.643162	0.064148	0.034119	0.009033	0.999981	-0.004924	-0.001884	-0.003216	
22812	    0	6.405563	3.822093	-4.423492	-1.717981	-0.961703	-0.765433	0.064413	0.037595	-0.044250	0.999944	-0.008590	-0.004808	-0.003827	
22813	    0	8.685600	1.016491	-7.752970	-2.529992	-1.004634	-0.772883	0.087280	0.008850	-0.077209	0.999900	-0.012650	-0.005023	-0.003864	
22814	    0	11.899901	-6.358775	-9.676707	-3.307886	-0.545528	-0.736082	0.119021	-0.065611	-0.095368	0.999852	-0.016539	-0.002728	-0.003680	
22815	    0	10.628495	-16.662412	-8.421922	-2.871047	-0.162321	-0.762205	0.105713	-0.168213	-0.081726	0.999888	-0.014355	-0.000812	-0.003811	
22816	    0	9.046495	-26.354833	-6.028513	-0.751307	-0.186921	-0.437929	0.089943	-0.263969	-0.059210	0.999990	-0.003757	-0.000935	-0.002190	
22817	    0	11.658767	-26.084487	-8.563384	0.453950	-0.388909	0.051117	0.116821	-0.260620	-0.085999	0.999995	0.002270	-0.001945	0.000256	
22818	    0	11.585094	-17.141771	-9.906062	1.066977	0.292970	0.247384	0.115916	-0.170742	-0.100142	0.999984	0.005335	0.001465	0.001237	
22819	    0	9.169423	-8.669993	-6.258647	2.095085	1.306377	0.210577	0.091370	-0.085938	-0.064087	0.999923	0.010475	0.006532	0.001053	
22820	    0	9.288232	-1.789111	-0.002469	2.633002	1.415496	0.025941	0.092880	-0.017871	-0.000917	0.999887	0.013165	0.007077	0.000130	
22821	    0	13.861964	9.426577	3.366755	2.925993	1.062246	-0.376145	0.138977	0.093506	0.034302	0.999877	0.014629	0.005311	-0.001881	
22822	    0	17.520400	9.449683	1.258824	2.120825	0.188259	-0.659956	0.175527	0.093779	0.013420	0.999937	0.010604	0.000941	-0.003300	
22823	    0	19.470439	-15.772388	-1.864424	0.647169	-0.933082	-0.805671	0.194153	-0.158447	-0.018250	0.999975	0.003236	-0.004665	-0.004028	
22824	    0	19.021090	-15.056928	-7.437514	1.821938	-0.782220	-1.103234	0.189672	-0.150935	-0.075006	0.999935	0.009109	-0.003911	-0.005516	
22825	    0	15.219055	11.541214	0.163014	3.681600	0.669902	-0.888116	0.152710	0.114685	0.003235	0.999815	0.018407	0.003349	-0.004440	
22826	    0	10.254990	22.416376	6.559794	1.688223	0.672733	-0.882164	0.103760	0.223145	0.067137	0.999949	0.008441	0.003364	-0.004411	
22827	    0	9.153765	13.787730	1.992070	-0.669101	0.110817	-0.804142	0.092102	0.137573	0.019409	0.999986	-0.003345	0.000554	-0.004021	
22828	    0	8.923185	3.463730	-3.470479	-0.626185	0.044251	-0.831989	0.089367	0.034157	-0.034832	0.999986	-0.003131	0.000221	-0.004160	
22829	    0	7.107922	8.165962	-4.203103	-0.581935	0.083161	-1.009375	0.071472	0.081177	-0.042297	0.999983	-0.002910	0.000416	-0.005047	
22830	    0	7.431031	10.414819	-5.645805	-0.609974	-0.006104	-1.083000	0.074874	0.103571	-0.056772	0.999980	-0.003050	-0.000031	-0.005415	
22831	    0	9.675952	7.212000	-7.280756	-0.622373	-0.066376	-1.244364	0.097229	0.071289	-0.072998	0.999975	-0.003112	-0.000332	-0.006222	
22832	    0	11.323983	4.845367	-9.024863	-0.601394	-0.050355	-1.501672	0.113621	0.047330	-0.090364	0.999967	-0.003007	-0.000252	-0.007508	
22833	    0	10.858630	3.977743	-8.478340	-0.813305	-0.076867	-1.689173	0.108948	0.038513	-0.084900	0.999955	-0.004066	-0.000384	-0.008446	
22834	    0	10.778611	3.919631	-5.677632	-1.008433	-0.104334	-1.794847	0.108160	0.037940	-0.056913	0.999947	-0.005042	-0.000522	-0.008974	
22835	    0	11.033484	3.485823	-2.866326	-1.166557	-0.096704	-1.807438	0.110657	0.033691	-0.028809	0.999942	-0.005833	-0.000484	-0.009037	
22836	    0	10.716529	2.832133	-1.295793	-1.316862	-0.063898	-1.842538	0.107424	0.027246	-0.013105	0.999935	-0.006584	-0.000319	-0.009212	
22837	    0	10.449496	3.399415	-0.369198	-1.186966	0.031281	-1.817357	0.104797	0.033020	-0.003906	0.999941	-0.005935	0.000156	-0.009087	
22838	    0	10.798222	3.272352	-0.603931	-1.110670	0.070001	-1.807437	0.108270	0.031712	-0.006255	0.999943	-0.005553	0.000350	-0.009037	
22839	    0	10.783383	2.380332	-1.329869	-1.130697	0.110056	-1.780734	0.108032	0.022766	-0.013489	0.999944	-0.005653	0.000550	-0.008904	
22840	    0	10.488043	1.584042	-1.694100	-1.164458	0.180820	-1.749453	0.104998	0.014823	-0.017124	0.999944	-0.005822	0.000904	-0.008747	
22841	    0	10.030223	0.801051	-2.120666	-1.223015	0.220684	-1.716646	0.100342	0.007019	-0.021362	0.999944	-0.006115	0.001103	-0.008583	
22842	    0	9.298759	-0.075086	-2.847856	-1.360538	0.229840	-1.662096	0.092943	-0.001718	-0.028576	0.999941	-0.006803	0.001149	-0.008310	
22843	    0	8.755521	-1.365240	-3.198176	-1.459532	0.239758	-1.604494	0.087402	-0.014587	-0.031982	0.999940	-0.007298	0.001199	-0.008022	
22844	    0	8.115807	-2.158866	-3.187820	-1.270506	0.213627	-1.531436	0.080955	-0.022411	-0.031824	0.999949	-0.006352	0.001068	-0.007657	
22845	    0	7.773031	-1.785754	-3.249441	-0.908481	0.153353	-1.416032	0.077576	-0.018555	-0.032471	0.999964	-0.004542	0.000767	-0.007080	
22846	    0	8.012297	-1.580164	-2.738660	-0.774201	0.133325	-1.338400	0.079996	-0.016443	-0.027377	0.999969	-0.003871	0.000667	-0.006692	
22847	    0	8.078338	-1.156298	-2.374532	-0.800332	0.112344	-1.360335	0.080688	-0.012207	-0.023743	0.999969	-0.004002	0.000562	-0.006802	
22848	    0	8.261077	-0.139185	-2.307031	-0.720413	0.143053	-1.390853	0.082582	-0.002049	-0.023123	0.999969	-0.003602	0.000715	-0.006954	
22849	    0	8.687987	-0.011772	-1.814260	-0.652320	0.250437	-1.419082	0.086853	-0.000793	-0.018250	0.999969	-0.003262	0.001252	-0.007095	
22850	    0	8.853900	0.387622	-0.906662	-0.677498	0.326923	-1.436631	0.088549	0.003209	-0.009223	0.999967	-0.003387	0.001635	-0.007183	
22851	    0	8.882151	0.055423	-0.850052	-0.733193	0.374035	-1.451891	0.088806	-0.000122	-0.008667	0.999965	-0.003666	0.001870	-0.007259	
22852	    0	8.786851	-1.647461	-1.441163	-0.770006	0.381856	-1.472682	0.087716	-0.017177	-0.014514	0.999963	-0.003850	0.001909	-0.007363	
22853	    0	8.606092	-2.785931	-1.671842	-0.703439	0.386243	-1.504535	0.085815	-0.028564	-0.016785	0.999963	-0.003517	0.001931	-0.007523	
22854	    0	8.272793	-3.380017	-1.790958	-0.568015	0.299076	-1.489465	0.082446	-0.034466	-0.017936	0.999967	-0.002840	0.001495	-0.007447	
22855	    0	7.849893	-3.088857	-2.896483	-0.407413	0.231363	-1.395429	0.078247	-0.031494	-0.028992	0.999972	-0.002037	0.001157	-0.006977	
22856	    0	8.667215	-4.981042	-2.232520	-0.398639	0.144006	-1.278315	0.086335	-0.050407	-0.022287	0.999977	-0.001993	0.000720	-0.006392	
22857	    0	10.090334	-5.872270	-2.629182	-0.314905	0.092316	-1.238259	0.100525	-0.059387	-0.026245	0.999979	-0.001575	0.000462	-0.006191	
22858	    0	10.460890	-6.522135	-3.540896	-0.110436	0.155450	-1.195533	0.104189	-0.065865	-0.035454	0.999981	-0.000552	0.000777	-0.005978	
22859	    0	9.898395	-7.045725	-2.642220	0.035286	0.234224	-1.076513	0.098572	-0.070984	-0.026550	0.999985	0.000176	0.001171	-0.005383	
22860	    0	9.272688	-7.566306	-2.537843	0.060082	0.247193	-0.844577	0.092375	-0.076046	-0.025516	0.999990	0.000300	0.001236	-0.004223	
22861	    0	8.749416	-8.368619	-3.038236	0.043678	0.267792	-0.558473	0.087219	-0.083923	-0.030518	0.999994	0.000218	0.001339	-0.002792	
22862	    0	8.797060	-7.850714	-2.165616	-0.128174	0.363922	-0.231552	0.087840	-0.078623	-0.021766	0.999997	-0.000641	0.001820	-0.001158	
22863	    0	9.284807	-7.165812	-0.497103	-0.577547	0.518228	0.168610	0.092896	-0.071594	-0.005005	0.999991	-0.002888	0.002591	0.000843	
22864	    0	10.045757	-5.856980	0.449609	-1.108942	0.598722	0.606160	0.100648	-0.058240	0.004519	0.999975	-0.005545	0.002994	0.003031	
22865	    0	11.885196	-8.125439	-0.176852	-1.751552	0.473032	1.176476	0.119324	-0.080566	-0.001343	0.999941	-0.008758	0.002365	0.005882	
22866	    0	12.762924	-10.188976	-0.344948	-2.256851	0.469224	1.675853	0.128470	-0.100848	-0.002608	0.999898	-0.011284	0.002346	0.008379	
22867	    0	13.133839	-8.398223	-0.527795	-2.061349	0.514240	2.109606	0.132202	-0.082642	-0.004761	0.999887	-0.010306	0.002571	0.010548	
22868	    0	13.637250	-6.490763	-2.699714	-1.354266	0.461023	2.569100	0.137131	-0.063332	-0.026880	0.999891	-0.006771	0.002305	0.012845	
22869	    0	15.694227	-5.169598	-5.881434	-0.391974	0.232705	2.860360	0.157593	-0.049561	-0.058899	0.999895	-0.001960	0.001163	0.014301	
22870	    0	19.028317	-1.745065	-7.780028	0.296222	0.157744	2.996558	0.190454	-0.014482	-0.077973	0.999886	0.001481	0.000789	0.014982	
22871	    0	21.592180	2.743665	-8.316398	0.378623	0.077060	2.938187	0.215454	0.030762	-0.083191	0.999889	0.001893	0.000385	0.014690	
22872	    0	21.092311	6.911977	-8.100647	0.340474	-0.068285	2.888591	0.209922	0.072294	-0.080813	0.999894	0.001702	-0.000341	0.014442	
22873	    0	20.014244	7.349653	-8.615349	0.191695	-0.205238	2.844335	0.199158	0.076416	-0.085876	0.999897	0.000958	-0.001026	0.014221	
22874	    0	19.222883	5.685284	-7.261519	-0.182348	-0.396360	2.764411	0.191563	0.059438	-0.072289	0.999902	-0.000912	-0.001982	0.013822	
22875	    0	18.052558	5.433750	-4.148276	-0.495737	-0.537127	2.739044	0.179871	0.056702	-0.041138	0.999899	-0.002479	-0.002686	0.013695	
22876	    0	16.420282	5.867691	-2.176268	-0.269326	-0.721955	2.669039	0.163478	0.060833	-0.021253	0.999903	-0.001347	-0.003610	0.013345	
22877	    0	14.905783	6.094866	-1.241595	0.289354	-0.899533	2.558215	0.148315	0.062866	-0.011658	0.999907	0.001447	-0.004498	0.012791	
22878	    0	13.938234	6.211796	-1.285330	0.748087	-1.078450	2.476773	0.138664	0.063884	-0.011868	0.999902	0.003740	-0.005392	0.012383	
22879	    0	13.198553	6.474782	-1.551691	1.112596	-1.227613	2.397241	0.131287	0.066406	-0.014343	0.999893	0.005563	-0.006138	0.011986	
22880	    0	12.814714	6.245674	-1.307089	1.381736	-1.289989	2.350515	0.127480	0.064042	-0.011808	0.999886	0.006908	-0.006450	0.011752	
22881	    0	12.685893	5.717643	-0.495478	1.719926	-1.253560	2.282807	0.126221	0.058655	-0.003662	0.999878	0.008599	-0.006268	0.011414	
22882	    0	11.676034	5.683283	0.288334	2.161696	-1.166015	2.190498	0.116107	0.058066	0.004185	0.999865	0.010808	-0.005830	0.010952	
22883	    0	9.512696	6.250431	0.939718	2.547580	-1.015332	2.072246	0.094421	0.063354	0.010681	0.999852	0.012737	-0.005076	0.010361	
22884	    0	7.350477	7.055419	1.376694	2.641614	-0.873607	1.935479	0.072755	0.071068	0.015022	0.999856	0.013207	-0.004368	0.009677	
22885	    0	6.348840	7.499283	1.128641	2.489762	-0.723296	1.699897	0.062805	0.075378	0.012451	0.999880	0.012448	-0.003616	0.008499	
22886	    0	5.887963	7.650190	0.414267	2.245401	-0.552767	1.463173	0.058305	0.076876	0.005166	0.999906	0.011227	-0.002764	0.007316	
22887	    0	5.527610	8.196332	-0.241715	2.014401	-0.452434	1.293214	0.054749	0.082336	-0.001465	0.999926	0.010072	-0.002262	0.006466	
22888	    0	5.560904	8.712312	-0.451271	1.846162	-0.370033	1.228740	0.055079	0.087499	-0.003604	0.999936	0.009231	-0.001850	0.006144	
22889	    0	5.628356	9.521302	-0.538392	1.448081	-0.411803	1.190967	0.055725	0.095581	-0.004578	0.999953	0.007240	-0.002059	0.005955	
22890	    0	5.463939	10.146033	-0.867474	0.953493	-0.522809	1.095783	0.054104	0.101797	-0.008048	0.999969	0.004767	-0.002614	0.005479	
22891	    0	5.169545	10.303760	-0.532768	0.588993	-0.548366	0.852208	0.051270	0.103271	-0.004883	0.999982	0.002945	-0.002742	0.004261	
22892	    0	4.414899	9.112032	-0.517008	0.125313	-0.561144	0.699236	0.043844	0.091277	-0.004990	0.999990	0.000627	-0.002806	0.003496	
22893	    0	3.241250	9.084988	-0.508482	-0.857359	-0.642399	0.714879	0.032104	0.090942	-0.005371	0.999979	-0.004287	-0.003212	0.003574	
22894	    0	2.752155	7.870419	1.121428	-1.693752	-0.655375	0.617609	0.027243	0.078880	0.010636	0.999953	-0.008469	-0.003277	0.003088	
22895	    0	3.771654	5.373915	3.007466	-1.538674	-0.341801	0.251773	0.037598	0.054016	0.029724	0.999968	-0.007693	-0.001709	0.001259	
22896	    0	4.135324	2.682613	4.654922	-0.866511	-0.249482	-0.062371	0.041304	0.027015	0.046484	0.999990	-0.004333	-0.001247	-0.000312	
22897	    0	5.259444	0.975799	3.857842	-0.470544	-0.303650	-0.316620	0.052551	0.009766	0.038635	0.999994	-0.002353	-0.001518	-0.001583	
22898	    0	6.766129	0.354771	1.242469	-0.415612	-0.257302	-0.544740	0.067655	0.003389	0.012505	0.999992	-0.002078	-0.001287	-0.002724	
22899	    0	7.831585	0.584275	-2.778979	-0.699618	-0.253869	-0.644686	0.078369	0.005493	-0.027710	0.999988	-0.003498	-0.001269	-0.003223	
22900	    0	9.931263	-1.712131	-6.441388	-0.956160	-0.212861	-0.690846	0.099320	-0.017772	-0.064224	0.999982	-0.004781	-0.001064	-0.003454	
22901	    0	12.023748	-7.750611	-7.730783	-1.265537	0.049592	-0.727851	0.119934	-0.078430	-0.076843	0.999973	-0.006328	0.000248	-0.003639	
22902	    0	11.527753	-13.640031	-5.990560	-1.382270	0.392727	-0.612837	0.114741	-0.137163	-0.059185	0.999969	-0.006911	0.001964	-0.003064	
22903	    0	9.731136	-15.851024	-4.090360	-0.824741	0.322152	-0.405885	0.096924	-0.158875	-0.040405	0.999988	-0.004124	0.001611	-0.002029	
22904	    0	9.615893	-15.563413	-6.299113	-0.353813	0.069428	-0.191116	0.095988	-0.155837	-0.062749	0.999997	-0.001769	0.000347	-0.000956	
22905	    0	9.654880	-13.274083	-7.688752	0.065041	0.325012	-0.074005	0.096375	-0.132751	-0.077087	0.999998	0.000325	0.001625	-0.000370	
22906	    0	8.357375	-9.532174	-5.881553	0.824551	0.807385	-0.131036	0.083272	-0.095132	-0.059545	0.999983	0.004123	0.004037	-0.000655	
22907	    0	8.737396	-3.795252	-3.013249	1.680974	0.992600	-0.336462	0.087158	-0.037842	-0.030884	0.999950	0.008405	0.004963	-0.001682	
22908	    0	14.017834	4.962916	-0.896263	2.525028	0.876836	-0.677893	0.140306	0.049267	-0.008954	0.999905	0.012625	0.004384	-0.003389	
22909	    0	18.611849	6.983053	-1.961733	2.502708	0.381481	-0.920896	0.186401	0.069214	-0.019104	0.999908	0.012513	0.001907	-0.004604	
22910	    0	19.769082	-12.326070	-3.897919	1.551842	-0.408942	-0.980964	0.197165	-0.123923	-0.039536	0.999955	0.007759	-0.002045	-0.004905	
22911	    0	19.349695	-12.408617	-6.421320	2.365943	-0.199705	-1.111635	0.192871	-0.124390	-0.065491	0.999913	0.011829	-0.000998	-0.005558	
22912	    0	13.733122	10.361288	3.333126	3.570776	0.873429	-1.103850	0.138047	0.102242	0.034563	0.999815	0.017853	0.004367	-0.005519	
22913	    0	8.945397	18.306552	5.338213	1.548791	0.509842	-1.011673	0.090515	0.182190	0.054565	0.999953	0.007744	0.002549	-0.005058	
22914	    0	8.601237	16.030918	2.426245	-0.914008	0.094224	-0.924117	0.086763	0.160018	0.023490	0.999978	-0.004570	0.000471	-0.004621	
22915	    0	7.932947	6.978450	-2.487781	-1.084909	0.035286	-0.938424	0.079651	0.069275	-0.025269	0.999974	-0.005424	0.000176	-0.004692	
22916	    0	7.479212	5.783687	-5.834364	-0.704389	0.051499	-1.168069	0.075112	0.057193	-0.058565	0.999976	-0.003522	0.000257	-0.005840	
22917	    0	8.556980	8.460907	-5.881969	-0.574499	0.048256	-1.343548	0.086121	0.083862	-0.059082	0.999972	-0.002872	0.000241	-0.006718	
22918	    0	9.759604	7.397890	-7.219049	-0.264552	0.009728	-1.616115	0.098186	0.073092	-0.072292	0.999966	-0.001323	0.000049	-0.008080	
22919	    0	10.805196	4.512397	-8.324749	-0.255588	0.016213	-1.866940	0.108459	0.044006	-0.083313	0.999955	-0.001278	0.000081	-0.009335	
22920	    0	10.505234	4.175413	-7.477441	-0.675596	-0.033379	-2.022972	0.105478	0.040436	-0.074895	0.999943	-0.003378	-0.000167	-0.010115	
22921	    0	10.474304	4.549980	-5.296296	-1.025986	-0.057222	-2.092027	0.105225	0.044128	-0.053162	0.999931	-0.005130	-0.000286	-0.010460	
22922	    0	10.814389	3.096499	-2.394664	-1.088359	0.025178	-2.122548	0.108460	0.029684	-0.024124	0.999928	-0.005442	0.000126	-0.010612	
22923	    0	10.492153	2.469181	-1.437522	-1.296076	0.109103	-2.092033	0.105164	0.023499	-0.014587	0.999924	-0.006480	0.000546	-0.010460	
22924	    0	10.176985	2.101962	-0.684774	-1.478234	0.184064	-2.033287	0.101970	0.019932	-0.007092	0.999920	-0.007391	0.000920	-0.010166	
22925	    0	9.897008	1.086364	-0.891293	-1.312287	0.231367	-1.974534	0.099060	0.009827	-0.009094	0.999928	-0.006561	0.001157	-0.009872	
22926	    0	9.129606	-0.175301	-1.987720	-1.206806	0.260359	-1.938672	0.091247	-0.002758	-0.019981	0.999933	-0.006034	0.001302	-0.009693	
22927	    0	8.453829	-0.968082	-2.803997	-1.130699	0.223736	-1.848639	0.084412	-0.010620	-0.028076	0.999940	-0.005653	0.001119	-0.009243	
22928	    0	8.293589	-1.866326	-3.473166	-1.013773	0.197223	-1.758987	0.082732	-0.019567	-0.034716	0.999948	-0.005069	0.000986	-0.008795	
22929	    0	8.404008	-2.416518	-3.763020	-0.861371	0.176432	-1.662470	0.083801	-0.025024	-0.037598	0.999955	-0.004307	0.000882	-0.008312	
22930	    0	8.518663	-2.172261	-3.631893	-0.715264	0.159838	-1.545162	0.084986	-0.022510	-0.036307	0.999963	-0.003576	0.000799	-0.007726	
22931	    0	8.846339	-1.653020	-3.301355	-0.637824	0.137521	-1.442734	0.088318	-0.017273	-0.033020	0.999969	-0.003189	0.000688	-0.007214	
22932	    0	9.071871	-1.163869	-2.573912	-0.549512	0.158693	-1.356519	0.090616	-0.012324	-0.025778	0.999972	-0.002748	0.000793	-0.006783	
22933	    0	9.307009	-0.403426	-2.127299	-0.405887	0.211527	-1.337444	0.093018	-0.004700	-0.021362	0.999974	-0.002029	0.001058	-0.006687	
22934	    0	9.435525	0.332358	-1.192586	-0.413326	0.274088	-1.366437	0.094358	0.002654	-0.012061	0.999973	-0.002067	0.001370	-0.006832	
22935	    0	9.466832	1.032612	-0.715608	-0.420193	0.311282	-1.409162	0.094727	0.009644	-0.007324	0.999971	-0.002101	0.001556	-0.007046	
22936	    0	9.506568	0.957825	-0.657320	-0.468831	0.327114	-1.442161	0.095120	0.008877	-0.006750	0.999969	-0.002344	0.001636	-0.007211	
22937	    0	9.588891	0.164031	-0.648671	-0.514799	0.340275	-1.476304	0.095886	0.000916	-0.006653	0.999968	-0.002574	0.001701	-0.007381	
22938	    0	9.801806	0.122317	-1.090186	-0.442700	0.363735	-1.494614	0.098003	0.000466	-0.011082	0.999968	-0.002213	0.001819	-0.007473	
22939	    0	10.125140	-0.368049	-1.251132	-0.399784	0.380139	-1.481644	0.101196	-0.004456	-0.012695	0.999969	-0.001999	0.001901	-0.007408	
22940	    0	9.834701	-1.812185	-1.334275	-0.398640	0.396160	-1.488701	0.098182	-0.018880	-0.013500	0.999968	-0.001993	0.001981	-0.007443	
22941	    0	9.249304	-3.956031	-1.405399	-0.352291	0.383000	-1.512925	0.092163	-0.040283	-0.014160	0.999968	-0.001761	0.001915	-0.007565	
22942	    0	8.623037	-5.159264	-1.489476	-0.193026	0.353626	-1.482406	0.085818	-0.052244	-0.014997	0.999970	-0.000965	0.001768	-0.007412	
22943	    0	9.010457	-5.475776	-1.327332	-0.132752	0.289347	-1.318369	0.089722	-0.055359	-0.013367	0.999976	-0.000664	0.001447	-0.006592	
22944	    0	9.702722	-6.333984	-1.678674	-0.323488	0.190927	-1.091582	0.096663	-0.063895	-0.016776	0.999983	-0.001617	0.000955	-0.005458	
22945	    0	9.655596	-7.733253	-2.580191	-0.460627	0.151063	-0.888828	0.096191	-0.077820	-0.025696	0.999987	-0.002303	0.000755	-0.004444	
22946	    0	9.316974	-9.440493	-3.487454	-0.341416	0.155640	-0.687410	0.092817	-0.094784	-0.034785	0.999991	-0.001707	0.000778	-0.003437	
22947	    0	9.176033	-9.663241	-3.808657	-0.044823	0.179291	-0.484467	0.091492	-0.096863	-0.038147	0.999996	-0.000224	0.000896	-0.002422	
22948	    0	9.361902	-9.590995	-3.686658	0.162125	0.220299	-0.186730	0.093489	-0.095967	-0.037047	0.999998	0.000811	0.001101	-0.000934	
22949	    0	9.737282	-8.808710	-3.431114	0.193024	0.307656	0.209809	0.097412	-0.087952	-0.034546	0.999997	0.000965	0.001538	0.001049	
22950	    0	11.529702	-7.178471	-2.047289	-0.272370	0.434114	0.733759	0.115515	-0.071389	-0.020626	0.999990	-0.001362	0.002171	0.003669	
22951	    0	13.439431	-8.706854	-0.427476	-1.112952	0.621040	1.170364	0.134888	-0.086304	-0.004211	0.999962	-0.005565	0.003105	0.005852	
22952	    0	13.135775	-8.193073	-0.814798	-1.408415	0.651755	1.605258	0.131984	-0.080930	-0.008005	0.999937	-0.007042	0.003259	0.008026	
22953	    0	12.476996	-7.155911	-1.677032	-1.281774	0.551811	2.161467	0.125488	-0.070312	-0.016663	0.999917	-0.006409	0.002759	0.010807	
22954	    0	13.221703	-8.161668	-4.551362	-0.639555	0.273332	2.723402	0.133251	-0.079952	-0.045438	0.999901	-0.003198	0.001367	0.013617	
22955	    0	14.833478	-4.545480	-6.098605	0.318349	0.054171	3.047299	0.148987	-0.043091	-0.061096	0.999882	0.001592	0.000271	0.015236	
22956	    0	19.069893	0.593114	-5.914080	0.669889	-0.036432	3.100907	0.190585	0.009085	-0.059079	0.999874	0.003349	-0.000182	0.015504	
22957	    0	21.919316	5.607736	-5.987620	0.215156	-0.278292	2.856544	0.218445	0.059265	-0.059509	0.999896	0.001076	-0.001391	0.014282	
22958	    0	20.034324	9.585831	-6.275693	-0.338185	-0.385870	2.842620	0.199076	0.098588	-0.062537	0.999895	-0.001691	-0.001929	0.014213	
22959	    0	19.241615	9.825996	-5.735300	-0.879512	-0.437944	2.883260	0.191101	0.100769	-0.057373	0.999884	-0.004397	-0.002190	0.014416	
22960	    0	18.307775	8.805415	-4.513010	-1.089139	-0.523207	2.844924	0.181921	0.090402	-0.045141	0.999880	-0.005445	-0.002616	0.014224	
22961	    0	16.548796	6.902514	-1.997583	-0.866733	-0.688007	2.850453	0.164551	0.071289	-0.019714	0.999883	-0.004333	-0.003440	0.014252	
22962	    0	14.556182	5.263843	-0.054897	-0.334371	-0.949704	2.799137	0.144807	0.054668	0.000050	0.999889	-0.001672	-0.004748	0.013995	
22963	    0	13.613971	4.452159	0.156259	0.221261	-1.130527	2.752025	0.135498	0.046387	0.002380	0.999888	0.001106	-0.005652	0.013760	
22964	    0	13.022511	4.116844	-0.367608	0.708797	-1.243066	2.635482	0.129686	0.042891	-0.002719	0.999887	0.003544	-0.006215	0.013177	
22965	    0	12.246728	4.556392	-0.913646	1.175735	-1.319745	2.465915	0.121948	0.047119	-0.008057	0.999885	0.005878	-0.006598	0.012329	
22966	    0	11.625570	5.200850	-1.240060	1.604336	-1.340348	2.306459	0.115723	0.053438	-0.011199	0.999878	0.008021	-0.006701	0.011532	
22967	    0	11.255005	5.433024	-1.522043	2.108857	-1.286945	2.107331	0.112061	0.055664	-0.013916	0.999867	0.010544	-0.006434	0.010536	
22968	    0	9.973070	5.657187	-1.313343	2.573522	-1.220191	1.941586	0.099249	0.057694	-0.011789	0.999851	0.012867	-0.006101	0.009707	
22969	    0	7.833530	6.599017	-0.911466	2.738331	-1.159537	1.875402	0.077759	0.066833	-0.007751	0.999845	0.013691	-0.005797	0.009377	
22970	    0	6.958790	7.080801	-0.764767	2.747480	-1.031926	1.789372	0.068985	0.071520	-0.006311	0.999852	0.013737	-0.005159	0.008946	
22971	    0	6.401137	6.874954	-0.979953	2.594869	-0.929873	1.667095	0.063477	0.069397	-0.008606	0.999869	0.012974	-0.004649	0.008335	
22972	    0	5.934995	7.413536	-0.140705	2.321709	-0.847847	1.605855	0.058755	0.074616	-0.000293	0.999891	0.011608	-0.004239	0.008029	
22973	    0	6.056733	8.007849	0.304596	1.829768	-0.821708	1.532023	0.059937	0.080505	0.004028	0.999920	0.009149	-0.004108	0.007660	
22974	    0	6.182806	8.794235	0.613708	1.265549	-0.905816	1.404788	0.061178	0.088331	0.006973	0.999945	0.006328	-0.004529	0.007024	
22975	    0	6.158966	9.188680	1.063341	0.667008	-0.947582	1.223006	0.060974	0.092224	0.011230	0.999964	0.003335	-0.004738	0.006115	
22976	    0	6.164914	8.869986	1.407089	0.095559	-0.918205	1.066217	0.061110	0.089020	0.014395	0.999974	0.000478	-0.004591	0.005331	
22977	    0	5.871447	8.927808	1.429408	-0.290682	-0.822263	0.820165	0.058289	0.089539	0.014404	0.999982	-0.001453	-0.004111	0.004101	
22978	    0	4.801013	9.614049	1.066339	-0.783543	-0.686650	0.587276	0.047691	0.096322	0.010450	0.999982	-0.003918	-0.003433	0.002936	
22979	    0	4.357526	8.420799	1.374737	-1.515216	-0.627716	0.469976	0.043335	0.084412	0.013245	0.999963	-0.007576	-0.003139	0.002350	
22980	    0	4.789477	5.916509	2.849219	-1.698516	-0.357060	0.293926	0.047757	0.059475	0.028073	0.999961	-0.008492	-0.001785	0.001470	
22981	    0	5.083859	4.259436	4.540583	-1.303110	0.086404	0.074006	0.050842	0.042908	0.045105	0.999978	-0.006516	0.000432	0.000370	
22982	    0	5.529589	2.901869	3.346282	-1.487173	-0.079919	-0.052453	0.055290	0.029252	0.033268	0.999971	-0.007436	-0.000400	-0.000262	
22983	    0	5.742167	2.254156	0.397541	-1.623364	-0.395970	-0.179293	0.057434	0.022522	0.003906	0.999964	-0.008117	-0.001980	-0.000896	
22984	    0	5.969369	0.904458	-3.396373	-2.166412	-0.475130	-0.285727	0.059787	0.008592	-0.033916	0.999937	-0.010832	-0.002376	-0.001429	
22985	    0	7.330039	-3.969234	-5.525597	-2.891651	-0.791771	-0.453966	0.073425	-0.040649	-0.054382	0.999885	-0.014458	-0.003959	-0.002270	
22986	    0	10.364590	-12.618632	-7.600031	-2.867047	-0.805123	-0.648333	0.103534	-0.127590	-0.073761	0.999884	-0.014335	-0.004025	-0.003242	
22987	    0	10.684777	-21.242037	-7.254078	-1.139649	-0.072480	-0.574497	0.106262	-0.213135	-0.071289	0.999979	-0.005698	-0.000362	-0.002872	
22988	    0	10.727857	-23.742733	-6.644967	0.897792	0.289537	-0.178147	0.106970	-0.237221	-0.067670	0.999988	0.004489	0.001448	-0.000891	
22989	    0	11.361155	-18.623679	-8.003430	1.667043	0.360303	0.130464	0.113586	-0.185486	-0.081787	0.999963	0.008335	0.001801	0.000652	
22990	    0	10.941694	-11.102653	-7.817416	2.107670	1.101329	0.211149	0.109097	-0.110075	-0.079939	0.999928	0.010538	0.005507	0.001056	
22991	    0	9.049279	-4.836879	-2.686414	2.295184	1.460311	0.171667	0.090332	-0.047974	-0.028076	0.999907	0.011476	0.007301	0.000858	
22992	    0	9.465873	1.157291	0.521931	2.105189	1.058222	0.023652	0.094684	0.011532	0.004840	0.999930	0.010526	0.005291	0.000118	
22993	    0	11.763619	15.705400	2.086731	2.171565	0.701920	-0.342567	0.117981	0.156616	0.022156	0.999933	0.010858	0.003510	-0.001713	
22994	    0	14.751521	12.736934	1.376702	1.252184	0.216104	-0.382617	0.147774	0.126998	0.014403	0.999977	0.006261	0.001081	-0.001913	
22995	    0	19.011875	-13.099517	-4.689894	-0.507357	-0.830654	-0.376131	0.190063	-0.131470	-0.045776	0.999986	-0.002537	-0.004153	-0.001881	
22996	    0	18.073105	-16.915220	-11.878607	0.984964	-0.818069	-0.694472	0.180630	-0.169194	-0.118880	0.999973	0.004925	-0.004090	-0.003472	
22997	    0	15.734570	9.653048	1.376728	2.422398	0.125316	-0.749990	0.157715	0.095764	0.014832	0.999919	0.012112	0.000627	-0.003750	
22998	    0	13.165041	19.702037	5.895499	0.621417	0.151826	-0.748447	0.132431	0.196342	0.059465	0.999988	0.003107	0.000759	-0.003742	
22999	    0	12.225269	10.168070	4.172818	-0.509454	0.143433	-0.664522	0.122620	0.101379	0.041382	0.999990	-0.002547	0.000717	-0.003323	
23000	    0	9.892899	4.332342	-0.685349	-0.073433	0.194550	-0.786211	0.099092	0.042932	-0.006966	0.999991	-0.000367	0.000973	-0.003931	
23001	    0	8.497000	10.397655	-3.147507	0.138283	0.212861	-0.988774	0.085449	0.103577	-0.031494	0.999987	0.000691	0.001064	-0.004944	
23002	    0	9.018481	9.795544	-5.006065	-0.235177	0.129128	-1.122672	0.090700	0.097388	-0.050234	0.999983	-0.001176	0.000646	-0.005613	
23003	    0	11.090582	7.087394	-7.677802	-0.189020	0.107575	-1.318369	0.111328	0.070068	-0.076904	0.999977	-0.000945	0.000538	-0.006592	
23004	    0	11.480905	4.521937	-9.806031	-0.120164	0.060082	-1.587122	0.115133	0.044248	-0.098122	0.999968	-0.000601	0.000300	-0.007936	
23005	    0	10.615041	4.762904	-9.363310	-0.526436	-0.012016	-1.756311	0.106567	0.046448	-0.093750	0.999957	-0.002632	-0.000060	-0.008781	
23006	    0	10.630821	4.971218	-7.122905	-1.083013	-0.021744	-1.847302	0.106767	0.048341	-0.071482	0.999942	-0.005415	-0.000109	-0.009236	
23007	    0	10.465187	4.188258	-4.656158	-1.538887	-0.003624	-1.897478	0.105042	0.040527	-0.046875	0.999925	-0.007694	-0.000018	-0.009487	
23008	    0	9.806900	3.661884	-2.641147	-1.790098	0.054933	-1.931819	0.098408	0.035431	-0.026759	0.999913	-0.008950	0.000275	-0.009659	
23009	    0	9.571195	2.622144	-1.636935	-1.917325	0.101665	-1.911222	0.095947	0.025146	-0.016663	0.999907	-0.009586	0.000508	-0.009556	
23010	    0	9.756727	1.204384	-1.456373	-1.943074	0.105861	-1.839120	0.097664	0.011003	-0.014726	0.999910	-0.009715	0.000529	-0.009195	
23011	    0	9.785138	0.091323	-1.884642	-1.851514	0.148014	-1.758623	0.097839	-0.000122	-0.018921	0.999918	-0.009257	0.000740	-0.008793	
23012	    0	9.468085	-0.665457	-2.013920	-1.652374	0.174717	-1.664009	0.094603	-0.007608	-0.020162	0.999930	-0.008262	0.000874	-0.008320	
23013	    0	9.261155	-1.408254	-2.668921	-1.497680	0.201611	-1.583131	0.092468	-0.015015	-0.026672	0.999940	-0.007488	0.001008	-0.007915	
23014	    0	8.941225	-1.742928	-3.106513	-1.442364	0.267415	-1.512746	0.089234	-0.018329	-0.031054	0.999944	-0.007212	0.001337	-0.007564	
23015	    0	8.631893	-1.959197	-3.155965	-1.431300	0.324446	-1.459529	0.086121	-0.020447	-0.031555	0.999946	-0.007156	0.001622	-0.007298	
23016	    0	8.225604	-2.223799	-2.777931	-1.320670	0.382811	-1.424813	0.082041	-0.023006	-0.027786	0.999950	-0.006603	0.001914	-0.007124	
23017	    0	7.847789	-2.549829	-2.446371	-1.123826	0.401503	-1.400014	0.078247	-0.026184	-0.024475	0.999957	-0.005619	0.002007	-0.007000	
23018	    0	7.762441	-2.540776	-2.852424	-0.848398	0.364689	-1.383797	0.077394	-0.026065	-0.028556	0.999965	-0.004242	0.001823	-0.006919	
23019	    0	7.868094	-2.199263	-2.611958	-0.572973	0.327495	-1.312268	0.078491	-0.022583	-0.026184	0.999972	-0.002865	0.001637	-0.006561	
23020	    0	8.234148	-1.250049	-2.253682	-0.403598	0.307658	-1.285563	0.082224	-0.013075	-0.022637	0.999975	-0.002018	0.001538	-0.006428	
23021	    0	8.605955	-0.371734	-2.227892	-0.342563	0.297740	-1.343548	0.085999	-0.004333	-0.022400	0.999974	-0.001713	0.001489	-0.006718	
23022	    0	8.773559	0.377609	-1.806741	-0.320819	0.346378	-1.400007	0.087728	0.003133	-0.018225	0.999972	-0.001604	0.001732	-0.007000	
23023	    0	8.891950	0.609870	-1.481438	-0.172235	0.439457	-1.470199	0.088928	0.005432	-0.015015	0.999969	-0.000861	0.002197	-0.007351	
23024	    0	8.589092	0.258411	-1.582478	-0.046731	0.499731	-1.585216	0.085868	0.001900	-0.016040	0.999965	-0.000234	0.002499	-0.007926	
23025	    0	8.398346	-0.834904	-1.900988	0.001526	0.515181	-1.631184	0.083862	-0.009033	-0.019226	0.999963	0.000008	0.002576	-0.008156	
23026	    0	8.844109	-1.185915	-2.134747	0.038338	0.520522	-1.690887	0.088281	-0.012602	-0.021580	0.999960	0.000192	0.002603	-0.008454	
23027	    0	9.270657	-1.977332	-2.355487	0.022888	0.532730	-1.725030	0.092468	-0.020569	-0.023804	0.999959	0.000114	0.002664	-0.008625	
23028	    0	9.456736	-2.796719	-2.243108	0.059510	0.524337	-1.738954	0.094260	-0.028781	-0.022687	0.999958	0.000298	0.002622	-0.008695	
23029	    0	9.835460	-3.959377	-2.281035	0.069619	0.503546	-1.670859	0.097961	-0.040405	-0.023071	0.999962	0.000348	0.002518	-0.008354	
23030	    0	10.226570	-4.545630	-2.325911	0.052071	0.459104	-1.539056	0.101858	-0.046235	-0.023505	0.999968	0.000260	0.002295	-0.007695	
23031	    0	10.305454	-4.976948	-2.519557	-0.012207	0.385478	-1.371777	0.102661	-0.050476	-0.025391	0.999974	-0.000061	0.001927	-0.006859	
23032	    0	9.995184	-5.976075	-2.507264	-0.081444	0.304415	-1.150901	0.099567	-0.060345	-0.025200	0.999982	-0.000407	0.001522	-0.005754	
23033	    0	9.581100	-6.963252	-2.692121	0.012398	0.236512	-0.915531	0.095459	-0.070068	-0.027039	0.999989	0.000062	0.001183	-0.004578	
23034	    0	9.752226	-7.501135	-2.846066	0.220108	0.182343	-0.634576	0.097258	-0.075289	-0.028632	0.999993	0.001101	0.000912	-0.003173	
23035	    0	10.268681	-7.433399	-2.763163	0.297737	0.174713	-0.331879	0.102539	-0.074463	-0.027832	0.999996	0.001489	0.000874	-0.001659	
23036	    0	10.967391	-6.805160	-2.868641	0.158501	0.185394	0.012779	0.109652	-0.068022	-0.028842	0.999999	0.000793	0.000927	0.000064	
23037	    0	12.223283	-6.294928	-3.207517	-0.331688	0.318146	0.422669	0.122314	-0.062744	-0.032166	0.999994	-0.001658	0.001591	0.002113	
23038	    0	13.421575	-9.681240	-2.129804	-1.095209	0.538640	0.807006	0.134548	-0.096386	-0.021132	0.999972	-0.005476	0.002693	0.004035	
23039	    0	13.278483	-11.149612	-1.578620	-1.420617	0.667011	1.242849	0.133423	-0.110779	-0.015442	0.999949	-0.007103	0.003335	0.006214	
23040	    0	12.465901	-11.530943	-0.870059	-1.503982	0.700777	1.789900	0.125655	-0.114251	-0.008278	0.999925	-0.007520	0.003504	0.008949	
23041	    0	12.334371	-13.128688	-1.637023	-1.356550	0.616666	2.335432	0.124817	-0.129944	-0.015869	0.999904	-0.006783	0.003083	0.011677	
23042	    0	13.344983	-7.515357	-3.185489	-0.628301	0.390637	2.669229	0.134376	-0.073464	-0.031884	0.999904	-0.003141	0.001953	0.013346	
23043	    0	15.037543	-0.444456	-6.505658	0.450341	0.081637	2.874857	0.150391	-0.002136	-0.065125	0.999893	0.002252	0.000408	0.014374	
23044	    0	17.857928	1.041642	-7.998475	0.815425	0.011826	3.022317	0.178387	0.013439	-0.079945	0.999877	0.004077	0.000059	0.015111	
23045	    0	20.996717	2.795217	-8.624267	0.570128	-0.034334	2.969473	0.209534	0.031311	-0.086121	0.999886	0.002851	-0.000172	0.014847	
23046	    0	20.976654	7.158166	-7.830004	0.483530	-0.144773	2.850632	0.208773	0.074751	-0.077971	0.999895	0.002418	-0.000724	0.014253	
23047	    0	19.433670	7.984576	-6.733380	0.557919	-0.344098	2.820686	0.193298	0.082764	-0.066772	0.999895	0.002789	-0.001720	0.014103	
23048	    0	18.220469	5.868732	-6.052023	0.401892	-0.572606	2.788449	0.181534	0.061342	-0.059878	0.999896	0.002009	-0.002863	0.013942	
23049	    0	16.945444	4.808205	-4.467789	0.303850	-0.704979	2.679530	0.168945	0.050415	-0.044006	0.999903	0.001519	-0.003525	0.013397	
23050	    0	15.559993	5.468740	-3.171004	0.699447	-0.751710	2.591598	0.154990	0.056808	-0.030931	0.999903	0.003497	-0.003758	0.012958	
23051	    0	14.108588	6.785600	-2.568367	1.226277	-0.769070	2.494898	0.140320	0.069763	-0.024719	0.999895	0.006131	-0.003845	0.012474	
23052	    0	12.429555	8.004942	-2.183102	1.553212	-0.805694	2.444741	0.123388	0.081725	-0.020702	0.999887	0.007766	-0.004028	0.012223	
23053	    0	11.591923	8.122942	-1.653345	1.628177	-0.943603	2.439214	0.114990	0.082764	-0.015320	0.999881	0.008141	-0.004718	0.012196	
23054	    0	11.291192	7.244989	-0.939887	1.628942	-1.075407	2.445321	0.112061	0.073894	-0.008197	0.999877	0.008144	-0.005377	0.012226	
23055	    0	11.072989	5.823476	-0.381355	1.912010	-1.131298	2.369794	0.110046	0.059570	-0.002625	0.999867	0.009560	-0.005656	0.011848	
23056	    0	9.650909	4.751885	-0.129139	2.434661	-1.050048	2.226941	0.095975	0.048596	-0.000199	0.999849	0.012173	-0.005250	0.011134	
23057	    0	8.212928	4.620169	-0.558780	2.771334	-0.883531	2.076069	0.081665	0.047119	-0.004578	0.999840	0.013856	-0.004417	0.010380	
23058	    0	7.600826	5.546576	-0.488019	2.803368	-0.699459	1.866433	0.075500	0.056231	-0.003831	0.999851	0.014016	-0.003497	0.009332	
23059	    0	7.075539	6.887388	-0.519962	2.551564	-0.642421	1.671668	0.070190	0.069519	-0.004089	0.999878	0.012757	-0.003212	0.008358	
23060	    0	6.629115	8.279128	-0.427233	2.121609	-0.671407	1.545381	0.065660	0.083338	-0.003169	0.999907	0.010608	-0.003357	0.007727	
23061	    0	6.111170	9.613379	-0.586296	1.585613	-0.710312	1.462586	0.060425	0.096619	-0.004883	0.999935	0.007928	-0.003551	0.007313	
23062	    0	6.000181	10.649565	-0.210048	1.140041	-0.766957	1.426529	0.059246	0.106929	-0.001264	0.999950	0.005700	-0.003835	0.007133	
23063	    0	5.867693	10.893640	0.389699	0.717172	-0.784121	1.351182	0.057922	0.109314	0.004517	0.999963	0.003586	-0.003921	0.006756	
23064	    0	5.588482	10.225415	0.680066	0.264742	-0.714690	1.243602	0.055223	0.102590	0.007134	0.999973	0.001324	-0.003573	0.006218	
23065	    0	4.719876	10.310254	-0.176704	-0.312807	-0.676541	0.993354	0.046692	0.103333	-0.001770	0.999980	-0.001564	-0.003383	0.004967	
23066	    0	3.329947	10.643687	0.519879	-0.771909	-0.536922	0.853926	0.032831	0.106597	0.004876	0.999979	-0.003860	-0.002685	0.004270	
23067	    0	3.492780	7.933608	2.322077	-1.161966	-0.393489	0.693518	0.034607	0.079590	0.022827	0.999974	-0.005810	-0.001967	0.003468	
23068	    0	4.429678	5.521273	5.060551	-0.916485	0.040817	0.297166	0.044225	0.055510	0.050343	0.999988	-0.004582	0.000204	0.001486	
23069	    0	4.722192	5.015028	5.409343	-0.829890	0.218964	-0.084687	0.047302	0.050354	0.053833	0.999990	-0.004149	0.001095	-0.000423	
23070	    0	5.115536	4.546103	3.876493	-1.041799	-0.192643	-0.392725	0.051208	0.045562	0.038577	0.999984	-0.005209	-0.000963	-0.001964	
23071	    0	6.195932	2.079929	0.439785	-1.499768	-0.686655	-0.653848	0.062012	0.020630	0.004456	0.999960	-0.007499	-0.003433	-0.003269	
23072	    0	7.510498	0.566194	-4.468753	-2.125407	-0.753039	-0.658432	0.075290	0.004941	-0.044459	0.999930	-0.010627	-0.003765	-0.003292	
23073	    0	9.403054	-3.643409	-7.673888	-2.227070	-0.325592	-0.536358	0.094055	-0.037537	-0.076172	0.999932	-0.011135	-0.001628	-0.002682	
23074	    0	10.575014	-11.194068	-9.185986	-2.432695	-0.012207	-0.474751	0.105488	-0.113297	-0.090481	0.999923	-0.012163	-0.000061	-0.002374	
23075	    0	10.343484	-18.296402	-7.801436	-1.694510	0.034523	-0.429540	0.103027	-0.183838	-0.076477	0.999961	-0.008472	0.000173	-0.002148	
23076	    0	9.337450	-19.383999	-7.830700	-0.740435	-0.335885	-0.241853	0.093270	-0.194241	-0.077432	0.999990	-0.003702	-0.001679	-0.001209	
23077	    0	9.141231	-15.376580	-9.146035	-0.054741	-0.373078	-0.038910	0.091553	-0.153809	-0.091248	0.999998	-0.000274	-0.001865	-0.000195	
23078	    0	9.165481	-10.733648	-8.372189	0.778964	0.405885	0.074768	0.091524	-0.106975	-0.084325	0.999990	0.003895	0.002029	0.000374	
23079	    0	8.485359	-6.615187	-4.493880	1.785503	1.165794	0.022126	0.084595	-0.065735	-0.046021	0.999943	0.008927	0.005829	0.000111	
23080	    0	8.015899	-3.858659	-1.242464	2.346300	1.302758	-0.116352	0.080051	-0.038480	-0.013398	0.999909	0.011731	0.006514	-0.000582	
23081	    0	8.337396	-1.200262	-0.777087	2.655311	1.035344	-0.311290	0.083313	-0.012024	-0.008362	0.999897	0.013276	0.005177	-0.001556	
23082	    0	10.445865	6.291950	1.294482	3.214801	0.781669	-0.816385	0.104766	0.062278	0.013540	0.999854	0.016073	0.003908	-0.004082	
23083	    0	14.596665	11.786844	3.483960	2.710253	0.649286	-1.104778	0.146729	0.116577	0.035950	0.999887	0.013551	0.003246	-0.005524	
23084	    0	12.643482	2.734541	1.530656	0.525859	-0.204851	-1.115806	0.126569	0.026599	0.015507	0.999980	0.002629	-0.001024	-0.005579	
23085	    0	17.306668	-11.092864	-11.623156	0.054360	-1.186381	-0.849922	0.173279	-0.111633	-0.115234	0.999973	0.000272	-0.005932	-0.004250	
23086	    0	18.659121	-6.544779	-5.672124	1.415080	-0.475890	-0.904095	0.186429	-0.065889	-0.056743	0.999962	0.007075	-0.002379	-0.004520	
23087	    0	14.570723	11.637273	2.696902	1.350418	0.139810	-0.887308	0.146240	0.115540	0.027649	0.999967	0.006752	0.000699	-0.004436	
23088	    0	14.325244	10.475604	5.034467	-0.671390	0.058937	-0.760082	0.143664	0.104379	0.049952	0.999987	-0.003357	0.000295	-0.003800	
23089	    0	11.348638	5.967559	0.400666	-0.452425	0.155068	-0.737765	0.113708	0.059265	0.003784	0.999990	-0.002262	0.000775	-0.003689	
23090	    0	9.092785	2.816199	-4.461949	-0.163460	0.168038	-0.735285	0.090993	0.027791	-0.044719	0.999992	-0.000817	0.000840	-0.003676	
23091	    0	8.023819	4.445561	-4.669266	-0.006104	0.146676	-0.811007	0.080383	0.044128	-0.046753	0.999991	-0.000031	0.000733	-0.004055	
23092	    0	9.400712	6.004572	-6.124072	0.335695	0.124932	-1.019101	0.094274	0.059669	-0.061199	0.999985	0.001678	0.000625	-0.005095	
23093	    0	11.225406	4.206240	-9.023812	0.636488	0.077820	-1.287090	0.112488	0.041626	-0.090149	0.999973	0.003182	0.000389	-0.006435	
23094	    0	10.943983	4.799532	-9.976079	0.171091	-0.036812	-1.549546	0.109826	0.047231	-0.099700	0.999969	0.000855	-0.000184	-0.007748	
23095	    0	10.883392	7.057301	-8.626581	-0.655947	-0.125887	-1.745631	0.109497	0.069336	-0.086426	0.999956	-0.003280	-0.000629	-0.008728	
23096	    0	11.068346	6.712583	-6.060222	-1.448856	-0.150112	-1.866003	0.111346	0.065648	-0.060998	0.999929	-0.007244	-0.000751	-0.009330	
23097	    0	11.292711	4.867725	-2.982207	-1.805931	-0.072291	-1.948605	0.113403	0.047302	-0.030212	0.999911	-0.009029	-0.000361	-0.009743	
23098	    0	11.023268	3.270965	-0.331756	-1.727345	0.048067	-1.978550	0.110548	0.031587	-0.003620	0.999913	-0.008636	0.000240	-0.009892	
23099	    0	10.372438	2.295919	0.276984	-1.814324	0.125317	-1.944790	0.103943	0.021973	0.002502	0.999911	-0.009071	0.000627	-0.009724	
23100	    0	10.098261	1.279580	0.456917	-1.865059	0.201613	-1.850754	0.101100	0.011902	0.004354	0.999912	-0.009325	0.001008	-0.009254	
23101	    0	9.023541	0.519297	-0.326679	-1.714939	0.246436	-1.705212	0.090271	0.004395	-0.003418	0.999926	-0.008574	0.001232	-0.008526	
23102	    0	8.225555	-0.104965	-1.350711	-1.482420	0.194172	-1.537734	0.082231	-0.001782	-0.013576	0.999942	-0.007412	0.000971	-0.007689	
23103	    0	7.951566	-1.332481	-2.476736	-1.322194	0.108530	-1.383993	0.079407	-0.014038	-0.024719	0.999953	-0.006611	0.000543	-0.006920	
23104	    0	7.817915	-1.714087	-3.227949	-1.212327	0.084115	-1.305788	0.078051	-0.017846	-0.032206	0.999960	-0.006062	0.000421	-0.006529	
23105	    0	7.851686	-1.066386	-3.188729	-1.162544	0.096132	-1.283280	0.078430	-0.011353	-0.031860	0.999962	-0.005813	0.000481	-0.006416	
23106	    0	7.930319	-0.710879	-2.631146	-1.107802	0.149919	-1.306741	0.079234	-0.007772	-0.026329	0.999963	-0.005539	0.000750	-0.006534	
23107	    0	7.960530	-0.834081	-1.895276	-1.031316	0.186922	-1.341264	0.079529	-0.008972	-0.018982	0.999964	-0.005157	0.000935	-0.006706	
23108	    0	8.092472	-0.539304	-1.590779	-0.840959	0.214770	-1.371589	0.080868	-0.006015	-0.015970	0.999967	-0.004205	0.001074	-0.006858	
23109	    0	8.321072	0.028703	-1.448088	-0.685890	0.257304	-1.450364	0.083191	-0.000366	-0.014587	0.999967	-0.003429	0.001287	-0.007252	
23110	    0	8.764769	0.332337	-1.269433	-0.620658	0.273517	-1.467149	0.087651	0.002641	-0.012823	0.999967	-0.003103	0.001368	-0.007336	
23111	    0	9.502515	0.416094	-1.413488	-0.562865	0.288394	-1.479356	0.095032	0.003418	-0.014282	0.999968	-0.002814	0.001442	-0.007397	
23112	    0	10.063602	0.197152	-1.411503	-0.518424	0.351529	-1.576252	0.100622	0.001142	-0.014296	0.999964	-0.002592	0.001758	-0.007881	
23113	    0	10.257792	-0.782913	-1.415673	-0.512702	0.406080	-1.682304	0.102478	-0.008728	-0.014343	0.999959	-0.002563	0.002030	-0.008411	
23114	    0	9.775716	-1.989268	-1.658200	-0.424201	0.424201	-1.783779	0.097539	-0.020799	-0.016746	0.999955	-0.002121	0.002121	-0.008919	
23115	    0	9.243370	-3.770729	-2.109849	-0.273899	0.421340	-1.818112	0.092041	-0.038574	-0.021240	0.999955	-0.001369	0.002107	-0.009090	
23116	    0	8.603390	-5.139577	-2.296904	-0.164988	0.411993	-1.746392	0.085533	-0.052163	-0.023103	0.999959	-0.000825	0.002060	-0.008732	
23117	    0	8.694337	-5.989367	-2.220124	-0.258449	0.357060	-1.583117	0.086426	-0.060608	-0.022278	0.999966	-0.001292	0.001785	-0.007915	
23118	    0	9.464490	-6.170973	-2.647630	-0.386051	0.308230	-1.385129	0.094173	-0.062414	-0.026502	0.999972	-0.001930	0.001541	-0.006926	
23119	    0	9.903773	-6.947346	-3.332082	-0.372126	0.272371	-1.203164	0.098572	-0.070129	-0.033325	0.999979	-0.001861	0.001362	-0.006016	
23120	    0	9.829126	-7.301135	-3.911400	-0.222779	0.209619	-1.057439	0.097862	-0.073573	-0.039135	0.999985	-0.001114	0.001048	-0.005287	
23121	    0	9.868283	-7.299791	-3.921377	0.026703	0.168801	-0.878909	0.098328	-0.073425	-0.039307	0.999990	0.000134	0.000844	-0.004395	
23122	    0	9.985551	-6.698167	-3.838062	0.304986	0.179100	-0.664331	0.099598	-0.067254	-0.038572	0.999992	0.001525	0.000896	-0.003322	
23123	    0	10.141132	-5.422132	-3.170619	0.306702	0.260353	-0.414277	0.101257	-0.054382	-0.031921	0.999995	0.001534	0.001302	-0.002071	
23124	    0	10.786486	-3.209581	-2.421196	-0.024414	0.359154	-0.116730	0.107802	-0.032162	-0.024402	0.999998	-0.000122	0.001796	-0.000584	
23125	    0	12.035944	-4.279651	-2.270222	-0.581933	0.414277	0.229645	0.120361	-0.042725	-0.022827	0.999992	-0.002910	0.002071	0.001148	
23126	    0	13.316463	-8.357342	-1.858702	-1.162539	0.576978	0.619512	0.133369	-0.083268	-0.018487	0.999973	-0.005813	0.002885	0.003098	
23127	    0	13.204527	-8.573416	-1.549530	-1.390668	0.631723	1.053635	0.132446	-0.085144	-0.015320	0.999956	-0.006953	0.003159	0.005268	
23128	    0	12.546893	-10.832304	-1.349651	-1.502262	0.614371	1.684227	0.126335	-0.107361	-0.013075	0.999931	-0.007511	0.003072	0.008421	
23129	    0	12.921621	-12.153026	-0.706972	-1.648580	0.511188	2.349174	0.130615	-0.120056	-0.006409	0.999893	-0.008243	0.002556	0.011745	
23130	    0	14.748574	-7.218780	-1.733368	-1.197098	0.329984	2.765189	0.148438	-0.070243	-0.017154	0.999885	-0.005985	0.001650	0.013825	
23131	    0	15.811320	-2.039876	-3.473839	-0.228890	0.015450	2.919874	0.158386	-0.018127	-0.034729	0.999892	-0.001144	0.000077	0.014599	
23132	    0	17.237180	0.310543	-5.474891	0.213250	-0.046350	3.105098	0.172308	0.005839	-0.054704	0.999878	0.001066	-0.000232	0.015525	
23133	    0	19.714410	3.181513	-6.033848	-0.095180	-0.052645	2.990071	0.196655	0.034729	-0.060303	0.999887	-0.000476	-0.000263	0.014950	
23134	    0	18.869854	7.645817	-5.526383	-0.259217	-0.179106	2.790733	0.187657	0.079010	-0.055197	0.999901	-0.001296	-0.000896	0.013953	
23135	    0	16.903777	7.665765	-4.871697	-0.164037	-0.379002	2.659687	0.168091	0.078857	-0.048462	0.999909	-0.000820	-0.001895	0.013298	
23136	    0	16.252995	4.719246	-4.447148	-0.151830	-0.644895	2.646147	0.162029	0.049305	-0.043985	0.999907	-0.000759	-0.003224	0.013230	
23137	    0	16.122959	2.967567	-3.335121	-0.161748	-0.821522	2.670375	0.160950	0.031799	-0.032715	0.999902	-0.000809	-0.004107	0.013351	
23138	    0	15.160881	3.592448	-2.304950	0.103382	-0.893431	2.646723	0.151217	0.037939	-0.022354	0.999902	0.000517	-0.004467	0.013233	
23139	    0	13.972932	4.490258	-1.909342	0.605031	-0.922996	2.574242	0.139221	0.046753	-0.018311	0.999902	0.003025	-0.004615	0.012871	
23140	    0	12.627812	5.258704	-1.675363	1.022374	-1.020658	2.502910	0.125689	0.054245	-0.015837	0.999895	0.005112	-0.005103	0.012514	
23141	    0	10.982103	5.873398	-1.752164	1.350645	-1.168105	2.436921	0.109192	0.060181	-0.016479	0.999886	0.006753	-0.005840	0.012184	
23142	    0	10.278612	5.979242	-1.793360	1.706957	-1.200726	2.376083	0.102168	0.061155	-0.016801	0.999874	0.008534	-0.006003	0.011880	
23143	    0	10.108957	5.600884	-1.534543	2.105046	-1.164871	2.283582	0.100525	0.057312	-0.014160	0.999862	0.010525	-0.005824	0.011417	
23144	    0	9.266754	5.415144	-1.111804	2.384683	-1.123292	2.177535	0.092128	0.055280	-0.009945	0.999853	0.011923	-0.005616	0.010887	
23145	    0	8.470683	5.501023	-0.772194	2.468227	-1.051190	2.069954	0.084167	0.055969	-0.006592	0.999856	0.012341	-0.005256	0.010349	
23146	    0	7.915887	5.743911	-0.565924	2.351095	-0.962107	1.872331	0.078640	0.058235	-0.004599	0.999875	0.011755	-0.004810	0.009361	
23147	    0	7.351331	6.410619	-0.498566	2.167013	-0.872070	1.654872	0.072998	0.064758	-0.003967	0.999897	0.010835	-0.004360	0.008274	
23148	    0	6.661863	7.670750	-0.642043	1.885274	-0.790236	1.483766	0.066070	0.077253	-0.005432	0.999920	0.009426	-0.003951	0.007419	
23149	    0	6.205142	8.767387	0.056947	1.677739	-0.709358	1.329832	0.061462	0.088074	0.001526	0.999936	0.008389	-0.003547	0.006649	
23150	    0	6.002798	9.281194	0.261501	1.173609	-0.749790	1.237315	0.059441	0.093163	0.003385	0.999956	0.005868	-0.003749	0.006186	
23151	    0	5.722020	9.630941	0.518023	0.637824	-0.877199	1.150525	0.056641	0.096619	0.005737	0.999969	0.003189	-0.004386	0.005753	
23152	    0	5.650065	9.061028	1.304778	0.201036	-0.919540	1.013001	0.055980	0.090881	0.013397	0.999975	0.001005	-0.004598	0.005065	
23153	    0	5.522215	8.313310	1.471716	-0.142480	-0.854497	0.838476	0.054810	0.083374	0.014893	0.999981	-0.000712	-0.004272	0.004192	
23154	    0	4.858539	8.770761	0.646160	-0.481608	-0.741390	0.502779	0.048341	0.087845	0.006430	0.999987	-0.002408	-0.003707	0.002514	
23155	    0	3.595136	9.756130	0.820540	-0.865177	-0.504878	0.337221	0.035767	0.097656	0.007874	0.999986	-0.004326	-0.002524	0.001686	
23156	    0	4.585603	7.076416	2.456143	-1.016049	-0.208283	0.169373	0.045771	0.070927	0.024249	0.999986	-0.005080	-0.001041	0.000847	
23157	    0	6.162608	3.950249	5.430960	-0.679590	0.119782	-0.242615	0.061707	0.039612	0.054138	0.999992	-0.003398	0.000599	-0.001213	
23158	    0	7.252224	2.993722	4.292079	-1.074988	0.136186	-0.524333	0.072630	0.029977	0.042710	0.999982	-0.005375	0.000681	-0.002622	
23159	    0	7.739815	3.484749	2.667404	-1.229106	-0.074578	-0.727087	0.077515	0.034729	0.026489	0.999974	-0.006145	-0.000373	-0.003635	
23160	    0	7.912724	2.806148	-1.604100	-1.620887	-0.308804	-0.755320	0.079257	0.027632	-0.016144	0.999958	-0.008104	-0.001544	-0.003777	
23161	    0	8.676137	0.239994	-6.499615	-2.283344	-0.451671	-0.728625	0.086914	0.001343	-0.064819	0.999926	-0.011416	-0.002258	-0.003643	
23162	    0	10.634230	-7.974550	-10.174103	-2.696893	-0.469415	-0.848608	0.106236	-0.081556	-0.100400	0.999897	-0.013484	-0.002347	-0.004243	
23163	    0	11.793523	-19.530769	-9.658036	-2.265988	-0.198942	-0.981928	0.117065	-0.196960	-0.094238	0.999923	-0.011330	-0.000995	-0.004910	
23164	    0	10.902145	-25.220757	-4.922577	-0.269509	0.196839	-0.730135	0.108051	-0.252669	-0.048992	0.999991	-0.001348	0.000984	-0.003651	
23165	    0	10.857880	-20.731196	-5.842408	1.192482	0.173379	-0.360110	0.108154	-0.207153	-0.059753	0.999980	0.005962	0.000867	-0.001801	
23166	    0	10.668720	-12.609628	-9.413391	1.459708	0.486569	-0.105477	0.106390	-0.125460	-0.095310	0.999969	0.007298	0.002433	-0.000527	
23167	    0	9.600908	-7.745153	-7.952913	1.804388	1.227022	0.010681	0.095520	-0.076721	-0.080811	0.999940	0.009022	0.006135	0.000053	
23168	    0	10.591199	-3.778817	-2.146894	2.203813	1.408617	-0.007630	0.105754	-0.037547	-0.022629	0.999914	0.011019	0.007043	-0.000038	
23169	    0	14.469941	5.936967	1.744576	2.697089	1.169820	-0.325787	0.144897	0.058899	0.017395	0.999890	0.013485	0.005849	-0.001629	
23170	    0	15.975777	3.521195	2.379667	2.216770	0.501262	-0.440226	0.159894	0.034596	0.023782	0.999932	0.011084	0.002506	-0.002201	
23171	    0	16.584839	-14.983594	-3.683224	1.334393	-0.430874	-0.453953	0.165588	-0.149963	-0.037476	0.999972	0.006672	-0.002154	-0.002270	
23172	    0	14.016891	-5.634542	-5.889586	2.037664	-0.328071	-0.894947	0.140014	-0.056370	-0.059240	0.999936	0.010188	-0.001640	-0.004475	
23173	    0	11.105605	14.384577	0.103132	2.595028	0.263985	-0.800348	0.111633	0.143372	0.002747	0.999907	0.012975	0.001320	-0.004002	
23174	    0	9.965953	21.298834	2.147344	0.437548	0.133896	-0.866512	0.100595	0.212506	0.021872	0.999988	0.002188	0.000669	-0.004333	
23175	    0	10.901248	12.832297	0.114778	-0.772672	0.078583	-0.947577	0.109619	0.127808	0.000610	0.999981	-0.003863	0.000393	-0.004738	
23176	    0	9.970537	9.193417	-3.245629	-0.251772	0.071145	-1.193245	0.100240	0.091296	-0.032607	0.999981	-0.001259	0.000356	-0.005966	
23177	    0	10.018353	12.784393	-4.382150	-0.205805	0.106812	-1.435865	0.101074	0.127075	-0.044006	0.999973	-0.001029	0.000534	-0.007179	
23178	    0	10.219407	11.200588	-5.097842	-0.269321	0.092698	-1.641292	0.103085	0.111094	-0.051176	0.999965	-0.001347	0.000463	-0.008206	
23179	    0	11.584514	8.346259	-6.584313	-0.325780	0.107004	-1.856259	0.116577	0.082275	-0.066040	0.999955	-0.001629	0.000535	-0.009281	
23180	    0	11.532260	7.470710	-7.633510	-0.634206	0.065233	-2.049867	0.116054	0.073277	-0.076607	0.999942	-0.003171	0.000326	-0.010249	
23181	    0	10.934590	6.253947	-6.828420	-1.138906	0.054933	-2.140861	0.109985	0.060974	-0.068665	0.999926	-0.005694	0.000275	-0.010704	
23182	    0	10.956378	4.313672	-4.699469	-1.390115	0.084307	-2.196183	0.110006	0.041602	-0.047334	0.999915	-0.006950	0.000422	-0.010981	
23183	    0	10.959442	2.736297	-3.155727	-1.758443	0.129704	-2.195049	0.109863	0.025879	-0.031860	0.999901	-0.008792	0.000648	-0.010975	
23184	    0	10.553653	1.810183	-1.928261	-1.970171	0.185782	-2.159387	0.105704	0.016769	-0.019550	0.999892	-0.009851	0.000929	-0.010797	
23185	    0	10.259961	0.280068	-1.652013	-1.846945	0.241860	-2.066870	0.102600	0.001587	-0.016663	0.999903	-0.009234	0.001209	-0.010334	
23186	    0	10.002925	-1.307951	-2.260082	-1.649712	0.284775	-1.961381	0.099861	-0.014246	-0.022629	0.999916	-0.008248	0.001424	-0.009807	
23187	    0	9.379173	-2.503640	-3.019231	-1.480138	0.319870	-1.844831	0.093506	-0.026123	-0.030151	0.999928	-0.007401	0.001599	-0.009224	
23188	    0	8.856300	-3.315450	-3.395620	-1.310184	0.307852	-1.716839	0.088221	-0.034135	-0.033871	0.999940	-0.006551	0.001539	-0.008584	
23189	    0	8.588384	-3.163987	-3.697962	-1.132030	0.301366	-1.593807	0.085571	-0.032532	-0.036926	0.999950	-0.005660	0.001507	-0.007969	
23190	    0	8.404931	-3.099026	-3.947163	-0.977910	0.258449	-1.455898	0.083769	-0.031794	-0.039426	0.999960	-0.004889	0.001292	-0.007279	
23191	    0	8.266911	-2.652720	-3.806072	-0.867280	0.196840	-1.283277	0.082458	-0.027222	-0.038025	0.999969	-0.004336	0.000984	-0.006416	
23192	    0	8.343492	-2.340290	-3.651702	-0.746733	0.147248	-1.127061	0.083274	-0.024009	-0.036489	0.999976	-0.003734	0.000736	-0.005635	
23193	    0	8.569413	-1.941308	-3.125863	-0.612453	0.121308	-1.050574	0.085571	-0.019958	-0.031250	0.999981	-0.003062	0.000607	-0.005253	
23194	    0	8.905712	-0.847901	-2.377712	-0.474932	0.134660	-1.023870	0.088996	-0.008991	-0.023816	0.999984	-0.002375	0.000673	-0.005119	
23195	    0	8.979083	0.131022	-1.701790	-0.428584	0.155641	-1.069647	0.089783	0.000793	-0.017090	0.999983	-0.002143	0.000778	-0.005348	
23196	    0	8.939947	1.055620	-0.793628	-0.484661	0.222398	-1.144417	0.089449	0.010025	-0.008060	0.999980	-0.002423	0.001112	-0.005722	
23197	    0	8.926927	1.494580	-0.098012	-0.563817	0.309947	-1.205454	0.089355	0.014404	-0.001160	0.999976	-0.002819	0.001550	-0.006027	
23198	    0	8.959510	0.851361	-0.272391	-0.650412	0.370410	-1.273548	0.089642	0.007934	-0.002916	0.999972	-0.003252	0.001852	-0.006368	
23199	    0	8.952900	0.348007	-0.479787	-0.596624	0.441937	-1.332868	0.089539	0.002869	-0.005005	0.999970	-0.002983	0.002210	-0.006664	
23200	    0	9.079655	-0.731032	-0.731856	-0.477223	0.494580	-1.397528	0.090724	-0.007962	-0.007524	0.999969	-0.002386	0.002473	-0.006988	
23201	    0	8.825338	-2.053100	-1.171228	-0.317958	0.505834	-1.428237	0.088074	-0.021179	-0.011902	0.999969	-0.001590	0.002529	-0.007141	
23202	    0	8.413778	-3.433576	-1.827663	-0.167467	0.431828	-1.406873	0.083854	-0.034942	-0.018429	0.999972	-0.000837	0.002159	-0.007034	
23203	    0	8.419403	-5.297008	-2.661300	-0.062371	0.326541	-1.309214	0.083801	-0.053528	-0.026733	0.999977	-0.000312	0.001633	-0.006546	
23204	    0	8.941079	-6.541001	-2.570065	0.014114	0.246240	-1.248940	0.088968	-0.065965	-0.025815	0.999979	0.000071	0.001231	-0.006245	
23205	    0	9.766455	-6.116552	-2.642973	0.045204	0.218965	-1.123053	0.097290	-0.061707	-0.026550	0.999983	0.000226	0.001095	-0.005615	
23206	    0	10.016249	-6.627811	-2.621085	-0.010300	0.191880	-0.975231	0.099813	-0.066767	-0.026303	0.999988	-0.000051	0.000959	-0.004876	
23207	    0	9.300843	-8.445915	-2.400799	-0.082398	0.161171	-0.797274	0.092651	-0.084839	-0.024048	0.999991	-0.000412	0.000806	-0.003986	
23208	    0	8.367697	-10.272629	-2.298006	-0.013161	0.120545	-0.550843	0.083380	-0.102958	-0.023024	0.999995	-0.000066	0.000603	-0.002754	
23209	    0	8.467595	-10.679133	-2.531969	0.112343	0.170136	-0.225830	0.084534	-0.106873	-0.025452	0.999998	0.000562	0.000851	-0.001129	
23210	    0	9.139189	-9.263942	-2.491583	0.082398	0.389862	0.205803	0.091438	-0.092535	-0.025132	0.999997	0.000412	0.001949	0.001029	
23211	    0	11.386158	-7.068189	-0.670765	-0.324251	0.639537	0.667575	0.114075	-0.070312	-0.006958	0.999988	-0.001621	0.003198	0.003338	
23212	    0	13.390930	-8.914810	-0.090216	-0.934612	0.687989	1.182188	0.134430	-0.088359	-0.000950	0.999966	-0.004673	0.003440	0.005911	
23213	    0	13.637820	-8.946368	-0.647973	-1.316670	0.749985	1.647221	0.137085	-0.088379	-0.006409	0.999937	-0.006583	0.003750	0.008236	
23214	    0	13.225815	-7.953041	-1.701727	-1.132993	0.621429	2.042439	0.133009	-0.078271	-0.016984	0.999927	-0.005665	0.003107	0.010212	
23215	    0	13.972517	-6.003225	-3.945734	-0.539222	0.360117	2.465887	0.140381	-0.058411	-0.039551	0.999918	-0.002696	0.001801	0.012329	
23216	    0	16.061831	-2.987503	-6.110421	0.236328	0.159460	2.777571	0.160963	-0.027569	-0.061266	0.999902	0.001182	0.000797	0.013887	
23217	    0	18.521799	0.030462	-6.726799	0.591300	0.197036	2.884016	0.185120	0.003174	-0.067444	0.999890	0.002956	0.000985	0.014420	
23218	    0	20.747472	3.368865	-7.507409	0.619337	0.119976	2.797795	0.206929	0.036819	-0.075088	0.999897	0.003097	0.000600	0.013988	
23219	    0	19.848863	7.229057	-8.023322	0.518052	-0.024224	2.665029	0.197510	0.075134	-0.080017	0.999907	0.002590	-0.000121	0.013325	
23220	    0	18.794201	8.484759	-8.234599	0.367938	-0.139622	2.564311	0.186890	0.087399	-0.082056	0.999915	0.001840	-0.000698	0.012821	
23221	    0	17.725814	7.427950	-6.491535	-0.116733	-0.366031	2.599409	0.176392	0.076538	-0.064636	0.999913	-0.000584	-0.001830	0.012997	
23222	    0	15.951614	6.956032	-3.779338	-0.478760	-0.607319	2.632414	0.158697	0.071563	-0.037480	0.999906	-0.002394	-0.003036	0.013162	
23223	    0	14.300023	7.007750	-1.980513	-0.328837	-0.806262	2.603231	0.142151	0.071899	-0.019348	0.999906	-0.001644	-0.004031	0.013016	
23224	    0	12.987891	7.093007	-1.317980	0.140767	-0.959998	2.523690	0.129031	0.072571	-0.012508	0.999908	0.000704	-0.004800	0.012618	
23225	    0	11.520701	7.031452	-0.662819	0.559252	-1.100002	2.415540	0.114380	0.071716	-0.005798	0.999907	0.002796	-0.005500	0.012077	
23226	    0	10.675676	6.481748	-0.419735	0.843265	-1.274340	2.285076	0.106030	0.066047	-0.003243	0.999905	0.004216	-0.006371	0.011425	
23227	    0	11.011129	5.416468	-0.543361	1.103245	-1.341099	2.128668	0.109558	0.055359	-0.004395	0.999906	0.005516	-0.006705	0.010643	
23228	    0	10.958035	5.082139	-0.240024	1.556065	-1.262896	1.922478	0.109096	0.051885	-0.001309	0.999903	0.007780	-0.006314	0.009612	
23229	    0	10.105768	5.253379	0.036135	2.114945	-1.075593	1.754061	0.100586	0.053406	0.001465	0.999890	0.010574	-0.005378	0.008770	
23230	    0	8.853297	5.553726	0.412943	2.474695	-0.946084	1.673958	0.088041	0.056215	0.005239	0.999877	0.012373	-0.004730	0.008369	
23231	    0	8.003883	6.176682	0.812096	2.636828	-0.847470	1.521365	0.079529	0.062256	0.009277	0.999875	0.013184	-0.004237	0.007607	
23232	    0	7.422772	6.583039	1.128030	2.706254	-0.763161	1.279882	0.073759	0.066140	0.012456	0.999880	0.013531	-0.003816	0.006399	
23233	    0	7.086363	7.279913	0.520006	2.453884	-0.713372	1.116980	0.070435	0.073120	0.006348	0.999903	0.012269	-0.003567	0.005585	
23234	    0	6.725138	8.554590	0.389590	2.008103	-0.669876	1.012062	0.066802	0.085838	0.004981	0.999930	0.010040	-0.003349	0.005060	
23235	    0	6.316198	9.807286	0.465906	1.532196	-0.647745	0.939956	0.062683	0.098328	0.005615	0.999954	0.007661	-0.003239	0.004700	
23236	    0	5.937728	10.415477	0.900674	1.017961	-0.678641	0.828178	0.058913	0.104351	0.009738	0.999972	0.005090	-0.003393	0.004141	
23237	    0	5.374608	10.364793	0.857317	0.404551	-0.707248	0.713352	0.053345	0.103821	0.008972	0.999985	0.002023	-0.003536	0.003567	
23238	    0	4.746040	10.112558	0.724943	-0.210381	-0.730708	0.533106	0.047164	0.101259	0.007316	0.999989	-0.001052	-0.003654	0.002666	
23239	    0	4.077725	9.940129	0.321943	-0.857358	-0.672153	0.359346	0.040588	0.099487	0.002930	0.999983	-0.004287	-0.003361	0.001797	
23240	    0	3.695111	8.286559	0.863675	-1.593992	-0.651940	0.325970	0.036789	0.082992	0.008096	0.999961	-0.007970	-0.003260	0.001630	
23241	    0	4.349679	5.637550	1.607859	-1.952967	-0.452431	0.230412	0.043396	0.056580	0.015625	0.999949	-0.009765	-0.002262	0.001152	
23242	    0	5.803219	3.069764	2.950835	-1.484503	-0.208094	-0.011826	0.058003	0.030912	0.029340	0.999971	-0.007422	-0.001040	-0.000059	
23243	    0	6.573515	2.129019	1.070147	-1.680777	-0.482756	-0.239566	0.065735	0.021301	0.010681	0.999961	-0.008404	-0.002414	-0.001198	
23244	    0	6.393895	2.029772	-0.716513	-2.005236	-0.787751	-0.365837	0.064004	0.020109	-0.007115	0.999940	-0.010026	-0.003939	-0.001829	
23245	    0	7.492092	0.274712	-2.482660	-2.520063	-0.693342	-0.474562	0.075012	0.002258	-0.024597	0.999911	-0.012600	-0.003467	-0.002373	
23246	    0	9.491439	-6.036353	-4.281310	-2.776051	-0.544758	-0.554485	0.094860	-0.061211	-0.041709	0.999896	-0.013880	-0.002724	-0.002772	
23247	    0	10.665416	-17.233180	-7.931109	-1.827077	-0.061799	-0.551614	0.106201	-0.173340	-0.077698	0.999954	-0.009135	-0.000309	-0.002758	
23248	    0	10.121174	-25.754393	-9.167594	0.020981	0.367928	-0.332451	0.100615	-0.257702	-0.091888	0.999996	0.000105	0.001840	-0.001662	
23249	    0	10.745920	-24.508098	-8.360170	1.536766	0.280765	-0.032807	0.107300	-0.244446	-0.085632	0.999969	0.007684	0.001404	-0.000164	
23250	    0	11.260122	-17.342985	-7.494916	1.918443	0.476845	0.256733	0.112641	-0.172554	-0.076876	0.999949	0.009592	0.002384	0.001284	
23251	    0	9.296370	-9.434706	-5.244952	1.997418	0.959989	0.400552	0.092896	-0.093628	-0.053833	0.999936	0.009987	0.004800	0.002003	
23252	    0	7.011884	-2.913982	-3.039179	1.962514	1.081490	0.435839	0.070015	-0.028685	-0.031054	0.999934	0.009812	0.005407	0.002179	
23253	    0	8.900302	5.243911	-1.674910	2.137994	0.796526	0.264746	0.088867	0.052734	-0.016541	0.999933	0.010690	0.003983	0.001324	
23254	    0	11.950147	14.241212	-0.293067	2.378140	0.412760	-0.204854	0.119643	0.142313	-0.001485	0.999927	0.011890	0.002064	-0.001024	
23255	    0	16.153683	1.754443	-3.022406	1.477256	-0.382999	-0.307468	0.161621	0.017517	-0.029785	0.999969	0.007386	-0.001915	-0.001537	
23256	    0	16.775849	-17.592827	-5.332995	0.570111	-0.956733	-0.708967	0.167388	-0.176371	-0.053031	0.999978	0.002851	-0.004784	-0.003545	
23257	    0	17.318697	-2.569835	-3.597788	2.275332	-0.372324	-0.751514	0.173157	-0.025940	-0.035950	0.999926	0.011376	-0.001862	-0.003757	
23258	    0	12.938296	16.764494	4.396139	2.606854	0.434698	-0.666067	0.130037	0.166623	0.045856	0.999907	0.013034	0.002173	-0.003330	
23259	    0	11.205767	18.720437	5.314501	0.535585	0.317575	-0.630953	0.112732	0.186707	0.053467	0.999990	0.002678	0.001588	-0.003155	
23260	    0	11.124874	9.025466	1.949739	-0.255776	0.175858	-0.644876	0.111556	0.089920	0.019284	0.999993	-0.001279	0.000879	-0.003224	
23261	    0	9.311658	10.830283	-2.519335	0.155831	0.210572	-0.882724	0.093567	0.107910	-0.025208	0.999989	0.000779	0.001053	-0.004414	
23262	    0	8.954287	13.449011	-5.438251	-0.254632	0.200845	-1.035123	0.090182	0.133955	-0.054644	0.999985	-0.001273	0.001004	-0.005176	
23263	    0	10.591600	10.609854	-6.098193	-0.765998	0.143625	-1.202403	0.106506	0.105225	-0.061462	0.999974	-0.003830	0.000718	-0.006012	
23264	    0	12.305591	6.307008	-8.479788	-0.622947	0.095178	-1.475731	0.123475	0.061895	-0.085051	0.999968	-0.003115	0.000476	-0.007379	
23265	    0	11.743757	3.633155	-9.723621	-0.919166	0.022889	-1.756315	0.117737	0.034851	-0.097412	0.999950	-0.004596	0.000114	-0.008781	
23266	    0	11.038103	4.420066	-8.118144	-1.269369	-0.020791	-1.923985	0.110805	0.042620	-0.081444	0.999933	-0.006347	-0.000104	-0.009620	
23267	    0	11.413397	3.738378	-5.348137	-1.227599	0.010872	-2.038622	0.114502	0.035889	-0.053711	0.999928	-0.006138	0.000054	-0.010193	
23268	    0	11.111022	2.720566	-2.976408	-1.394881	0.023652	-2.083261	0.111381	0.025838	-0.029961	0.999921	-0.006974	0.000118	-0.010416	
23269	    0	10.721515	2.105136	-0.653192	-1.410521	0.072481	-2.062279	0.107422	0.019897	-0.006714	0.999922	-0.007052	0.000362	-0.010311	
23270	    0	10.497248	2.376636	-0.044146	-1.240950	0.138095	-2.033854	0.105206	0.022694	-0.000657	0.999928	-0.006205	0.000690	-0.010169	
23271	    0	10.540756	2.026220	-0.886254	-1.324494	0.193982	-1.966141	0.105591	0.019165	-0.009094	0.999928	-0.006622	0.000970	-0.009830	
23272	    0	10.143562	1.203122	-1.681276	-1.410708	0.225263	-1.889273	0.101523	0.010953	-0.017007	0.999929	-0.007053	0.001126	-0.009446	
23273	    0	9.892806	-0.172691	-2.443782	-1.492154	0.235754	-1.815838	0.098877	-0.002808	-0.024536	0.999929	-0.007461	0.001179	-0.009079	
23274	    0	9.639237	-1.318384	-2.915216	-1.466974	0.264555	-1.747933	0.096232	-0.014239	-0.029178	0.999933	-0.007335	0.001323	-0.008739	
23275	    0	9.068920	-2.242709	-2.858576	-1.365689	0.300795	-1.666293	0.090454	-0.023376	-0.028564	0.999940	-0.006828	0.001504	-0.008331	
23276	    0	8.435425	-2.543165	-3.064728	-1.120776	0.321012	-1.565386	0.084102	-0.026262	-0.030637	0.999952	-0.005604	0.001605	-0.007827	
23277	    0	7.976603	-2.633538	-2.923459	-0.859080	0.292400	-1.451129	0.079529	-0.027039	-0.029236	0.999963	-0.004295	0.001462	-0.007256	
23278	    0	7.910643	-2.591660	-2.423000	-0.724037	0.255969	-1.365866	0.078896	-0.026544	-0.024236	0.999969	-0.003620	0.001280	-0.006829	
23279	    0	7.802036	-1.804543	-2.061229	-0.658423	0.200846	-1.289379	0.077881	-0.018616	-0.020630	0.999972	-0.003292	0.001004	-0.006447	
23280	    0	8.034986	-0.751693	-1.810413	-0.649267	0.166894	-1.211748	0.080287	-0.008062	-0.018146	0.999975	-0.003246	0.000834	-0.006059	
23281	    0	8.286473	-0.322516	-1.744251	-0.632291	0.207521	-1.216135	0.082825	-0.003784	-0.017517	0.999975	-0.003161	0.001038	-0.006081	
23282	    0	8.328620	-0.169403	-1.433171	-0.557904	0.256922	-1.247416	0.083255	-0.002254	-0.014433	0.999975	-0.002789	0.001285	-0.006237	
23283	    0	8.596975	-0.148131	-1.299586	-0.447849	0.304606	-1.313793	0.085938	-0.002075	-0.013123	0.999974	-0.002239	0.001523	-0.006569	
23284	    0	8.993653	-0.080507	-1.178440	-0.333598	0.357059	-1.393712	0.089907	-0.001451	-0.011943	0.999972	-0.001668	0.001785	-0.006968	
23285	    0	9.156349	-0.615015	-1.172974	-0.285151	0.396732	-1.461806	0.091492	-0.006836	-0.011902	0.999969	-0.001426	0.001984	-0.007309	
23286	    0	8.897722	-1.672465	-1.426025	-0.254634	0.386242	-1.480308	0.088822	-0.017401	-0.014410	0.999969	-0.001273	0.001931	-0.007401	
23287	    0	8.613606	-2.285792	-1.604036	-0.193598	0.363926	-1.453413	0.085938	-0.023499	-0.016174	0.999971	-0.000968	0.001820	-0.007267	
23288	    0	8.609872	-3.612928	-1.865163	-0.215914	0.305751	-1.388753	0.085816	-0.036746	-0.018744	0.999973	-0.001080	0.001529	-0.006944	
23289	    0	9.035387	-4.453828	-2.252740	-0.288393	0.267222	-1.320659	0.090027	-0.045166	-0.022583	0.999976	-0.001442	0.001336	-0.006603	
23290	    0	9.790416	-5.789707	-2.547606	-0.332644	0.218965	-1.189621	0.097529	-0.058520	-0.025486	0.999980	-0.001663	0.001095	-0.005948	
23291	    0	9.991210	-7.621857	-2.566795	-0.367739	0.216104	-1.036840	0.099487	-0.076782	-0.025635	0.999984	-0.001839	0.001081	-0.005184	
23292	    0	9.566425	-9.538307	-2.978004	-0.375749	0.191689	-0.827983	0.095240	-0.095834	-0.029692	0.999989	-0.001879	0.000958	-0.004140	
23293	    0	8.719660	-11.410324	-3.337731	-0.248528	0.206757	-0.540925	0.086853	-0.114380	-0.033325	0.999994	-0.001243	0.001034	-0.002705	
23294	    0	8.783045	-11.259782	-3.048293	-0.060082	0.247383	-0.147820	0.087709	-0.112672	-0.030558	0.999998	-0.000300	0.001237	-0.000739	
23295	    0	9.650322	-9.700033	-1.929663	-0.173760	0.407410	0.319672	0.096619	-0.096863	-0.019409	0.999996	-0.000869	0.002037	0.001598	
23296	    0	11.547614	-8.119255	-0.322710	-0.612644	0.606731	0.785069	0.115784	-0.080749	-0.003330	0.999983	-0.003063	0.003034	0.003925	
23297	    0	12.826320	-9.533018	-0.314636	-1.209277	0.744068	1.252002	0.128845	-0.094543	-0.003052	0.999955	-0.006046	0.003720	0.006260	
23298	    0	13.096808	-9.101957	-0.468044	-1.529922	0.759334	1.724095	0.131729	-0.089921	-0.004489	0.999926	-0.007649	0.003797	0.008620	
23299	    0	13.603588	-8.630272	-2.571832	-1.262700	0.577752	2.201142	0.136902	-0.084961	-0.025574	0.999915	-0.006313	0.002889	0.011005	
23300	    0	14.692132	-8.045765	-4.252898	-0.423253	0.320444	2.637180	0.147898	-0.078602	-0.042598	0.999909	-0.002116	0.001602	0.013186	
23301	    0	17.011005	-3.999508	-6.053338	0.641083	0.015259	2.871045	0.170654	-0.037354	-0.060669	0.999891	0.003205	0.000076	0.014355	
23302	    0	19.951979	1.056943	-7.893725	0.978510	-0.060275	2.973296	0.199353	0.013920	-0.078815	0.999877	0.004892	-0.000301	0.014866	
23303	    0	22.056024	5.437470	-8.522544	0.601219	-0.140958	2.936664	0.219788	0.057861	-0.084900	0.999887	0.003006	-0.000705	0.014683	
23304	    0	20.375155	9.041586	-8.197187	-0.019837	-0.240906	2.822780	0.202547	0.093272	-0.081737	0.999899	-0.000099	-0.001204	0.014113	
23305	    0	19.295346	8.458718	-7.311423	-0.483529	-0.401320	2.794743	0.191895	0.087097	-0.072937	0.999897	-0.002418	-0.002007	0.013973	
23306	    0	18.557920	6.867202	-5.437591	-0.782614	-0.602554	2.799137	0.184759	0.071050	-0.054093	0.999889	-0.003913	-0.003013	0.013995	
23307	    0	16.804388	6.591594	-3.274648	-0.776511	-0.787383	2.776440	0.167236	0.068115	-0.032349	0.999887	-0.003882	-0.003937	0.013882	
23308	    0	14.484468	6.444549	-1.246032	-0.296412	-0.927575	2.688309	0.144017	0.066367	-0.011889	0.999897	-0.001482	-0.004638	0.013441	
23309	    0	13.181400	6.019530	-0.365106	0.344860	-1.123657	2.572718	0.131042	0.061890	-0.002808	0.999900	0.001724	-0.005618	0.012863	
23310	    0	12.307119	6.065561	-0.708720	0.856238	-1.273580	2.410208	0.122369	0.062160	-0.006042	0.999897	0.004281	-0.006368	0.012051	
23311	    0	12.091380	6.104587	-1.120179	1.345872	-1.286170	2.195816	0.120300	0.062439	-0.010010	0.999896	0.006729	-0.006431	0.010979	
23312	    0	11.860107	5.851981	-0.548541	1.933931	-1.163907	1.915429	0.118060	0.059697	-0.004224	0.999890	0.009669	-0.005819	0.009577	
23313	    0	10.561193	6.307006	-0.154328	2.508084	-1.066637	1.801380	0.105042	0.064026	-0.000183	0.999866	0.012540	-0.005333	0.009007	
23314	    0	9.261179	6.672687	0.145806	2.823022	-0.993780	1.862622	0.091973	0.067552	0.002866	0.999845	0.014114	-0.004969	0.009313	
23315	    0	7.940092	6.584380	0.095772	2.897030	-0.861212	1.799867	0.078796	0.066528	0.002258	0.999845	0.014484	-0.004306	0.008999	
23316	    0	6.800915	6.264535	0.286102	2.835216	-0.689920	1.658517	0.067474	0.063155	0.003987	0.999859	0.014175	-0.003449	0.008292	
23317	    0	6.304711	6.323489	-0.105382	2.474304	-0.658250	1.533565	0.062561	0.063721	-0.000061	0.999888	0.012371	-0.003291	0.007668	
23318	    0	6.265516	6.874570	0.536957	2.100623	-0.650997	1.410524	0.062149	0.069122	0.006297	0.999914	0.010503	-0.003255	0.007052	
23319	    0	6.245545	7.771058	0.420044	1.528386	-0.672162	1.254295	0.061951	0.078064	0.005005	0.999945	0.007642	-0.003361	0.006271	
23320	    0	6.091962	9.258797	0.702633	1.150909	-0.647172	1.133361	0.060369	0.092888	0.007756	0.999962	0.005754	-0.003236	0.005667	
23321	    0	5.973435	9.916674	1.000923	0.765425	-0.571446	1.007851	0.059204	0.099426	0.010559	0.999975	0.003827	-0.002857	0.005039	
23322	    0	5.898645	9.335120	0.813851	0.205422	-0.596049	0.874524	0.058553	0.093599	0.008410	0.999985	0.001027	-0.002980	0.004373	
23323	    0	5.231956	9.027448	0.574408	-0.210572	-0.573542	0.666048	0.052002	0.090454	0.005798	0.999990	-0.001053	-0.002868	0.003330	
23324	    0	4.190857	9.009578	0.706330	-0.570299	-0.499155	0.520517	0.041656	0.090224	0.006910	0.999989	-0.002851	-0.002496	0.002603	
23325	    0	3.916442	7.861192	-0.345310	-1.228915	-0.466923	0.436405	0.039001	0.078674	-0.003845	0.999975	-0.006145	-0.002335	0.002182	
23326	    0	4.076097	6.833006	1.463309	-1.609439	-0.298313	0.271991	0.040647	0.068501	0.014143	0.999965	-0.008047	-0.001492	0.001360	
23327	    0	5.100199	3.380590	3.850957	-1.095587	-0.264551	-0.077820	0.050964	0.033997	0.038391	0.999984	-0.005478	-0.001323	-0.000389	
23328	    0	5.928208	0.964470	2.266550	-1.228723	-0.369456	-0.339320	0.059257	0.009684	0.022716	0.999977	-0.006144	-0.001847	-0.001697	
23329	    0	6.201974	1.425702	1.592814	-1.556988	-0.560768	-0.516516	0.062012	0.014221	0.015991	0.999962	-0.007785	-0.002804	-0.002583	
23330	    0	7.339727	1.379111	-0.512147	-1.867517	-0.435074	-0.613223	0.073450	0.013518	-0.005089	0.999949	-0.009337	-0.002175	-0.003066	
23331	    0	9.208407	-3.238425	-4.230846	-2.233747	-0.286872	-0.627913	0.092041	-0.033142	-0.041809	0.999931	-0.011168	-0.001434	-0.003139	
23332	    0	10.527569	-13.188105	-8.507093	-1.690316	-0.045968	-0.665865	0.104854	-0.132943	-0.083926	0.999958	-0.008451	-0.000230	-0.003329	
23333	    0	9.927258	-22.917538	-9.730894	-0.367547	0.197602	-0.527192	0.098572	-0.229614	-0.096985	0.999994	-0.001838	0.000988	-0.002636	
23334	    0	10.745158	-23.763080	-7.837032	0.788882	0.059509	-0.205994	0.107183	-0.237430	-0.079339	0.999991	0.003944	0.000298	-0.001030	
23335	    0	11.476018	-17.712538	-6.482019	1.295672	0.342562	0.111390	0.114746	-0.176636	-0.066162	0.999977	0.006478	0.001713	0.000557	
23336	    0	10.402093	-10.082864	-5.490220	1.578545	0.997749	0.322728	0.103905	-0.100221	-0.056213	0.999954	0.007893	0.004989	0.001614	
23337	    0	8.335688	-4.408306	-2.939737	1.782264	1.313237	0.421151	0.083252	-0.043640	-0.030334	0.999936	0.008911	0.006566	0.002106	
23338	    0	8.945650	3.137102	-0.490329	2.077152	1.108577	0.331696	0.089376	0.031571	-0.005072	0.999928	0.010386	0.005543	0.001658	
23339	    0	10.608597	12.530167	1.523125	2.450628	0.650996	-0.198370	0.106262	0.125000	0.016418	0.999919	0.012253	0.003255	-0.000992	
23340	    0	14.946099	3.328416	-2.786954	1.429571	-0.099564	-0.311664	0.149527	0.033249	-0.027557	0.999972	0.007148	-0.000498	-0.001558	
23341	    0	17.298109	-16.983434	-7.250966	0.265695	-0.968177	-0.777441	0.172668	-0.170410	-0.071899	0.999979	0.001328	-0.004841	-0.003887	
23342	    0	16.766857	-8.869026	-5.616754	2.372427	-0.498976	-0.950268	0.167388	-0.088815	-0.056803	0.999915	0.011862	-0.002495	-0.004751	
23343	    0	12.209948	14.561381	2.474874	2.819164	0.097088	-0.868257	0.122742	0.144714	0.026733	0.999890	0.014095	0.000485	-0.004341	
23344	    0	11.014977	19.118154	4.484563	0.738147	0.114632	-0.714115	0.110857	0.190619	0.045486	0.999987	0.003691	0.000573	-0.003571	
23345	    0	11.222539	9.596724	2.595951	-0.415040	0.007057	-0.673677	0.112549	0.095642	0.025757	0.999991	-0.002075	0.000035	-0.003368	
23346	    0	9.718866	7.293143	-2.420415	0.045395	0.086975	-0.822451	0.097477	0.072536	-0.024230	0.999991	0.000227	0.000435	-0.004112	
23347	    0	8.691171	11.098872	-4.052705	-0.238038	0.118447	-0.930027	0.087402	0.110535	-0.040710	0.999988	-0.001190	0.000592	-0.004650	
23348	    0	10.729729	8.909326	-5.346061	-0.507167	0.102616	-1.122673	0.107767	0.088353	-0.053741	0.999980	-0.002536	0.000513	-0.005613	
23349	    0	12.148953	4.839543	-8.524421	-0.001335	0.135804	-1.394665	0.121765	0.047546	-0.085327	0.999975	-0.000007	0.000679	-0.006973	
23350	    0	11.510430	1.433226	-10.394349	-0.055505	0.038720	-1.696226	0.115200	0.013327	-0.103970	0.999964	-0.000278	0.000194	-0.008481	
23351	    0	10.607099	2.497189	-9.622242	-0.502785	-0.057794	-1.858549	0.106323	0.023743	-0.096252	0.999953	-0.002514	-0.000289	-0.009293	
23352	    0	10.354034	3.539759	-6.923793	-0.926989	-0.086405	-1.909864	0.103900	0.034085	-0.069353	0.999943	-0.004635	-0.000432	-0.009549	
23353	    0	10.186873	3.095421	-4.172605	-1.219776	-0.077821	-1.910441	0.102173	0.029724	-0.041870	0.999935	-0.006099	-0.000389	-0.009552	
23354	    0	10.144827	2.662611	-1.252420	-1.310949	-0.069238	-1.854173	0.101693	0.025601	-0.012659	0.999935	-0.006555	-0.000346	-0.009271	
23355	    0	10.014141	3.590724	-0.245602	-1.376373	-0.026513	-1.825754	0.100464	0.034973	-0.002686	0.999934	-0.006882	-0.000133	-0.009129	
23356	    0	10.057885	3.307950	-0.224214	-1.613084	0.046159	-1.791997	0.100869	0.032157	-0.002527	0.999927	-0.008065	0.000231	-0.008960	
23357	    0	9.970363	3.159048	-0.115918	-1.517330	0.141147	-1.760904	0.099976	0.030701	-0.001465	0.999931	-0.007586	0.000706	-0.008804	
23358	    0	9.968869	2.440685	-0.508697	-1.169417	0.177577	-1.727899	0.099890	0.023514	-0.005315	0.999945	-0.005847	0.000888	-0.008639	
23359	    0	9.760457	0.822283	-1.446335	-0.909247	0.183108	-1.705196	0.097656	0.007324	-0.014587	0.999952	-0.004546	0.000916	-0.008526	
23360	    0	9.448728	0.131060	-2.268557	-0.892844	0.196078	-1.683261	0.094471	0.000414	-0.022781	0.999953	-0.004464	0.000980	-0.008416	
23361	    0	8.953681	0.410346	-2.374289	-1.017778	0.232128	-1.669338	0.089539	0.003235	-0.023865	0.999951	-0.005089	0.001161	-0.008347	
23362	    0	8.684840	0.233385	-2.199908	-1.135083	0.280576	-1.651220	0.086832	0.001492	-0.022131	0.999949	-0.005675	0.001403	-0.008256	
23363	    0	8.472020	-0.314762	-2.333373	-1.119251	0.293927	-1.626614	0.084656	-0.003967	-0.023438	0.999949	-0.005596	0.001470	-0.008133	
23364	    0	8.225032	-0.327306	-2.535361	-0.958075	0.275807	-1.606202	0.082185	-0.004055	-0.025449	0.999955	-0.004790	0.001379	-0.008031	
23365	    0	8.106340	-0.438123	-2.261632	-0.833714	0.269321	-1.607536	0.080994	-0.005127	-0.022705	0.999958	-0.004169	0.001347	-0.008038	
23366	    0	8.127496	-0.193478	-2.057979	-0.739680	0.279240	-1.629661	0.081226	-0.002673	-0.020684	0.999959	-0.003698	0.001396	-0.008148	
23367	    0	8.597439	-0.055652	-1.812202	-0.738345	0.305943	-1.673150	0.085938	-0.001343	-0.018250	0.999956	-0.003692	0.001530	-0.008366	
23368	    0	9.059995	-0.156818	-1.515571	-0.718700	0.360304	-1.716639	0.090554	-0.002400	-0.015311	0.999954	-0.003593	0.001801	-0.008583	
23369	    0	9.361319	-0.828204	-1.418237	-0.614939	0.402266	-1.773099	0.093506	-0.009155	-0.014343	0.999953	-0.003075	0.002011	-0.008865	
23370	    0	9.648158	-1.944702	-1.644599	-0.529679	0.411421	-1.784542	0.096269	-0.020350	-0.016591	0.999954	-0.002648	0.002057	-0.008923	
23371	    0	9.254512	-3.241474	-1.717879	-0.492675	0.379949	-1.747919	0.092224	-0.033264	-0.017273	0.999956	-0.002463	0.001900	-0.008739	
23372	    0	8.836293	-4.167144	-1.901160	-0.479514	0.307278	-1.648352	0.087986	-0.042443	-0.019046	0.999962	-0.002398	0.001536	-0.008242	
23373	    0	9.018940	-5.268659	-2.162271	-0.577551	0.169565	-1.461044	0.089783	-0.053406	-0.021545	0.999969	-0.002888	0.000848	-0.007305	
23374	    0	9.912855	-5.919965	-1.791258	-0.647550	0.086404	-1.227198	0.098755	-0.059864	-0.017762	0.999975	-0.003238	0.000432	-0.006136	
23375	    0	10.660021	-6.211215	-2.056017	-0.660710	0.060463	-1.061256	0.106262	-0.062744	-0.020386	0.999980	-0.003304	0.000302	-0.005306	
23376	    0	10.302461	-7.028268	-2.690126	-0.613025	0.063134	-0.889020	0.102702	-0.070822	-0.026717	0.999985	-0.003065	0.000316	-0.004445	
23377	    0	9.771097	-8.057123	-3.062080	-0.496484	0.074768	-0.711062	0.097412	-0.080994	-0.030457	0.999990	-0.002482	0.000374	-0.003555	
23378	    0	9.603645	-8.634065	-3.058684	-0.313950	0.128937	-0.513268	0.095795	-0.086635	-0.030513	0.999995	-0.001570	0.000645	-0.002566	
23379	    0	9.762562	-8.443952	-3.278363	-0.143242	0.233460	-0.270081	0.097473	-0.084595	-0.032837	0.999998	-0.000716	0.001167	-0.001350	
23380	    0	10.386463	-6.803431	-3.045043	-0.213432	0.344467	0.059319	0.103832	-0.068036	-0.030557	0.999997	-0.001067	0.001722	0.000297	
23381	    0	12.456655	-6.630303	-1.921436	-0.641444	0.457002	0.521090	0.124695	-0.066040	-0.019287	0.999989	-0.003207	0.002285	0.002605	
23382	    0	13.748102	-8.988173	-1.111476	-1.254478	0.541121	0.984585	0.137892	-0.089272	-0.010926	0.999964	-0.006272	0.002706	0.004923	
23383	    0	13.520928	-8.768044	-1.444284	-1.444272	0.600636	1.462583	0.135803	-0.086792	-0.014221	0.999942	-0.007221	0.003003	0.007313	
23384	    0	13.284535	-9.621893	-1.410797	-1.635982	0.611514	2.037491	0.133775	-0.094973	-0.013736	0.999909	-0.008180	0.003057	0.010187	
23385	    0	13.597822	-9.184954	-2.727236	-1.373151	0.480669	2.581119	0.137085	-0.090271	-0.026978	0.999889	-0.006866	0.002403	0.012905	
23386	    0	15.084877	-5.680290	-5.517536	-0.349820	0.127415	2.847197	0.151603	-0.054745	-0.055175	0.999896	-0.001749	0.000637	0.014235	
23387	    0	16.749556	-1.109051	-6.264123	0.382438	0.101475	2.967945	0.167603	-0.008484	-0.062744	0.999887	0.001912	0.000507	0.014839	
23388	    0	19.618605	1.617341	-6.215074	0.324643	0.021554	2.949632	0.195911	0.019165	-0.062142	0.999889	0.001623	0.000108	0.014748	
23389	    0	19.573354	6.287444	-5.854841	0.032807	-0.192839	2.796265	0.194885	0.065613	-0.058350	0.999902	0.000164	-0.000964	0.013981	
23390	    0	17.954298	7.753332	-5.985136	-0.151448	-0.376904	2.715196	0.178581	0.079917	-0.059574	0.999906	-0.000757	-0.001884	0.013576	
23391	    0	17.598001	6.886936	-5.286664	-0.325786	-0.559825	2.716916	0.175171	0.071167	-0.052490	0.999902	-0.001629	-0.002799	0.013584	
23392	    0	16.234750	6.088593	-3.623208	-0.365842	-0.694871	2.776814	0.161607	0.063067	-0.035784	0.999895	-0.001829	-0.003474	0.013884	
23393	    0	14.273161	5.547197	-1.999204	-0.175482	-0.889428	2.782539	0.142029	0.057434	-0.019409	0.999892	-0.000877	-0.004447	0.013912	
23394	    0	12.818696	4.767170	-1.341498	0.095943	-1.085129	2.704525	0.127597	0.049406	-0.012698	0.999893	0.000480	-0.005425	0.013522	
23395	    0	12.263948	4.493017	-1.646233	0.383009	-1.225134	2.631472	0.122131	0.046570	-0.015625	0.999892	0.001915	-0.006125	0.013157	
23396	    0	12.130609	4.419134	-2.129701	0.688386	-1.333665	2.487652	0.120881	0.045768	-0.020334	0.999894	0.003442	-0.006668	0.012438	
23397	    0	11.629821	4.459766	-2.185768	1.104967	-1.366474	2.356042	0.115906	0.046082	-0.020813	0.999891	0.005525	-0.006832	0.011780	
23398	    0	10.959302	4.639144	-2.009474	1.582398	-1.322988	2.253048	0.109188	0.047776	-0.018997	0.999883	0.007912	-0.006615	0.011265	
23399	    0	10.063209	5.012911	-1.560121	2.061744	-1.216942	2.211859	0.100159	0.051392	-0.014465	0.999866	0.010308	-0.006084	0.011059	
23400	    0	8.815546	5.403002	-1.435520	2.390023	-1.125581	2.148351	0.087644	0.055136	-0.013206	0.999855	0.011950	-0.005628	0.010741	
23401	    0	7.542571	5.366876	-1.613653	2.482151	-1.030017	2.040197	0.074951	0.054626	-0.015076	0.999857	0.012410	-0.005150	0.010201	
23402	    0	6.925662	5.413315	-1.094934	2.535932	-0.859299	1.857458	0.068793	0.054904	-0.009960	0.999866	0.012679	-0.004296	0.009287	
23403	    0	7.137794	4.971906	-0.817547	2.526387	-0.782808	1.688454	0.070984	0.050415	-0.007263	0.999876	0.012631	-0.003914	0.008442	
23404	    0	7.358141	5.794418	-1.230527	2.237204	-0.832395	1.517346	0.073187	0.058631	-0.011347	0.999900	0.011186	-0.004162	0.007586	
23405	    0	7.289703	7.305144	-1.278338	2.006587	-0.902392	1.368752	0.072449	0.073669	-0.011719	0.999915	0.010033	-0.004512	0.006844	
23406	    0	7.354439	8.358358	-1.240466	1.716271	-0.973533	1.219014	0.073090	0.084130	-0.011328	0.999932	0.008581	-0.004868	0.006095	
23407	    0	7.027790	9.217857	-0.719116	1.316855	-1.019876	1.053636	0.069824	0.092590	-0.006226	0.999951	0.006584	-0.005099	0.005268	
23408	    0	6.212263	9.467688	-0.149883	0.871667	-0.984011	0.827607	0.061735	0.094937	-0.000781	0.999969	0.004358	-0.004920	0.004138	
23409	    0	4.852450	9.774656	-0.083659	0.427248	-0.829129	0.631717	0.048218	0.097900	-0.000427	0.999984	0.002136	-0.004146	0.003159	
23410	    0	3.693161	10.237325	1.428162	-0.252534	-0.671771	0.560953	0.036596	0.102494	0.014276	0.999990	-0.001263	-0.003359	0.002805	
23411	    0	4.247516	8.073890	3.628644	-0.598718	-0.418092	0.403596	0.042236	0.080933	0.036133	0.999990	-0.002994	-0.002090	0.002018	
23412	    0	5.938483	4.255493	5.718188	-0.218773	-0.010681	0.046158	0.059372	0.042631	0.057138	0.999999	-0.001094	-0.000053	0.000231	
23413	    0	6.448520	3.035311	4.891580	-0.308228	-0.062370	-0.291443	0.064514	0.030334	0.048889	0.999997	-0.001541	-0.000312	-0.001457	
23414	    0	6.523275	2.822192	5.288833	-0.421525	-0.411988	-0.520135	0.065197	0.028164	0.052963	0.999991	-0.002108	-0.002060	-0.002601	
23415	    0	7.443800	1.455412	3.109439	-0.733761	-0.560764	-0.710301	0.074402	0.014404	0.031250	0.999983	-0.003669	-0.002804	-0.003551	
23416	    0	7.657699	1.261152	-0.976932	-1.273168	-0.434498	-0.725181	0.076643	0.012272	-0.009682	0.999970	-0.006366	-0.002172	-0.003626	
23417	    0	8.722311	-1.093911	-6.331896	-1.717401	-0.111963	-0.682841	0.087219	-0.011780	-0.063171	0.999957	-0.008587	-0.000560	-0.003414	
23418	    0	9.192270	-6.813540	-9.592368	-2.045863	0.066759	-0.775162	0.091623	-0.069468	-0.095248	0.999940	-0.010229	0.000334	-0.003876	
23419	    0	9.111992	-14.949383	-6.951926	-1.554890	0.015450	-0.798808	0.090515	-0.150391	-0.068359	0.999961	-0.007774	0.000077	-0.003994	
23420	    0	8.793592	-19.618493	-4.935458	-0.649645	-0.156594	-0.523950	0.087460	-0.196573	-0.048648	0.999990	-0.003248	-0.000783	-0.002620	
23421	    0	9.706761	-15.970522	-6.490279	-0.128174	-0.086784	-0.215149	0.096924	-0.159851	-0.064758	0.999999	-0.000641	-0.000434	-0.001076	
23422	    0	9.212859	-8.935979	-6.876001	0.325204	0.563241	-0.012779	0.091928	-0.089253	-0.069164	0.999994	0.001626	0.002816	-0.000064	
23423	    0	8.652728	-5.263497	-4.287241	1.040088	1.145947	0.095368	0.086304	-0.052368	-0.043640	0.999969	0.005200	0.005730	0.000477	
23424	    0	11.268989	-0.383045	0.335700	2.086309	1.248009	-0.128940	0.112705	-0.003933	0.002613	0.999926	0.010431	0.006240	-0.000645	
23425	    0	14.522801	9.098882	3.901872	2.846645	1.202633	-0.637081	0.145752	0.089966	0.039429	0.999875	0.014233	0.006013	-0.003185	
23426	    0	17.828775	-4.405839	-0.987124	1.511209	0.192835	-0.511938	0.178164	-0.044437	-0.010378	0.999968	0.007556	0.000964	-0.002560	
23427	    0	17.774295	-21.268533	-7.345383	0.233652	-0.931554	-0.671391	0.177368	-0.213196	-0.072876	0.999983	0.001168	-0.004658	-0.003357	
23428	    0	17.084832	-5.146653	-6.919595	1.874574	-0.321012	-0.660907	0.170790	-0.051381	-0.069404	0.999949	0.009373	-0.001605	-0.003304	
23429	    0	12.208266	15.965679	3.469287	1.890786	0.406653	-0.430305	0.122498	0.159058	0.035950	0.999950	0.009454	0.002033	-0.002151	
23430	    0	10.109840	16.192872	3.127869	-0.394440	0.172043	-0.349617	0.101408	0.161813	0.030872	0.999995	-0.001972	0.000860	-0.001748	
23431	    0	9.928198	5.001949	0.188679	-1.114661	0.166512	-0.328066	0.099365	0.049866	0.001526	0.999982	-0.005573	0.000833	-0.001640	
23432	    0	7.836926	5.712616	-3.082114	-0.640871	0.246621	-0.522615	0.078480	0.056822	-0.031100	0.999990	-0.003204	0.001233	-0.002613	
23433	    0	7.649920	8.376292	-3.983658	-0.729373	0.211526	-0.633242	0.076721	0.083374	-0.040222	0.999988	-0.003647	0.001058	-0.003166	
23434	    0	9.434195	7.090710	-5.905826	-0.195885	0.210763	-0.885394	0.094592	0.070431	-0.059227	0.999989	-0.000979	0.001054	-0.004427	
23435	    0	11.575570	3.895252	-8.649847	0.308230	0.187875	-1.199349	0.115906	0.038391	-0.086548	0.999980	0.001541	0.000939	-0.005997	
23436	    0	11.639430	3.957084	-9.633538	0.161935	0.052643	-1.521316	0.116666	0.038762	-0.096334	0.999970	0.000810	0.000263	-0.007607	
23437	    0	11.058815	6.053596	-8.903891	-0.238803	0.001717	-1.659413	0.111084	0.059509	-0.089111	0.999965	-0.001194	0.000009	-0.008297	
23438	    0	11.157171	4.988808	-6.528879	-0.599297	0.000763	-1.751162	0.112001	0.048713	-0.065436	0.999957	-0.002996	0.000004	-0.008756	
23439	    0	10.727277	4.490170	-3.922517	-0.895706	0.010872	-1.791412	0.107666	0.043762	-0.039429	0.999949	-0.004478	0.000054	-0.008957	
23440	    0	10.105397	4.990650	-1.834935	-1.119063	0.078203	-1.840246	0.101500	0.048870	-0.018664	0.999942	-0.005595	0.000391	-0.009201	
23441	    0	10.213583	4.400470	-0.952122	-1.374658	0.134280	-1.892133	0.102539	0.042969	-0.009888	0.999931	-0.006873	0.000671	-0.009460	
23442	    0	10.605425	2.887797	-0.888421	-1.513519	0.182919	-1.936580	0.106318	0.027781	-0.009194	0.999924	-0.007567	0.000915	-0.009683	
23443	    0	10.448639	2.104112	-0.777576	-1.421201	0.260932	-1.961566	0.104675	0.019958	-0.008057	0.999926	-0.007106	0.001305	-0.009808	
23444	    0	10.018114	1.475871	-1.013111	-1.209095	0.290305	-1.954504	0.100304	0.013717	-0.010362	0.999932	-0.006045	0.001451	-0.009772	
23445	    0	9.779763	0.101204	-1.603610	-0.999280	0.279241	-1.905097	0.097778	0.000000	-0.016174	0.999941	-0.004996	0.001396	-0.009525	
23446	    0	9.466076	-1.232139	-2.252577	-0.951403	0.255589	-1.834521	0.094513	-0.013296	-0.022585	0.999946	-0.004757	0.001278	-0.009172	
23447	    0	9.092500	-1.484094	-2.051753	-1.026744	0.287633	-1.763184	0.090759	-0.015747	-0.020569	0.999947	-0.005134	0.001438	-0.008816	
23448	    0	8.814179	-1.629352	-2.204294	-1.042765	0.304418	-1.675634	0.087967	-0.017146	-0.022089	0.999949	-0.005214	0.001522	-0.008378	
23449	    0	8.679982	-1.959300	-1.980631	-0.962653	0.292973	-1.609063	0.086609	-0.020386	-0.019836	0.999954	-0.004813	0.001465	-0.008045	
23450	    0	8.590432	-1.803197	-1.510482	-0.839053	0.253108	-1.506252	0.085746	-0.018742	-0.015136	0.999962	-0.004195	0.001266	-0.007531	
23451	    0	8.714710	-1.263632	-1.611828	-0.617224	0.221445	-1.422897	0.087036	-0.013306	-0.016174	0.999969	-0.003086	0.001107	-0.007114	
23452	    0	8.932014	-0.371539	-1.377752	-0.518995	0.236132	-1.412978	0.089274	-0.004382	-0.013872	0.999970	-0.002595	0.001181	-0.007065	
23453	    0	9.176021	-0.034018	-1.336425	-0.560766	0.276378	-1.438156	0.091736	-0.001038	-0.013489	0.999969	-0.002804	0.001382	-0.007191	
23454	    0	9.426879	-0.070419	-1.156026	-0.541884	0.335125	-1.510637	0.094240	-0.001448	-0.011715	0.999966	-0.002709	0.001676	-0.007553	
23455	    0	9.278573	-0.544869	-1.351290	-0.473028	0.373273	-1.606007	0.092712	-0.006226	-0.013672	0.999963	-0.002365	0.001866	-0.008030	
23456	    0	8.838493	-2.244842	-1.835372	-0.453764	0.363927	-1.654265	0.088161	-0.023220	-0.018462	0.999961	-0.002269	0.001820	-0.008271	
23457	    0	8.303663	-4.297190	-2.675690	-0.423437	0.313000	-1.625081	0.082642	-0.043701	-0.026794	0.999963	-0.002117	0.001565	-0.008125	
23458	    0	8.326803	-6.135266	-2.815500	-0.384335	0.264170	-1.484123	0.082772	-0.062022	-0.028146	0.999969	-0.001922	0.001321	-0.007421	
23459	    0	8.939730	-6.687231	-2.560426	-0.367740	0.209238	-1.314555	0.088928	-0.067505	-0.025574	0.999976	-0.001839	0.001046	-0.006573	
23460	    0	9.828043	-7.476218	-2.458703	-0.463679	0.158311	-1.089103	0.097852	-0.075353	-0.024490	0.999982	-0.002318	0.000792	-0.005445	
23461	    0	10.072872	-8.659925	-2.295929	-0.655177	0.182343	-0.842289	0.100342	-0.087097	-0.022766	0.999985	-0.003276	0.000912	-0.004211	
23462	    0	9.544066	-8.848969	-2.148006	-0.697139	0.243951	-0.594332	0.095151	-0.088847	-0.021287	0.999989	-0.003486	0.001220	-0.002972	
23463	    0	8.939589	-9.031375	-1.821045	-0.724604	0.274659	-0.304414	0.089233	-0.090515	-0.018005	0.999990	-0.003623	0.001373	-0.001522	
23464	    0	9.062831	-8.512660	-1.122112	-0.769045	0.349618	0.028420	0.090621	-0.085156	-0.011052	0.999990	-0.003845	0.001748	0.000142	
23465	    0	10.199719	-6.621417	-0.486125	-0.866703	0.483897	0.382234	0.102112	-0.066040	-0.004822	0.999986	-0.004333	0.002419	0.001911	
23466	    0	13.162393	-5.812008	-0.792299	-1.177418	0.599104	0.822839	0.131838	-0.057625	-0.007977	0.999969	-0.005887	0.002995	0.004114	
23467	    0	14.966386	-9.520307	-1.012924	-1.641688	0.794999	1.232935	0.150208	-0.094360	-0.009949	0.999939	-0.008208	0.003975	0.006165	
23468	    0	14.292122	-9.288519	-0.049648	-1.601831	0.903152	1.601068	0.143657	-0.091741	-0.000406	0.999926	-0.008009	0.004516	0.008005	
23469	    0	13.004175	-7.786390	-1.869285	-1.115254	0.820943	2.005054	0.130737	-0.076660	-0.018799	0.999926	-0.005576	0.004105	0.010025	
23470	    0	13.525332	-6.842419	-5.550695	-0.264175	0.515951	2.400841	0.135919	-0.066869	-0.055768	0.999924	-0.001321	0.002580	0.012004	
23471	    0	15.540416	-4.216574	-7.640823	0.706695	0.296030	2.619252	0.155823	-0.039856	-0.076782	0.999907	0.003533	0.001480	0.013096	
23472	    0	18.571062	-1.778916	-8.069136	1.013026	0.210960	2.599038	0.185832	-0.014965	-0.080968	0.999902	0.005065	0.001055	0.012995	
23473	    0	19.623612	2.871035	-8.897043	0.997383	0.112918	2.513199	0.195801	0.031616	-0.088928	0.999908	0.004987	0.000565	0.012566	
23474	    0	18.228919	6.304395	-8.634211	0.800156	0.097087	2.488398	0.181441	0.065650	-0.086171	0.999914	0.004001	0.000485	0.012442	
23475	    0	17.149768	7.153048	-7.825765	0.585381	0.023652	2.449863	0.170593	0.073853	-0.078064	0.999920	0.002927	0.000118	0.012249	
23476	    0	15.814925	6.065174	-5.716958	0.432789	-0.143818	2.473515	0.157423	0.062725	-0.056922	0.999921	0.002164	-0.000719	0.012367	
23477	    0	15.102754	4.790885	-2.835472	0.249679	-0.369273	2.551341	0.150452	0.049866	-0.028015	0.999916	0.001248	-0.001846	0.012756	
23478	    0	13.833468	5.170689	-1.471315	0.192076	-0.678464	2.544477	0.137711	0.053475	-0.014194	0.999912	0.000960	-0.003392	0.012722	
23479	    0	12.603469	5.647344	-1.086693	0.247390	-0.862910	2.481151	0.125366	0.058044	-0.010254	0.999912	0.001237	-0.004314	0.012405	
23480	    0	11.989026	5.789194	-0.452572	0.251968	-0.992993	2.360981	0.119216	0.059307	-0.003859	0.999917	0.001260	-0.004965	0.011805	
23481	    0	11.308039	5.758209	-0.010195	0.382243	-1.066426	2.230893	0.112427	0.058838	0.000610	0.999921	0.001911	-0.005332	0.011154	
23482	    0	10.948642	5.392971	0.303385	0.799771	-1.035907	2.053312	0.108907	0.055036	0.003818	0.999926	0.003999	-0.005179	0.010266	
23483	    0	10.046511	5.219221	0.774655	1.415483	-0.970486	1.932579	0.099915	0.053101	0.008606	0.999916	0.007077	-0.004852	0.009663	
23484	    0	9.314200	5.098806	0.876917	1.935072	-0.962481	1.892155	0.092609	0.051775	0.009714	0.999896	0.009675	-0.004812	0.009460	
23485	    0	8.531948	5.024998	0.416709	2.238740	-0.922429	1.807472	0.084839	0.050964	0.005127	0.999886	0.011193	-0.004612	0.009037	
23486	    0	7.790460	5.019647	-0.125066	2.324764	-0.830872	1.708667	0.077475	0.050867	-0.000340	0.999887	0.011623	-0.004154	0.008543	
23487	    0	7.243789	5.263055	-0.214163	2.277643	-0.709558	1.591546	0.072021	0.053223	-0.001282	0.999897	0.011388	-0.003548	0.007957	
23488	    0	6.656166	6.240383	-0.569987	2.041303	-0.653286	1.499600	0.066108	0.062953	-0.004843	0.999914	0.010206	-0.003266	0.007498	
23489	    0	6.328170	6.848657	0.064615	1.838918	-0.592055	1.375612	0.062805	0.068909	0.001465	0.999929	0.009194	-0.002960	0.006878	
23490	    0	6.274460	6.839314	-0.616008	1.135652	-0.712596	1.277370	0.062326	0.068825	-0.005548	0.999957	0.005678	-0.003563	0.006387	
23491	    0	6.102505	7.489684	-0.404689	0.523572	-0.820168	1.151287	0.060608	0.075256	-0.003601	0.999971	0.002618	-0.004101	0.005756	
23492	    0	5.734585	7.878694	0.054203	0.125886	-0.833708	0.983627	0.056954	0.079067	0.000830	0.999979	0.000629	-0.004169	0.004918	
23493	    0	5.433063	7.668449	0.090247	-0.234987	-0.832944	0.807958	0.054016	0.076904	0.001038	0.999982	-0.001175	-0.004165	0.004040	
23494	    0	5.092364	7.381118	-0.435357	-0.530437	-0.839429	0.561145	0.050735	0.073942	-0.004336	0.999983	-0.002652	-0.004197	0.002806	
23495	    0	4.499666	8.073138	-1.248350	-0.810056	-0.784306	0.307466	0.044922	0.080750	-0.012634	0.999983	-0.004050	-0.003922	0.001537	
23496	    0	4.282889	7.745132	-1.078520	-1.230631	-0.653272	0.135614	0.042812	0.077413	-0.011122	0.999975	-0.006153	-0.003266	0.000678	
23497	    0	5.111568	6.023946	-0.513693	-1.607342	-0.498968	-0.061036	0.051147	0.060181	-0.005493	0.999964	-0.008037	-0.002495	-0.000305	
23498	    0	6.283366	3.351058	1.882921	-1.207360	-0.294878	-0.422099	0.062877	0.033491	0.018720	0.999978	-0.006037	-0.001474	-0.002110	
23499	    0	7.270183	1.966671	0.945511	-1.172457	-0.329593	-0.692755	0.072754	0.019470	0.009460	0.999975	-0.005862	-0.001648	-0.003464	
23500	    0	7.325677	1.629362	0.117048	-1.128017	-0.559049	-0.833901	0.073320	0.015995	0.001285	0.999971	-0.005640	-0.002795	-0.004169	
23501	    0	7.986276	0.283988	-0.765267	-1.172650	-0.554472	-0.887308	0.079895	0.002441	-0.007446	0.999969	-0.005863	-0.002772	-0.004436	
23502	    0	8.862747	-2.178942	-2.335778	-1.420801	-0.369076	-0.839053	0.088577	-0.022326	-0.023037	0.999964	-0.007104	-0.001845	-0.004195	
23503	    0	10.285292	-7.681737	-4.841081	-1.530475	-0.174525	-0.762186	0.102600	-0.077576	-0.047729	0.999963	-0.007652	-0.000873	-0.003811	
23504	    0	10.613062	-15.480869	-6.944326	-0.995261	-0.097848	-0.691990	0.105627	-0.155518	-0.068619	0.999981	-0.004976	-0.000489	-0.003460	
23505	    0	10.673425	-20.629631	-7.924886	-0.002289	-0.157738	-0.576783	0.106201	-0.206604	-0.079163	0.999995	-0.000011	-0.000789	-0.002884	
23506	    0	10.718068	-18.781650	-7.620106	1.029783	-0.055123	-0.367166	0.106857	-0.187617	-0.077138	0.999985	0.005149	-0.000276	-0.001836	
23507	    0	10.357604	-12.970336	-6.393575	1.592464	0.424199	-0.164034	0.103333	-0.129272	-0.065186	0.999966	0.007962	0.002121	-0.000820	
23508	    0	9.261225	-7.285064	-4.035951	1.951065	0.910204	-0.070383	0.092400	-0.072482	-0.041489	0.999942	0.009755	0.004551	-0.000352	
23509	    0	8.152168	-3.273142	-1.709792	1.983683	0.983640	-0.087740	0.081421	-0.032593	-0.017822	0.999938	0.009918	0.004918	-0.000439	
23510	    0	9.927930	4.721610	1.153387	2.198652	0.814648	-0.281913	0.099393	0.046948	0.011646	0.999929	0.010993	0.004073	-0.001410	
23511	    0	13.547104	11.145751	3.244123	2.088209	0.493823	-0.672164	0.135925	0.110657	0.033264	0.999936	0.010441	0.002469	-0.003361	
23512	    0	17.419809	-4.746572	2.094431	0.883298	-0.358584	-0.686268	0.173996	-0.048156	0.021045	0.999982	0.004416	-0.001793	-0.003431	
23513	    0	19.453048	-16.270441	-3.317126	0.541119	-0.924689	-0.798804	0.194031	-0.163391	-0.032715	0.999977	0.002706	-0.004623	-0.003994	
23514	    0	18.328944	-0.427074	-4.823049	2.454824	0.086977	-0.662631	0.183254	-0.004285	-0.048363	0.999919	0.012274	0.000435	-0.003313	
23515	    0	11.821692	18.725445	3.953171	2.511102	0.830867	-0.677511	0.119019	0.186340	0.041382	0.999907	0.012555	0.004154	-0.003387	
23516	    0	10.284918	18.012038	2.161553	-0.111580	0.233079	-0.845912	0.103635	0.179695	0.021395	0.999990	-0.000558	0.001165	-0.004230	
23517	    0	9.922550	4.967254	-3.312546	-0.601008	0.103760	-0.884251	0.099426	0.049133	-0.033325	0.999985	-0.003005	0.000519	-0.004421	
23518	    0	6.958777	7.469544	-6.272629	-0.121499	0.192071	-1.187522	0.069969	0.074243	-0.062839	0.999981	-0.000607	0.000960	-0.005938	
23519	    0	7.357598	11.554222	-5.477903	-0.485043	0.152589	-1.295482	0.074280	0.114929	-0.055115	0.999975	-0.002425	0.000763	-0.006477	
23520	    0	10.116200	7.500955	-6.087677	-0.218584	0.106622	-1.483168	0.101682	0.074190	-0.061012	0.999971	-0.001093	0.000533	-0.007416	
23521	    0	11.584958	4.606388	-8.448236	0.017739	0.095369	-1.770043	0.116211	0.045044	-0.084534	0.999960	0.000089	0.000477	-0.008850	
23522	    0	10.892666	4.569551	-8.158822	-0.377280	0.032807	-1.964220	0.109354	0.044469	-0.081691	0.999949	-0.001886	0.000164	-0.009821	
23523	    0	10.477802	5.141512	-5.629508	-0.879496	0.002289	-2.011149	0.105286	0.050110	-0.056519	0.999939	-0.004397	0.000011	-0.010056	
23524	    0	11.147686	3.163250	-2.884165	-1.163318	0.033570	-2.009055	0.111781	0.030342	-0.029039	0.999932	-0.005816	0.000168	-0.010045	
23525	    0	10.679401	1.581112	-1.890812	-1.336701	0.064279	-1.937911	0.106934	0.014648	-0.019043	0.999930	-0.006683	0.000321	-0.009689	
23526	    0	9.876348	1.260613	-1.528491	-1.322966	0.115588	-1.860087	0.098866	0.011585	-0.015421	0.999934	-0.006615	0.000578	-0.009300	
23527	    0	9.633433	0.663642	-1.605744	-1.234460	0.165752	-1.786077	0.096375	0.005676	-0.016174	0.999940	-0.006172	0.000829	-0.008930	
23528	    0	9.219027	0.242604	-2.006435	-1.113720	0.197223	-1.701385	0.092186	0.001530	-0.020165	0.999948	-0.005569	0.000986	-0.008507	
23529	    0	8.838045	-0.415402	-2.582046	-1.010910	0.186351	-1.630427	0.088318	-0.005005	-0.025879	0.999953	-0.005054	0.000932	-0.008152	
23530	    0	8.725250	-0.904493	-3.496780	-0.961889	0.137903	-1.540778	0.087154	-0.009885	-0.034982	0.999958	-0.004809	0.000690	-0.007704	
23531	    0	8.844333	-1.413080	-3.439168	-1.037612	0.107004	-1.458760	0.088318	-0.014954	-0.034363	0.999959	-0.005188	0.000535	-0.007294	
23532	    0	8.882848	-1.445900	-3.043363	-1.015104	0.111200	-1.409358	0.088706	-0.015239	-0.030407	0.999962	-0.005075	0.000556	-0.007047	
23533	    0	8.921841	-1.308481	-2.252498	-0.858316	0.123788	-1.374069	0.089111	-0.013794	-0.022522	0.999967	-0.004292	0.000619	-0.006870	
23534	    0	9.104266	-0.798002	-1.879134	-0.685508	0.144960	-1.353468	0.090972	-0.008660	-0.018828	0.999970	-0.003428	0.000725	-0.006767	
23535	    0	9.267843	-0.177110	-1.433330	-0.522618	0.165750	-1.365674	0.092651	-0.002441	-0.014404	0.999972	-0.002613	0.000829	-0.006828	
23536	    0	9.171933	0.587245	-0.882002	-0.488667	0.186350	-1.405348	0.091749	0.005206	-0.008919	0.999971	-0.002443	0.000932	-0.007027	
23537	    0	9.056232	1.177602	-0.616183	-0.480657	0.215342	-1.440444	0.090637	0.011108	-0.006287	0.999970	-0.002403	0.001077	-0.007202	
23538	    0	9.152802	1.194999	-0.851936	-0.454335	0.257113	-1.486984	0.091602	0.011250	-0.008663	0.999969	-0.002272	0.001286	-0.007435	
23539	    0	9.379418	0.440080	-0.870167	-0.449376	0.297740	-1.532762	0.093811	0.003662	-0.008850	0.999967	-0.002247	0.001489	-0.007664	
23540	    0	9.324495	-0.662234	-1.037419	-0.440603	0.307659	-1.567286	0.093173	-0.007376	-0.010502	0.999966	-0.002203	0.001538	-0.007836	
23541	    0	8.757406	-1.906282	-1.340737	-0.420194	0.280002	-1.564806	0.087402	-0.019775	-0.013489	0.999966	-0.002101	0.001400	-0.007824	
23542	    0	8.205107	-3.645254	-1.940028	-0.415997	0.190546	-1.475921	0.081760	-0.037097	-0.019402	0.999969	-0.002080	0.000953	-0.007380	
23543	    0	8.187589	-5.462930	-2.270063	-0.424007	0.147249	-1.371014	0.081482	-0.055237	-0.022644	0.999973	-0.002120	0.000736	-0.006855	
23544	    0	8.643817	-6.496955	-2.722526	-0.424960	0.108147	-1.204117	0.086030	-0.065546	-0.027133	0.999979	-0.002125	0.000541	-0.006021	
23545	    0	9.393763	-7.301414	-2.477514	-0.579646	0.074006	-0.985723	0.093567	-0.073547	-0.024597	0.999983	-0.002898	0.000370	-0.004929	
23546	    0	9.751490	-9.114952	-2.108535	-0.739673	0.084305	-0.724986	0.097175	-0.091579	-0.020788	0.999986	-0.003698	0.000422	-0.003625	
23547	    0	9.375677	-10.039974	-2.435965	-0.728610	0.116921	-0.470735	0.093506	-0.100708	-0.024048	0.999990	-0.003643	0.000585	-0.002354	
23548	    0	8.987084	-10.490188	-2.236420	-0.800707	0.183297	-0.183678	0.089754	-0.105073	-0.022026	0.999990	-0.004004	0.000916	-0.000918	
23549	    0	9.166881	-10.194276	-1.532653	-0.887874	0.306703	0.177003	0.091736	-0.101929	-0.015015	0.999989	-0.004439	0.001534	0.000885	
23550	    0	9.633209	-8.735433	-1.000031	-0.852780	0.515559	0.569347	0.096555	-0.087122	-0.009877	0.999983	-0.004264	0.002578	0.002847	
23551	    0	11.508597	-9.332724	-1.167043	-0.923166	0.615889	1.052867	0.115540	-0.092773	-0.011597	0.999970	-0.004616	0.003079	0.005264	
23552	    0	13.634741	-10.924916	-1.034272	-1.296831	0.666059	1.584465	0.137174	-0.108231	-0.010095	0.999942	-0.006484	0.003330	0.007922	
23553	    0	14.514389	-10.429910	-0.471911	-1.273379	0.708217	2.035576	0.146179	-0.102844	-0.004578	0.999921	-0.006367	0.003541	0.010178	
23554	    0	14.459581	-6.466201	-1.815333	-0.695439	0.684376	2.413818	0.145300	-0.062975	-0.018429	0.999915	-0.003477	0.003422	0.012069	
23555	    0	15.254916	-4.145664	-3.000027	-0.256356	0.504510	2.703943	0.153015	-0.039429	-0.030334	0.999904	-0.001282	0.002522	0.013519	
23556	    0	17.302532	-0.055503	-5.581086	0.195319	0.224121	2.895267	0.172946	0.002004	-0.056004	0.999893	0.000977	0.001121	0.014476	
23557	    0	20.312639	3.259242	-7.261064	0.267801	0.126843	2.914533	0.202576	0.035645	-0.072693	0.999892	0.001339	0.000634	0.014572	
23558	    0	21.128154	6.860200	-6.718422	0.046732	0.027657	2.836513	0.210271	0.071605	-0.067197	0.999899	0.000234	0.000138	0.014182	
23559	    0	19.812591	7.792487	-6.074303	-0.123600	-0.124935	2.713859	0.197083	0.080566	-0.060669	0.999907	-0.000618	-0.000625	0.013569	
23560	    0	18.774077	6.753097	-6.108025	-0.229842	-0.370418	2.623445	0.186947	0.069917	-0.060813	0.999911	-0.001149	-0.001852	0.013117	
23561	    0	17.540221	5.647094	-4.585885	-0.475899	-0.531023	2.690211	0.174744	0.058716	-0.045532	0.999903	-0.002379	-0.002655	0.013451	
23562	    0	16.350385	6.151845	-3.097372	-0.613806	-0.649284	2.741909	0.162741	0.063659	-0.030638	0.999896	-0.003069	-0.003246	0.013709	
23563	    0	14.521425	6.512249	-2.281100	-0.402655	-0.753046	2.681058	0.144409	0.067017	-0.022400	0.999901	-0.002013	-0.003765	0.013405	
23564	    0	13.245018	5.822253	-1.863000	-0.066187	-0.873593	2.570040	0.131767	0.059913	-0.018073	0.999907	-0.000331	-0.004368	0.012850	
23565	    0	12.025461	5.317911	-1.647399	0.324449	-0.964382	2.371282	0.119690	0.054626	-0.015808	0.999916	0.001622	-0.004822	0.011856	
23566	    0	10.976765	5.282799	-1.587593	0.882363	-1.015881	2.159177	0.109266	0.054077	-0.015083	0.999919	0.004412	-0.005079	0.010796	
23567	    0	10.495901	5.222068	-1.243870	1.413959	-1.010161	1.988278	0.104492	0.053345	-0.011536	0.999912	0.007070	-0.005051	0.009941	
23568	    0	10.010728	5.265749	-0.523466	1.767978	-0.974305	1.898063	0.099624	0.053645	-0.004277	0.999904	0.008840	-0.004871	0.009490	
23569	    0	9.268670	5.705385	0.121005	1.987523	-0.898582	1.789152	0.092163	0.057861	0.002197	0.999900	0.009937	-0.004493	0.008945	
23570	    0	8.203205	6.143078	0.479163	2.176739	-0.765635	1.637704	0.081505	0.062040	0.005777	0.999900	0.010883	-0.003828	0.008188	
23571	    0	7.038922	6.359672	1.108045	2.426996	-0.655960	1.458029	0.069885	0.063965	0.012085	0.999894	0.012135	-0.003280	0.007290	
23572	    0	6.029314	6.030683	0.319053	2.355652	-0.685714	1.314587	0.059882	0.060657	0.004109	0.999903	0.011778	-0.003428	0.006573	
