// Start Time: Unknown
// Update Rate: 100.0Hz
// Filter Profile: human (34.3)
// Firmware Version: 2.1.4
PacketCounter	SampleTimeFine	Acc_X	Acc_Y	Acc_Z	Gyr_X	Gyr_Y	Gyr_Z	VelInc_X	VelInc_Y	VelInc_Z	OriInc_q0	OriInc_q1	OriInc_q2	OriInc_q3	
43804	    0	11.525820	13.992896	0.603244	0.581742	-0.266076	-0.002670	0.115252	0.139909	0.006593	0.999994	0.002909	-0.001330	-0.000013	
43805	    0	10.337719	12.900776	-0.599123	0.339700	-0.067902	-0.685884	0.103821	0.128662	-0.005737	0.999992	0.001698	-0.000340	-0.003429	
43806	    0	9.930614	11.015969	-1.642626	0.029946	0.042153	-1.287278	0.100009	0.109520	-0.016431	0.999979	0.000150	0.000211	-0.006436	
43807	    0	10.232582	8.843857	-1.550486	-0.177767	0.081826	-1.750969	0.103088	0.087524	-0.015625	0.999961	-0.000889	0.000409	-0.008755	
43808	    0	10.320415	7.459338	-1.079291	-0.300985	0.099756	-2.066459	0.103962	0.073505	-0.010956	0.999945	-0.001505	0.000499	-0.010332	
43809	    0	10.137949	6.549663	-0.413769	-0.388917	0.137332	-2.272084	0.102112	0.064331	-0.004333	0.999933	-0.001945	0.000687	-0.011360	
43810	    0	10.032015	6.089954	-0.321492	-0.448619	0.133518	-2.370892	0.101030	0.059697	-0.003417	0.999927	-0.002243	0.000668	-0.011854	
43811	    0	8.343825	10.828655	-9.041339	-0.438511	-0.461591	-2.445286	0.084961	0.107056	-0.090454	0.999920	-0.002192	-0.002308	-0.012226	
43812	    0	13.565359	22.718017	-17.519638	0.408196	-1.056540	-3.505333	0.140532	0.225101	-0.174002	0.999830	0.002041	-0.005282	-0.017526	
43813	    0	18.475974	21.993672	-9.931352	0.788959	-0.202009	-4.848969	0.190125	0.215759	-0.098267	0.999698	0.003944	-0.001010	-0.024242	
43814	    0	22.366464	4.435726	2.890581	-3.311979	0.886272	-4.490305	0.224715	0.039780	0.027227	0.999600	-0.016558	0.004431	-0.022449	
43815	    0	16.332963	-29.434415	4.399952	-0.696581	-0.018883	-2.351438	0.159851	-0.296082	0.045044	0.999925	-0.003483	-0.000094	-0.011757	
43816	    0	8.074017	-6.566160	-0.567679	1.449833	0.166709	-2.710259	0.079836	-0.066704	-0.006225	0.999881	0.007249	0.000834	-0.013551	
43817	    0	15.600092	11.027251	3.963275	1.452713	0.562507	-3.180098	0.157837	0.107483	0.039978	0.999843	0.007263	0.002812	-0.015900	
43818	    0	21.567116	3.348238	1.784191	0.179869	0.465599	-2.792452	0.216151	0.030451	0.017367	0.999899	0.000899	0.002328	-0.013962	
43819	    0	19.381713	-4.756083	3.603728	0.251966	0.215917	-2.272847	0.193298	-0.049805	0.035767	0.999933	0.001260	0.001080	-0.011364	
43820	    0	14.610107	0.931033	1.177517	0.860813	0.046159	-2.568514	0.146207	0.007382	0.011776	0.999907	0.004304	0.000231	-0.012842	
43821	    0	12.914854	5.005147	0.631006	0.466929	0.024605	-2.243091	0.129700	0.048584	0.006409	0.999934	0.002335	0.000123	-0.011215	
43822	    0	14.494764	5.126655	-1.935724	-0.488289	0.080873	-1.851492	0.145406	0.049874	-0.019539	0.999953	-0.002441	0.000404	-0.009257	
43823	    0	13.358052	2.879087	-4.001695	-1.000227	0.006294	-1.499196	0.133789	0.027588	-0.040161	0.999959	-0.005001	0.000031	-0.007496	
43824	    0	13.769301	0.795940	-2.640151	-1.030743	0.066186	-1.329628	0.137733	0.006907	-0.026484	0.999964	-0.005154	0.000331	-0.006648	
43825	    0	14.420342	1.633683	-1.500326	-1.066409	0.068665	-1.129162	0.144287	0.015442	-0.015137	0.999969	-0.005332	0.000343	-0.005646	
43826	    0	15.392209	1.801281	-1.348619	-1.175892	0.063134	-0.943956	0.154000	0.017206	-0.013638	0.999971	-0.005879	0.000316	-0.004720	
43827	    0	14.332776	1.202366	-0.622006	-1.224529	0.078774	-0.797279	0.143372	0.011414	-0.006348	0.999972	-0.006123	0.000394	-0.003986	
43828	    0	13.319723	1.126688	-1.172221	-1.272213	0.098229	-0.693518	0.133229	0.010730	-0.011857	0.999973	-0.006361	0.000491	-0.003468	
43829	    0	12.963706	0.491928	-1.525512	-1.351941	0.145913	-0.555425	0.129639	0.004456	-0.015381	0.999972	-0.006760	0.000730	-0.002777	
43830	    0	13.270039	0.335159	-1.261743	-1.385702	0.204660	-0.510220	0.132695	0.002925	-0.012774	0.999971	-0.006928	0.001023	-0.002551	
43831	    0	13.077074	-0.710688	-1.798775	-1.492134	0.204470	-0.406651	0.130737	-0.007507	-0.018066	0.999969	-0.007461	0.001022	-0.002033	
43832	    0	12.272958	-1.804716	-2.159097	-1.380360	0.181200	-0.341991	0.122679	-0.018406	-0.021576	0.999974	-0.006902	0.000906	-0.001710	
43833	    0	12.120548	-1.369719	-2.347597	-1.245699	0.180818	-0.421909	0.121155	-0.014099	-0.023499	0.999977	-0.006228	0.000904	-0.002110	
43834	    0	11.216218	-2.281938	-3.093050	-1.280222	0.127793	-0.420001	0.112094	-0.023252	-0.030854	0.999976	-0.006401	0.000639	-0.002100	
43835	    0	11.037037	-2.553218	-2.698012	-0.949674	0.106812	-0.507357	0.110291	-0.025940	-0.026917	0.999985	-0.004748	0.000534	-0.002537	
43836	    0	10.917323	-0.696787	-2.422420	-0.738338	0.098420	-0.730136	0.109135	-0.007456	-0.024251	0.999986	-0.003692	0.000492	-0.003651	
43837	    0	9.637237	-0.842899	-3.012158	-0.726895	0.128175	-0.900274	0.096313	-0.008972	-0.030151	0.999983	-0.003634	0.000641	-0.004501	
43838	    0	9.328295	-0.988428	-2.922700	-0.329592	0.102234	-1.053625	0.093214	-0.010424	-0.029258	0.999984	-0.001648	0.000511	-0.005268	
43839	    0	9.706275	1.640374	-3.170017	-0.160982	0.052071	-1.425183	0.097168	0.015686	-0.031738	0.999974	-0.000805	0.000260	-0.007126	
43840	    0	10.176601	3.810799	-3.297411	-0.180056	0.044442	-1.808382	0.102098	0.037156	-0.033031	0.999958	-0.000900	0.000222	-0.009042	
43841	    0	10.721066	5.411866	-3.415231	-0.417337	0.071146	-2.213334	0.107788	0.052856	-0.034302	0.999936	-0.002087	0.000356	-0.011066	
43842	    0	11.590413	6.304662	-3.863257	-0.738166	0.088504	-2.557258	0.116679	0.061415	-0.038913	0.999911	-0.003691	0.000443	-0.012786	
43843	    0	12.459191	5.381930	-3.964342	-1.139876	0.154311	-2.835194	0.125305	0.051819	-0.040039	0.999883	-0.005699	0.000772	-0.014175	
43844	    0	12.785804	2.779179	-3.001172	-1.282365	0.175484	-2.931339	0.128219	0.025721	-0.030293	0.999871	-0.006412	0.000877	-0.014656	
43845	    0	12.793148	1.138364	-2.288842	-1.440498	0.268758	-3.031302	0.128052	0.009277	-0.023132	0.999858	-0.007202	0.001344	-0.015156	
43846	    0	12.343824	0.282754	-1.466117	-1.690763	0.439858	-3.107808	0.123428	0.000784	-0.014945	0.999841	-0.008453	0.002199	-0.015538	
43847	    0	11.950550	-0.503184	-0.726657	-1.801400	0.600657	-3.112965	0.119385	-0.006958	-0.007568	0.999833	-0.009007	0.003003	-0.015564	
43848	    0	11.427226	-1.494169	-0.351590	-1.699351	0.637471	-3.160842	0.114005	-0.016776	-0.003742	0.999833	-0.008496	0.003187	-0.015803	
43849	    0	10.915130	-2.144602	-0.591457	-1.526535	0.664557	-3.236568	0.108765	-0.023254	-0.006104	0.999834	-0.007632	0.003323	-0.016182	
43850	    0	10.537740	-2.485738	-0.844459	-1.230878	0.697555	-3.286919	0.104919	-0.026637	-0.008651	0.999840	-0.006154	0.003488	-0.016434	
43851	    0	10.505383	-2.338243	-1.067375	-0.949907	0.702893	-3.269360	0.104614	-0.025146	-0.010925	0.999848	-0.004749	0.003514	-0.016346	
43852	    0	10.284407	-2.072222	-1.295946	-0.779380	0.723873	-3.202590	0.102447	-0.022416	-0.013246	0.999857	-0.003897	0.003619	-0.016012	
43853	    0	9.656792	-2.472160	-1.103145	-0.662070	0.717194	-3.087751	0.096130	-0.026245	-0.011292	0.999868	-0.003310	0.003586	-0.015438	
43854	    0	8.781709	-2.915607	-0.796750	-0.467891	0.680378	-2.952882	0.087346	-0.030467	-0.008195	0.999882	-0.002339	0.003402	-0.014764	
43855	    0	8.100935	-2.962239	-0.509312	-0.177771	0.604460	-2.811529	0.080566	-0.030762	-0.005310	0.999896	-0.000889	0.003022	-0.014057	
43856	    0	7.414340	-2.521520	-0.421558	0.066378	0.548761	-2.636035	0.073791	-0.026188	-0.004427	0.999908	0.000332	0.002744	-0.013180	
43857	    0	6.660144	-1.945106	-0.389687	0.295456	0.490583	-2.464360	0.066345	-0.020264	-0.004089	0.999920	0.001477	0.002453	-0.012321	
43858	    0	5.934155	-1.388968	-0.352687	0.457393	0.455485	-2.255301	0.059172	-0.014549	-0.003695	0.999930	0.002287	0.002277	-0.011276	
43859	    0	5.376416	-0.979189	-0.577911	0.544940	0.423439	-2.008094	0.053650	-0.010315	-0.005920	0.999943	0.002725	0.002117	-0.010040	
43860	    0	5.218941	-0.898089	-0.447005	0.566109	0.432784	-1.732089	0.052099	-0.009419	-0.004609	0.999956	0.002831	0.002164	-0.008660	
43861	    0	5.552004	-1.170402	-0.575043	0.744829	0.452429	-1.452654	0.055420	-0.012085	-0.005920	0.999964	0.003724	0.002262	-0.007263	
43862	    0	6.144439	-1.022388	-0.971010	0.951395	0.441747	-1.176083	0.061361	-0.010538	-0.009895	0.999969	0.004757	0.002209	-0.005880	
43863	    0	6.499208	-0.382246	-1.466393	1.040658	0.452618	-0.870521	0.064941	-0.004028	-0.014832	0.999974	0.005203	0.002263	-0.004353	
43864	    0	6.440224	0.000189	-1.872028	1.037414	0.471500	-0.513652	0.064358	-0.000066	-0.018872	0.999980	0.005187	0.002357	-0.002568	
43865	    0	6.145457	0.317127	-2.220147	0.988775	0.499156	-0.151826	0.061401	0.003235	-0.022339	0.999984	0.004944	0.002496	-0.000759	
43866	    0	5.773487	0.675958	-2.364664	0.912289	0.534251	0.220109	0.057664	0.006931	-0.023769	0.999985	0.004561	0.002671	0.001101	
43867	    0	5.538170	0.588680	-2.337267	0.894361	0.553135	0.624851	0.055298	0.006165	-0.023499	0.999981	0.004472	0.002766	0.003124	
43868	    0	5.504970	0.652593	-2.612355	0.895508	0.573736	1.037416	0.054939	0.006928	-0.026251	0.999972	0.004478	0.002869	0.005187	
43869	    0	5.517651	1.246296	-2.949284	0.871480	0.599679	1.484701	0.054993	0.013000	-0.029602	0.999958	0.004357	0.002998	0.007423	
43870	    0	5.566147	2.210992	-3.171255	0.794808	0.618947	1.921691	0.055346	0.022769	-0.031795	0.999941	0.003974	0.003095	0.009608	
43871	    0	5.546839	3.135822	-3.166061	0.610368	0.634210	2.355256	0.054993	0.032104	-0.031738	0.999921	0.003052	0.003171	0.011776	
43872	    0	5.517685	3.214475	-2.997596	0.422874	0.613806	2.756403	0.054634	0.032964	-0.030075	0.999898	0.002114	0.003069	0.013782	
43873	    0	5.490662	2.467550	-2.835119	0.371567	0.506041	3.096900	0.054443	0.025574	-0.028442	0.999875	0.001858	0.002530	0.015484	
43874	    0	5.976167	2.654324	-2.662317	0.412199	0.329034	3.446754	0.059248	0.027622	-0.026665	0.999847	0.002061	0.001645	0.017233	
43875	    0	6.911715	3.778393	-2.520036	0.292224	0.185596	3.797380	0.068359	0.039124	-0.025208	0.999818	0.001461	0.000928	0.018986	
43876	    0	7.993641	4.549943	-2.302431	0.121125	0.030901	4.100324	0.078978	0.047139	-0.023008	0.999789	0.000606	0.000154	0.020500	
43877	    0	8.815203	4.541852	-2.414919	-0.045780	-0.116548	4.318573	0.087158	0.047302	-0.024109	0.999766	-0.000229	-0.000583	0.021591	
43878	    0	9.161583	3.714370	-2.461591	-0.102624	-0.296045	4.446589	0.090796	0.039156	-0.024501	0.999751	-0.000513	-0.001480	0.022231	
43879	    0	9.652298	2.914385	-2.141911	0.003243	-0.498242	4.509359	0.095886	0.031311	-0.021179	0.999743	0.000016	-0.002491	0.022545	
43880	    0	10.363492	2.812495	-1.735957	0.156416	-0.669729	4.535691	0.103019	0.030479	-0.016991	0.999737	0.000782	-0.003348	0.022676	
43881	    0	10.716918	2.666552	-1.173100	0.236532	-0.760528	4.560496	0.106567	0.029114	-0.011292	0.999732	0.001183	-0.003802	0.022800	
43882	    0	10.693914	2.321650	-0.712009	0.335343	-0.880894	4.596941	0.106398	0.025678	-0.006609	0.999724	0.001677	-0.004404	0.022983	
43883	    0	10.525936	2.173222	-0.399061	0.448651	-0.991724	4.631479	0.104736	0.024170	-0.003418	0.999717	0.002243	-0.004958	0.023155	
43884	    0	10.371603	2.309077	-0.242636	0.524763	-1.059826	4.687957	0.103148	0.025518	-0.001814	0.999707	0.002624	-0.005299	0.023438	
43885	    0	10.392856	2.823855	0.070556	0.485278	-1.091685	4.765036	0.103210	0.030701	0.001343	0.999698	0.002426	-0.005458	0.023823	
43886	    0	10.618788	2.684658	0.479307	0.380555	-1.073758	4.854705	0.105467	0.029403	0.005415	0.999689	0.001903	-0.005368	0.024271	
43887	    0	10.949624	1.851368	0.929202	0.397534	-1.017678	4.919954	0.108948	0.021179	0.009888	0.999682	0.001987	-0.005088	0.024597	
43888	    0	11.820550	1.426215	1.085857	0.595921	-0.977623	4.987689	0.117746	0.017169	0.011483	0.999672	0.002979	-0.004888	0.024936	
43889	    0	13.129155	2.261486	1.067211	0.750054	-0.897890	5.052751	0.130615	0.025879	0.011353	0.999663	0.003750	-0.004489	0.025261	
43890	    0	13.966293	2.936138	0.874919	0.829408	-0.766458	5.058282	0.138826	0.032842	0.009414	0.999663	0.004147	-0.003832	0.025289	
43891	    0	14.773148	3.710938	0.340011	0.999752	-0.668409	5.006199	0.146729	0.040771	0.004089	0.999668	0.004998	-0.003342	0.025028	
43892	    0	15.817558	5.034750	-0.875669	1.143385	-0.616711	4.856621	0.156916	0.054215	-0.007969	0.999683	0.005716	-0.003083	0.024281	
43893	    0	16.292965	6.209203	-1.967481	1.156153	-0.544790	4.587225	0.161499	0.065918	-0.018860	0.999716	0.005780	-0.002724	0.022934	
43894	    0	15.913946	6.993497	-2.739129	1.194097	-0.552794	4.200893	0.157696	0.073418	-0.026523	0.999757	0.005970	-0.002764	0.021003	
43895	    0	15.170057	7.861379	-3.499596	1.293457	-0.634044	3.671503	0.150330	0.081604	-0.033997	0.999805	0.006467	-0.003170	0.018356	
43896	    0	14.447595	9.123916	-3.925107	1.379652	-0.715672	3.040271	0.143202	0.093688	-0.038096	0.999854	0.006898	-0.003578	0.015201	
43897	    0	13.756208	11.022306	-3.290435	1.291127	-0.742365	2.384264	0.136353	0.112061	-0.031677	0.999901	0.006455	-0.003712	0.011921	
43898	    0	12.798141	12.723123	-1.977072	1.031132	-0.702681	1.740489	0.126934	0.128437	-0.018663	0.999942	0.005156	-0.003513	0.008702	
43899	    0	11.871350	12.902762	-0.962733	0.763137	-0.582128	1.078043	0.118042	0.129700	-0.008789	0.999973	0.003816	-0.002911	0.005390	
43900	    0	10.816371	12.156555	-0.518088	0.588037	-0.392533	0.407029	0.107925	0.121799	-0.004611	0.999991	0.002940	-0.001963	0.002035	
43901	    0	9.818977	11.019866	-1.011981	0.467682	-0.196648	-0.232697	0.098328	0.110107	-0.009766	0.999995	0.002338	-0.000983	-0.001163	
43902	    0	9.258533	9.213383	-1.841088	0.389100	-0.087738	-0.779917	0.092952	0.091807	-0.018191	0.999990	0.001945	-0.000439	-0.003900	
43903	    0	9.255313	7.427849	-2.300261	0.262644	-0.037384	-1.245126	0.093018	0.073730	-0.022888	0.999979	0.001313	-0.000187	-0.006226	
43904	    0	9.261602	6.199876	-2.146605	0.205233	-0.062752	-1.574914	0.093107	0.061289	-0.021374	0.999968	0.001026	-0.000314	-0.007874	
43905	    0	9.455073	5.472653	-1.803519	0.067330	-0.024414	-1.767754	0.095032	0.053894	-0.018005	0.999960	0.000337	-0.000122	-0.008839	
43906	    0	9.510346	5.713629	-2.272298	-0.116350	-0.106432	-1.832034	0.095634	0.056249	-0.022705	0.999957	-0.000582	-0.000532	-0.009160	
43907	    0	8.768966	13.216429	-10.662390	0.145152	-0.873583	-2.011149	0.089478	0.131348	-0.106140	0.999939	0.000726	-0.004368	-0.010056	
43908	    0	13.731246	39.252303	-23.421259	1.255694	-1.717114	-3.465128	0.146091	0.391498	-0.230523	0.999793	0.006278	-0.008585	-0.017324	
43909	    0	29.512887	35.680122	0.915436	-1.683886	1.356723	-5.806135	0.305359	0.348083	0.004150	0.999519	-0.008418	0.006783	-0.029026	
43910	    0	21.562527	8.491016	6.338965	-5.717146	0.935942	-4.118451	0.217623	0.082190	0.059999	0.999368	-0.028580	0.004679	-0.020588	
43911	    0	15.805697	-46.024030	7.663405	-1.992099	0.138287	-1.921143	0.153687	-0.460938	0.081116	0.999904	-0.009960	0.000691	-0.009605	
43912	    0	7.159630	-8.557572	3.328086	1.105540	0.395790	-2.750881	0.070474	-0.086732	0.032663	0.999887	0.005527	0.001979	-0.013754	
43913	    0	15.278986	9.382579	2.886315	1.160681	0.368519	-3.291490	0.154358	0.091125	0.029114	0.999846	0.005803	0.001842	-0.016457	
43914	    0	18.402130	-3.147419	0.395594	0.763542	0.040247	-2.978442	0.183526	-0.034225	0.003792	0.999882	0.003818	0.000201	-0.014892	
43915	    0	16.220709	-4.005664	0.738755	1.244403	-0.166137	-2.788652	0.161621	-0.042358	0.007263	0.999883	0.006222	-0.000831	-0.013943	
43916	    0	11.955752	5.018758	-0.902309	1.425230	-0.226412	-2.818225	0.120259	0.048558	-0.008537	0.999874	0.007126	-0.001132	-0.014091	
43917	    0	12.232714	8.558672	-1.807902	0.317390	-0.099756	-2.255298	0.123291	0.084229	-0.017883	0.999934	0.001587	-0.000499	-0.011276	
43918	    0	15.232346	6.094275	-3.723528	-0.953881	0.062753	-1.742582	0.152834	0.059434	-0.037569	0.999950	-0.004769	0.000314	-0.008713	
43919	    0	13.640862	2.951357	-4.717103	-1.538877	0.048257	-1.393152	0.136597	0.028198	-0.047424	0.999946	-0.007694	0.000241	-0.006966	
43920	    0	12.409021	-2.148111	-3.295274	-1.294345	0.042916	-1.288050	0.123940	-0.022492	-0.032836	0.999958	-0.006472	0.000215	-0.006440	
43921	    0	13.446584	-0.892944	-2.033650	-0.795754	0.039101	-1.305402	0.134399	-0.009888	-0.020325	0.999970	-0.003979	0.000196	-0.006527	
43922	    0	15.002044	2.113222	-1.328939	-0.774772	0.043106	-1.259815	0.150146	0.020135	-0.013401	0.999972	-0.003874	0.000216	-0.006299	
43923	    0	14.711438	1.997181	-0.393947	-1.109134	0.057221	-1.065837	0.147217	0.019165	-0.004089	0.999969	-0.005546	0.000286	-0.005329	
43924	    0	12.947341	1.621188	-0.707268	-1.387994	0.039673	-0.928127	0.129545	0.015561	-0.007208	0.999965	-0.006940	0.000198	-0.004641	
43925	    0	12.482137	0.009721	-0.905165	-1.558706	0.071908	-0.824748	0.124817	-0.000488	-0.009094	0.999961	-0.007793	0.000360	-0.004124	
43926	    0	13.337042	-0.506455	0.090365	-1.490610	0.134088	-0.764093	0.133350	-0.005568	0.000854	0.999964	-0.007453	0.000670	-0.003820	
43927	    0	13.227196	-0.068689	-0.798136	-1.431862	0.125123	-0.720223	0.132263	-0.001221	-0.008057	0.999968	-0.007159	0.000626	-0.003601	
43928	    0	12.173631	-1.088757	-1.600823	-1.436249	0.137521	-0.666053	0.121688	-0.011408	-0.016011	0.999968	-0.007181	0.000688	-0.003330	
43929	    0	11.798372	-1.525351	-1.575761	-1.251231	0.147439	-0.669867	0.117920	-0.015747	-0.015747	0.999974	-0.006256	0.000737	-0.003349	
43930	    0	11.231279	-1.242764	-2.489845	-1.181993	0.150110	-0.714117	0.112248	-0.012976	-0.024907	0.999975	-0.005910	0.000751	-0.003571	
43931	    0	10.311219	-1.757813	-3.207817	-1.062782	0.117684	-0.735479	0.103027	-0.018127	-0.032043	0.999978	-0.005314	0.000588	-0.003677	
43932	    0	10.412611	-1.694245	-2.535052	-0.679019	0.089074	-0.830845	0.104043	-0.017461	-0.025338	0.999985	-0.003395	0.000445	-0.004154	
43933	    0	10.205065	-0.935331	-2.296573	-0.285150	0.114441	-0.983433	0.101990	-0.009888	-0.023010	0.999987	-0.001426	0.000572	-0.004917	
43934	    0	9.142573	-0.815726	-2.668084	-0.024414	0.079728	-1.114660	0.091368	-0.008670	-0.026716	0.999984	-0.000122	0.000399	-0.005573	
43935	    0	9.103836	0.585015	-3.030480	0.032997	0.067139	-1.331339	0.091064	0.005249	-0.030334	0.999977	0.000165	0.000336	-0.006657	
43936	    0	9.391770	1.766206	-2.975482	-0.062562	0.061226	-1.540581	0.094041	0.016929	-0.029789	0.999969	-0.000313	0.000306	-0.007703	
43937	    0	9.903441	2.544394	-2.794918	-0.244716	0.071717	-1.761650	0.099243	0.024536	-0.028015	0.999960	-0.001224	0.000359	-0.008808	
43938	    0	10.241091	3.656296	-2.797533	-0.405318	0.103189	-1.933511	0.102743	0.035514	-0.028101	0.999950	-0.002027	0.000516	-0.009667	
43939	    0	10.326505	5.440213	-3.342759	-0.721756	0.135997	-2.159928	0.103821	0.053162	-0.033691	0.999934	-0.003609	0.000680	-0.010799	
43940	    0	10.260851	5.202474	-4.255697	-1.087219	0.127224	-2.344578	0.103180	0.050585	-0.042900	0.999916	-0.005436	0.000636	-0.011723	
43941	    0	10.578559	2.327016	-3.350405	-1.347965	0.185400	-2.366712	0.106018	0.021790	-0.033752	0.999907	-0.006740	0.000927	-0.011833	
43942	    0	11.397790	0.571315	-2.463219	-1.633130	0.296794	-2.417079	0.113997	0.004133	-0.024839	0.999892	-0.008165	0.001484	-0.012085	
43943	    0	11.602595	-0.632456	-1.546196	-1.919633	0.403039	-2.414038	0.115906	-0.007874	-0.015625	0.999879	-0.009598	0.002015	-0.012070	
43944	    0	10.910868	-1.932628	-0.893981	-2.008902	0.522063	-2.365782	0.108846	-0.020705	-0.009021	0.999876	-0.010044	0.002610	-0.011828	
43945	    0	10.124231	-3.186938	-0.543545	-1.830937	0.586724	-2.422429	0.100830	-0.033142	-0.005432	0.999880	-0.009154	0.002934	-0.012112	
43946	    0	10.081947	-3.567232	-0.770855	-1.393940	0.579092	-2.517218	0.100337	-0.036991	-0.007745	0.999892	-0.006969	0.002895	-0.012586	
43947	    0	10.499236	-3.013117	-1.428465	-0.996432	0.524347	-2.583398	0.104553	-0.031555	-0.014404	0.999900	-0.004982	0.002622	-0.012917	
43948	    0	10.505747	-2.187832	-2.270964	-0.757050	0.516526	-2.587972	0.104703	-0.023321	-0.022894	0.999906	-0.003785	0.002583	-0.012939	
43949	    0	10.057951	-1.750147	-2.242322	-0.642224	0.557726	-2.562028	0.100281	-0.018860	-0.022644	0.999908	-0.003211	0.002789	-0.012810	
43950	    0	9.584199	-1.644918	-2.043653	-0.446904	0.522819	-2.497361	0.095572	-0.017690	-0.020648	0.999916	-0.002234	0.002614	-0.012486	
43951	    0	9.304331	-1.276963	-2.019447	-0.253112	0.448620	-2.412476	0.092834	-0.013916	-0.020386	0.999924	-0.001266	0.002243	-0.012062	
43952	    0	8.924002	-0.878811	-1.787118	-0.133899	0.441561	-2.318055	0.089090	-0.009833	-0.018062	0.999929	-0.000669	0.002208	-0.011590	
43953	    0	8.452050	-0.689587	-1.356375	-0.024987	0.402840	-2.166792	0.084412	-0.007812	-0.013733	0.999939	-0.000125	0.002014	-0.010834	
43954	    0	7.852739	-0.539105	-1.143797	0.045396	0.379187	-1.999890	0.078446	-0.006173	-0.011588	0.999948	0.000227	0.001896	-0.009999	
43955	    0	7.232916	-0.459939	-0.993881	0.127603	0.356298	-1.815059	0.072266	-0.005249	-0.010071	0.999956	0.000638	0.001781	-0.009075	
43956	    0	6.877799	-0.365033	-1.012441	0.231555	0.346569	-1.633473	0.068727	-0.004200	-0.010248	0.999964	0.001158	0.001733	-0.008167	
43957	    0	7.280449	-0.408262	-1.202236	0.416569	0.314525	-1.429762	0.072754	-0.004578	-0.012146	0.999970	0.002083	0.001573	-0.007149	
43958	    0	7.992529	-0.001970	-1.566699	0.552563	0.324824	-1.188669	0.079898	-0.000451	-0.015798	0.999977	0.002763	0.001624	-0.005943	
43959	    0	8.375031	0.521254	-1.860459	0.566867	0.351908	-0.914006	0.083740	0.004883	-0.018738	0.999984	0.002834	0.001760	-0.004570	
43960	    0	8.033935	0.680586	-1.775796	0.570871	0.354768	-0.607493	0.080328	0.006613	-0.017881	0.999990	0.002854	0.001774	-0.003037	
43961	    0	7.399659	0.676587	-1.746547	0.610544	0.360108	-0.285340	0.073975	0.006714	-0.017578	0.999992	0.003053	0.001801	-0.001427	
43962	    0	6.946432	0.862764	-1.649235	0.637247	0.355721	0.060272	0.069432	0.008701	-0.016588	0.999992	0.003186	0.001779	0.000301	
43963	    0	6.780174	1.029638	-1.614471	0.711825	0.377084	0.424959	0.067749	0.010498	-0.016235	0.999990	0.003559	0.001885	0.002125	
43964	    0	6.774327	1.602230	-1.780139	0.770764	0.384905	0.820928	0.067642	0.016369	-0.017869	0.999982	0.003854	0.001925	0.004105	
43965	    0	6.526220	2.516070	-2.022093	0.724036	0.414471	1.230633	0.065063	0.025635	-0.020264	0.999972	0.003620	0.002072	0.006153	
43966	    0	6.181957	3.124374	-2.033005	0.621041	0.434500	1.641487	0.061516	0.031813	-0.020366	0.999959	0.003105	0.002172	0.008207	
43967	    0	6.059360	3.028309	-1.875043	0.556193	0.443467	2.019539	0.060242	0.030945	-0.018799	0.999942	0.002781	0.002217	0.010098	
43968	    0	6.009040	2.497847	-1.747862	0.635354	0.418102	2.357162	0.059753	0.025740	-0.017523	0.999923	0.003177	0.002090	0.011786	
43969	    0	5.980231	2.416297	-1.606593	0.823429	0.296030	2.670376	0.059448	0.025024	-0.016052	0.999901	0.004117	0.001480	0.013351	
43970	    0	6.359041	3.349137	-1.644564	0.925483	0.172813	2.983596	0.063066	0.034511	-0.016342	0.999877	0.004627	0.000864	0.014917	
43971	    0	6.956715	4.268807	-1.547010	0.845377	0.097089	3.274692	0.068848	0.043884	-0.015320	0.999856	0.004227	0.000485	0.016373	
43972	    0	7.468798	4.208545	-1.376046	0.698128	0.008965	3.546145	0.073925	0.043448	-0.013614	0.999836	0.003490	0.000045	0.017730	
43973	    0	7.603906	3.473031	-1.378011	0.698132	-0.118072	3.745497	0.075378	0.036194	-0.013611	0.999818	0.003490	-0.000590	0.018726	
43974	    0	7.956712	2.997884	-1.427789	0.756504	-0.260942	3.892392	0.078981	0.031573	-0.014057	0.999803	0.003782	-0.001305	0.019461	
43975	    0	8.553606	3.185597	-1.447421	0.812588	-0.422508	4.033185	0.084900	0.033630	-0.014160	0.999785	0.004063	-0.002112	0.020164	
43976	    0	9.403025	3.808932	-1.574105	0.631380	-0.504150	4.183704	0.093245	0.040094	-0.015381	0.999773	0.003157	-0.002521	0.020917	
43977	    0	9.445067	3.604933	-1.406712	0.369292	-0.564429	4.281188	0.093689	0.038086	-0.013733	0.999764	0.001846	-0.002822	0.021404	
43978	    0	9.151813	2.856317	-1.457529	0.218600	-0.661522	4.366277	0.090913	0.030568	-0.014241	0.999755	0.001093	-0.003307	0.021830	
43979	    0	9.138652	2.965291	-1.574856	0.106248	-0.772160	4.432289	0.090759	0.031677	-0.015381	0.999746	0.000531	-0.003860	0.022160	
43980	    0	9.387899	3.782246	-1.472426	-0.147451	-0.825191	4.484375	0.093060	0.039905	-0.014368	0.999740	-0.000737	-0.004126	0.022420	
43981	    0	9.464283	3.937160	-0.971663	-0.448459	-0.869067	4.579581	0.093750	0.041504	-0.009399	0.999725	-0.002242	-0.004345	0.022896	
43982	    0	9.493838	3.527443	-0.558281	-0.646652	-0.910273	4.621750	0.094114	0.037438	-0.005272	0.999717	-0.003233	-0.004551	0.023107	
43983	    0	9.517469	3.118648	-0.179016	-0.733065	-0.940032	4.658957	0.094421	0.033386	-0.001465	0.999710	-0.003665	-0.004700	0.023293	
43984	    0	9.819715	2.619478	0.289905	-0.658671	-0.971315	4.658766	0.097536	0.028482	0.003283	0.999711	-0.003293	-0.004856	0.023292	
43985	    0	10.568649	2.133505	0.991065	-0.463148	-0.984857	4.643690	0.105103	0.023804	0.010376	0.999715	-0.002316	-0.004924	0.023216	
43986	    0	11.671680	1.883498	1.587871	-0.115215	-0.967879	4.621554	0.116161	0.021533	0.016430	0.999721	-0.000576	-0.004839	0.023106	
43987	    0	12.972761	1.905577	2.079145	0.307683	-0.927055	4.560502	0.129150	0.021973	0.021423	0.999727	0.001538	-0.004635	0.022800	
43988	    0	14.150938	2.474014	2.398208	0.702920	-0.840071	4.476180	0.140807	0.027811	0.024669	0.999734	0.003514	-0.004200	0.022379	
43989	    0	15.117874	3.599075	2.443372	1.049894	-0.681172	4.334627	0.150269	0.039124	0.025146	0.999745	0.005249	-0.003406	0.021671	
43990	    0	15.255670	4.350385	1.811417	1.366341	-0.544972	4.084526	0.151577	0.046479	0.018839	0.999763	0.006831	-0.002725	0.020421	
43991	    0	14.699147	5.439983	0.073264	1.725130	-0.504912	3.746302	0.145935	0.057129	0.001587	0.999784	0.008625	-0.002524	0.018730	
43992	    0	13.611319	7.175978	-2.379898	2.021535	-0.538478	3.274742	0.134974	0.074209	-0.022693	0.999811	0.010107	-0.002692	0.016373	
43993	    0	12.776666	9.322593	-4.236207	2.071676	-0.576048	2.744432	0.126587	0.095398	-0.041016	0.999847	0.010358	-0.002880	0.013721	
43994	    0	12.301584	11.536598	-4.310561	1.831882	-0.593588	2.175026	0.121874	0.117082	-0.041676	0.999894	0.009159	-0.002968	0.010875	
43995	    0	12.123830	12.956727	-3.102969	1.467354	-0.579083	1.573214	0.120300	0.130737	-0.029724	0.999937	0.007337	-0.002895	0.007866	
43996	    0	12.207257	13.558479	-1.465562	1.143276	-0.495725	0.931940	0.121473	0.136231	-0.013577	0.999969	0.005716	-0.002479	0.004660	
43997	    0	11.795069	13.201085	-1.026529	0.869945	-0.286866	0.252534	0.117798	0.132202	-0.009521	0.999989	0.004350	-0.001434	0.001263	
43998	    0	10.213267	11.834895	-1.868952	0.760272	-0.138093	-0.465967	0.102421	0.118180	-0.018169	0.999990	0.003801	-0.000690	-0.002330	
43999	    0	9.418275	10.431576	-3.024880	0.684552	-0.098420	-1.134499	0.094788	0.103882	-0.029846	0.999977	0.003423	-0.000492	-0.005672	
44000	    0	9.455792	9.116938	-3.325352	0.498969	-0.059319	-1.660368	0.095321	0.090463	-0.032999	0.999962	0.002495	-0.000297	-0.008302	
44001	    0	9.620110	7.730221	-2.466566	0.287824	-0.039674	-2.031743	0.096985	0.076355	-0.024536	0.999947	0.001439	-0.000198	-0.010159	
44002	    0	9.815883	6.484614	-1.543553	0.021935	-0.021172	-2.235078	0.098877	0.063745	-0.015418	0.999937	0.000110	-0.000106	-0.011175	
44003	    0	10.001820	5.488757	-0.632925	-0.275237	0.009918	-2.325493	0.100647	0.053711	-0.006409	0.999931	-0.001376	0.000050	-0.011627	
44004	    0	9.783181	5.285889	-0.865498	-0.489246	-0.040818	-2.306992	0.098434	0.051704	-0.008762	0.999930	-0.002446	-0.000204	-0.011535	
44005	    0	7.367396	10.590728	-10.426281	-0.335511	-0.675218	-2.339231	0.075256	0.104858	-0.104187	0.999924	-0.001678	-0.003376	-0.011696	
44006	    0	17.148759	26.146998	-11.432926	0.232138	-0.515969	-3.757894	0.176655	0.258315	-0.113577	0.999819	0.001161	-0.002580	-0.018788	
44007	    0	20.219427	21.482335	-0.713801	-0.711126	0.458760	-4.645970	0.207092	0.210022	-0.008362	0.999721	-0.003555	0.002294	-0.023228	
44008	    0	21.001145	-1.512493	4.926835	-3.598454	0.886833	-3.881157	0.209893	-0.018320	0.048648	0.999640	-0.017990	0.004434	-0.019403	
44009	    0	15.682991	-28.420376	1.164314	-0.408945	0.025368	-2.289633	0.153564	-0.285950	0.012207	0.999932	-0.002045	0.000127	-0.011448	
44010	    0	13.487706	-8.848428	2.205287	1.434007	0.399035	-2.864581	0.133633	-0.090558	0.021141	0.999869	0.007170	0.001995	-0.014322	
44011	    0	18.473244	5.340510	1.402128	1.410744	0.175675	-3.119812	0.185547	0.050415	0.014221	0.999852	0.007053	0.000878	-0.015598	
44012	    0	20.776032	1.890374	-1.366391	0.221641	0.025750	-2.802369	0.207996	0.016006	-0.013672	0.999901	0.001108	0.000129	-0.014011	
44013	    0	15.246138	-1.666612	0.611539	0.086405	-0.074770	-2.636795	0.152222	-0.018677	0.006165	0.999912	0.000432	-0.000374	-0.013184	
44014	    0	11.985508	3.543630	-0.248340	0.187688	-0.022507	-2.592351	0.120301	0.033881	-0.002438	0.999915	0.000938	-0.000113	-0.012961	
44015	    0	13.261806	4.609267	-1.655294	-0.489627	0.090792	-2.250721	0.133118	0.044556	-0.016724	0.999933	-0.002448	0.000454	-0.011253	
44016	    0	13.683700	3.263417	-3.678841	-1.049254	0.101092	-1.946108	0.137126	0.031107	-0.037024	0.999938	-0.005246	0.000505	-0.009730	
44017	    0	13.351692	0.564970	-2.963852	-1.062793	0.090219	-1.734954	0.133545	0.004333	-0.029724	0.999948	-0.005314	0.000451	-0.008675	
44018	    0	13.230330	1.307994	-1.517592	-0.901807	0.058366	-1.553747	0.132395	0.011983	-0.015270	0.999959	-0.004509	0.000292	-0.007769	
44019	    0	13.872528	3.771550	-1.479426	-1.009381	0.048257	-1.379411	0.138977	0.036682	-0.015015	0.999963	-0.005047	0.000241	-0.006897	
44020	    0	13.932860	2.761403	-0.662270	-1.350230	0.099946	-1.134506	0.139479	0.026777	-0.006875	0.999961	-0.006751	0.000500	-0.005672	
44021	    0	13.295919	0.772668	0.120896	-1.466961	0.085450	-0.984968	0.132996	0.007080	0.001099	0.999960	-0.007335	0.000427	-0.004925	
44022	    0	12.646083	0.541135	0.057237	-1.437777	0.096894	-0.907909	0.126484	0.004841	0.000475	0.999963	-0.007189	0.000484	-0.004539	
44023	    0	13.081099	1.078234	0.493086	-1.374069	0.150491	-0.858316	0.130859	0.010254	0.004761	0.999967	-0.006870	0.000752	-0.004292	
44024	    0	13.434787	0.934255	0.318720	-1.474970	0.177767	-0.743875	0.134384	0.008865	0.003001	0.999965	-0.007375	0.000889	-0.003719	
44025	    0	12.271602	-0.939965	-0.570184	-1.493089	0.175669	-0.626380	0.122681	-0.009827	-0.005737	0.999967	-0.007465	0.000878	-0.003132	
44026	    0	12.107539	-0.569889	-1.556163	-1.247035	0.184251	-0.684172	0.121040	-0.006210	-0.015635	0.999974	-0.006235	0.000921	-0.003421	
44027	    0	12.133824	-1.166033	-2.052643	-1.195345	0.188448	-0.698858	0.121277	-0.012207	-0.020569	0.999975	-0.005977	0.000942	-0.003494	
44028	    0	10.659239	-1.866179	-2.895716	-1.094063	0.097085	-0.667386	0.106515	-0.019176	-0.028905	0.999979	-0.005470	0.000485	-0.003337	
44029	    0	10.692525	-0.886791	-2.242840	-0.815396	0.131226	-0.823216	0.106873	-0.009399	-0.022461	0.999983	-0.004077	0.000656	-0.004116	
44030	    0	10.823409	0.668334	-1.686354	-0.783544	0.140000	-0.962836	0.108253	0.006096	-0.016964	0.999980	-0.003918	0.000700	-0.004814	
44031	    0	9.867445	-0.429988	-2.270569	-0.761228	0.158692	-1.006324	0.098633	-0.004883	-0.022766	0.999979	-0.003806	0.000793	-0.005032	
44032	    0	9.878983	-0.572362	-2.086019	-0.202562	0.200845	-1.112753	0.098735	-0.006294	-0.020953	0.999983	-0.001013	0.001004	-0.005564	
44033	    0	10.160978	2.249326	-2.140585	0.061989	0.167848	-1.396954	0.101746	0.021790	-0.021484	0.999975	0.000310	0.000839	-0.006985	
44034	    0	10.259037	4.521483	-2.502144	-0.017548	0.189211	-1.709959	0.102948	0.044333	-0.025123	0.999963	-0.000088	0.000946	-0.008550	
44035	    0	10.460070	5.309041	-2.319048	-0.216488	0.246434	-2.026403	0.105103	0.052002	-0.023376	0.999947	-0.001082	0.001232	-0.010132	
44036	    0	10.923284	6.321378	-2.781199	-0.448619	0.270278	-2.334460	0.109922	0.061871	-0.028100	0.999928	-0.002243	0.001351	-0.011672	
44037	    0	11.054311	6.971038	-4.186829	-0.634785	0.270280	-2.630696	0.111389	0.068115	-0.042236	0.999907	-0.003174	0.001351	-0.013153	
44038	    0	11.367513	5.241425	-5.195358	-0.774984	0.253496	-2.828509	0.114333	0.050598	-0.052297	0.999891	-0.003875	0.001267	-0.014142	
44039	    0	12.021665	1.975610	-4.277473	-0.852809	0.292980	-2.909201	0.120422	0.017822	-0.043030	0.999884	-0.004264	0.001465	-0.014545	
44040	    0	12.518226	0.208136	-2.883656	-0.953906	0.365845	-3.036438	0.125140	0.000043	-0.029069	0.999871	-0.004769	0.001829	-0.015182	
44041	    0	12.335254	-0.788301	-1.820696	-0.938267	0.436421	-3.113696	0.123169	-0.009888	-0.018433	0.999865	-0.004691	0.002182	-0.015568	
44042	    0	11.522829	-1.318567	-1.432778	-0.889627	0.499747	-3.092139	0.114969	-0.015029	-0.014551	0.999867	-0.004448	0.002499	-0.015460	
44043	    0	10.924963	-1.683348	-0.799829	-0.707276	0.559450	-3.103773	0.108948	-0.018555	-0.008240	0.999869	-0.003536	0.002797	-0.015518	
44044	    0	10.908625	-1.430625	-0.856790	-0.573374	0.613621	-3.133911	0.108817	-0.016038	-0.008858	0.999868	-0.002867	0.003068	-0.015669	
44045	    0	10.796221	-1.108607	-1.349015	-0.568415	0.628118	-3.139634	0.107727	-0.012817	-0.013794	0.999867	-0.002842	0.003140	-0.015697	
44046	    0	10.416056	-1.615253	-2.043029	-0.517104	0.607516	-3.090036	0.103831	-0.017812	-0.020701	0.999872	-0.002585	0.003037	-0.015450	
44047	    0	9.786730	-2.436850	-2.644364	-0.400368	0.572990	-2.987025	0.097412	-0.025879	-0.026672	0.999882	-0.002002	0.002865	-0.014935	
44048	    0	9.189308	-2.948181	-2.723304	-0.172049	0.511378	-2.842239	0.091392	-0.030807	-0.027441	0.999895	-0.000860	0.002557	-0.014211	
44049	    0	8.386524	-2.676540	-2.679460	0.026704	0.428976	-2.706994	0.083435	-0.027893	-0.026978	0.999906	0.000134	0.002145	-0.013535	
44050	    0	7.592389	-2.083928	-2.356011	0.198751	0.365458	-2.529404	0.075609	-0.021773	-0.023720	0.999917	0.000994	0.001827	-0.012647	
44051	    0	7.064375	-1.471308	-1.988380	0.340279	0.311477	-2.336939	0.070435	-0.015503	-0.020020	0.999928	0.001701	0.001557	-0.011684	
44052	    0	6.676658	-1.088981	-1.679730	0.404938	0.247960	-2.134175	0.066625	-0.011567	-0.016903	0.999940	0.002025	0.001240	-0.010671	
44053	    0	6.846056	-1.513624	-1.324712	0.522050	0.231174	-1.889069	0.068298	-0.015747	-0.013367	0.999950	0.002610	0.001156	-0.009445	
44054	    0	7.137306	-1.878981	-1.382096	0.680550	0.188448	-1.568623	0.071210	-0.019301	-0.013953	0.999963	0.003403	0.000942	-0.007843	
44055	    0	7.299349	-1.644956	-1.525388	0.706488	0.186350	-1.235210	0.072876	-0.016846	-0.015381	0.999974	0.003532	0.000932	-0.006176	
44056	    0	7.044368	-1.594084	-1.391487	0.695614	0.182725	-0.877576	0.070360	-0.016201	-0.014035	0.999984	0.003478	0.000914	-0.004388	
44057	    0	6.681742	-1.299198	-1.234689	0.757029	0.164033	-0.531771	0.066772	-0.013123	-0.012451	0.999989	0.003785	0.000820	-0.002659	
44058	    0	6.097585	-0.509933	-1.408850	0.801470	0.111771	-0.169945	0.060964	-0.005095	-0.014143	0.999991	0.004007	0.000559	-0.000850	
44059	    0	5.488257	0.379690	-1.499908	0.731851	0.108338	0.198365	0.054871	0.003906	-0.015015	0.999992	0.003659	0.000542	0.000992	
44060	    0	5.177305	0.932471	-1.649362	0.630762	0.119782	0.636866	0.051733	0.009542	-0.016495	0.999990	0.003154	0.000599	0.003184	
44061	    0	5.103499	1.053546	-1.745231	0.509075	0.122071	1.115425	0.050964	0.010864	-0.017456	0.999981	0.002545	0.000610	0.005577	
44062	    0	4.979176	0.668684	-1.588341	0.437742	0.161173	1.586741	0.049724	0.007116	-0.015908	0.999966	0.002189	0.000806	0.007934	
44063	    0	4.998585	0.427149	-1.584399	0.495157	0.146678	2.046242	0.049927	0.004822	-0.015869	0.999944	0.002476	0.000733	0.010231	
44064	    0	5.274617	0.949799	-1.712350	0.534072	0.118068	2.465504	0.052613	0.010193	-0.017128	0.999920	0.002670	0.000590	0.012327	
44065	    0	5.732717	1.671641	-1.739960	0.438896	0.116734	2.881725	0.057068	0.017578	-0.017395	0.999893	0.002194	0.000584	0.014408	
44066	    0	6.046724	1.789689	-1.515091	0.346199	0.116544	3.238631	0.060158	0.018899	-0.015154	0.999866	0.001731	0.000583	0.016192	
44067	    0	6.622472	1.960235	-1.522682	0.369283	0.026132	3.584483	0.065857	0.020813	-0.015198	0.999837	0.001846	0.000131	0.017921	
44068	    0	7.566016	2.823625	-1.731250	0.276774	-0.065999	3.916992	0.075093	0.029735	-0.017247	0.999806	0.001384	-0.000330	0.019584	
44069	    0	8.502421	3.397827	-1.579733	0.090034	-0.081450	4.214027	0.084290	0.035767	-0.015747	0.999778	0.000450	-0.000407	0.021069	
44070	    0	9.151182	3.275867	-1.286763	0.027277	-0.133716	4.413582	0.090768	0.034769	-0.012802	0.999756	0.000136	-0.000669	0.022066	
44071	    0	9.900199	3.405860	-1.404876	0.034526	-0.257133	4.579564	0.098206	0.036316	-0.013916	0.999737	0.000173	-0.001286	0.022896	
44072	    0	10.609780	3.356878	-1.535325	-0.008775	-0.340875	4.688885	0.105298	0.036043	-0.015175	0.999723	-0.000044	-0.001704	0.023442	
44073	    0	11.097494	2.843458	-1.448868	0.051313	-0.470015	4.756617	0.110291	0.031067	-0.014221	0.999714	0.000257	-0.002350	0.023781	
44074	    0	11.731649	2.986592	-1.667876	0.074585	-0.611365	4.823397	0.116601	0.032690	-0.016310	0.999704	0.000373	-0.003057	0.024115	
44075	    0	11.872941	2.594187	-1.408743	0.024607	-0.696633	4.842860	0.118103	0.028809	-0.013672	0.999701	0.000123	-0.003483	0.024212	
44076	    0	11.829969	1.848320	-1.212225	0.103007	-0.821197	4.852976	0.117853	0.021353	-0.011627	0.999697	0.000515	-0.004106	0.024262	
44077	    0	11.876159	1.725252	-1.160867	0.168055	-0.920199	4.860420	0.118347	0.020142	-0.011047	0.999693	0.000840	-0.004601	0.024300	
44078	    0	11.979481	1.914180	-0.747908	0.201627	-0.980287	4.852601	0.119318	0.022048	-0.006872	0.999693	0.001008	-0.004901	0.024261	
44079	    0	12.327832	2.074287	-0.388988	0.254276	-1.018630	4.873399	0.122742	0.023743	-0.003235	0.999689	0.001271	-0.005093	0.024364	
44080	    0	12.642457	2.726927	-0.135189	0.316653	-1.079482	4.889047	0.125712	0.030350	-0.000626	0.999685	0.001583	-0.005397	0.024443	
44081	    0	12.879876	3.300565	0.183105	0.280028	-1.065747	4.882559	0.127930	0.036133	0.002563	0.999686	0.001400	-0.005328	0.024410	
44082	    0	12.928176	3.529302	0.315317	0.222801	-0.996120	4.852792	0.128357	0.038411	0.003836	0.999692	0.001114	-0.004980	0.024261	
44083	    0	12.606776	3.124198	0.540840	0.282506	-0.935457	4.790974	0.125244	0.034241	0.006042	0.999701	0.001412	-0.004677	0.023952	
44084	    0	13.032946	3.128324	0.405243	0.561196	-0.904743	4.695392	0.129527	0.034318	0.004733	0.999710	0.002806	-0.004523	0.023475	
44085	    0	13.810450	4.455443	0.375551	0.786854	-0.840837	4.557457	0.137024	0.047668	0.004517	0.999723	0.003934	-0.004204	0.022785	
44086	    0	14.373742	5.920050	1.013526	0.792379	-0.694333	4.365334	0.142364	0.062276	0.010874	0.999747	0.003962	-0.003471	0.021825	
44087	    0	14.425650	6.365228	1.171145	0.817359	-0.573010	4.082026	0.142883	0.066528	0.012390	0.999779	0.004086	-0.002865	0.020409	
44088	    0	14.057838	6.575231	0.156528	1.035945	-0.536761	3.673781	0.139334	0.068309	0.002290	0.999814	0.005179	-0.002684	0.018368	
44089	    0	13.438046	7.620014	-1.498255	1.316901	-0.556784	3.196880	0.133179	0.078430	-0.014099	0.999846	0.006584	-0.002784	0.015984	
44090	    0	12.769554	9.527924	-2.242547	1.333669	-0.581764	2.665813	0.126472	0.097116	-0.021413	0.999885	0.006668	-0.002909	0.013329	
44091	    0	12.378943	11.505528	-1.959055	1.114682	-0.533880	2.104239	0.122620	0.116455	-0.018616	0.999925	0.005573	-0.002669	0.010521	
44092	    0	12.042593	12.844171	-0.962706	0.766955	-0.450140	1.516552	0.119468	0.129385	-0.008862	0.999961	0.003835	-0.002251	0.007583	
44093	    0	11.674905	13.221624	-0.287038	0.450136	-0.329401	0.910191	0.116150	0.132751	-0.002380	0.999986	0.002251	-0.001647	0.004551	
44094	    0	11.029450	12.986134	-0.613313	0.151634	-0.146675	0.279999	0.110117	0.130020	-0.005954	0.999998	0.000758	-0.000733	0.001400	
44095	    0	10.008061	12.011555	-1.311456	-0.195122	0.025940	-0.336457	0.100281	0.119934	-0.013245	0.999998	-0.000976	0.000130	-0.001682	
44096	    0	9.748402	10.277028	-1.866070	-0.399210	0.154877	-0.893406	0.097927	0.102296	-0.018941	0.999988	-0.001996	0.000774	-0.004467	
44097	    0	9.946737	8.819591	-2.057909	-0.575262	0.207712	-1.347363	0.100037	0.087463	-0.020935	0.999972	-0.002876	0.001039	-0.006737	
44098	    0	10.096486	7.531531	-1.509105	-0.722323	0.231365	-1.690889	0.101579	0.074403	-0.015478	0.999956	-0.003612	0.001157	-0.008454	
44099	    0	10.162701	6.522568	-0.912687	-0.846116	0.238232	-1.915013	0.102234	0.064209	-0.009521	0.999944	-0.004230	0.001191	-0.009575	
44100	    0	9.971562	6.190023	-1.261173	-0.939389	0.175861	-2.034039	0.100327	0.060822	-0.012987	0.999936	-0.004697	0.000879	-0.010170	
44101	    0	8.809017	13.063618	-11.697956	-0.688952	-0.671213	-2.286588	0.089966	0.129211	-0.117126	0.999923	-0.003445	-0.003356	-0.011433	
44102	    0	14.419786	27.266840	-21.570880	0.161562	-1.056925	-3.644399	0.150272	0.270141	-0.214706	0.999819	0.000808	-0.005284	-0.018221	
44103	    0	25.187634	29.996196	-4.582828	-0.657558	0.913371	-5.786208	0.260193	0.292358	-0.047974	0.999565	-0.003287	0.004566	-0.028927	
44104	    0	23.368194	0.756515	7.169541	-4.612967	1.295698	-4.365159	0.234254	0.004085	0.070058	0.999475	-0.023061	0.006477	-0.021822	
44105	    0	19.515440	-42.178416	8.504118	-1.444293	0.531215	-2.401052	0.190308	-0.423462	0.087585	0.999898	-0.007221	0.002656	-0.012005	
44106	    0	8.282038	-10.025732	1.653791	1.789385	0.362989	-3.191174	0.081234	-0.101704	0.015484	0.999830	0.008946	0.001815	-0.015955	
44107	    0	15.995190	10.057540	1.642040	1.462657	0.668573	-3.773763	0.161865	0.097412	0.016602	0.999789	0.007313	0.003343	-0.018867	
44108	    0	19.966619	5.331017	2.837116	0.358408	0.503946	-3.373884	0.200598	0.049881	0.027958	0.999852	0.001792	0.002520	-0.016869	
44109	    0	15.754210	-4.299930	3.736352	0.541134	0.092319	-2.862650	0.156921	-0.045349	0.037170	0.999893	0.002706	0.000462	-0.014313	
44110	    0	12.741725	0.617468	0.309017	1.098872	0.034906	-3.046169	0.127492	0.004216	0.003095	0.999868	0.005494	0.000175	-0.015230	
44111	    0	11.520025	7.846264	-3.665179	0.250442	0.114444	-2.663501	0.116211	0.076965	-0.036621	0.999910	0.001252	0.000572	-0.013317	
44112	    0	12.392854	7.004055	-5.981235	-1.102854	0.215345	-2.047585	0.124570	0.068436	-0.060327	0.999931	-0.005514	0.001077	-0.010238	
44113	    0	12.873383	2.823426	-4.577199	-1.534305	0.250440	-1.686896	0.128906	0.026794	-0.046143	0.999934	-0.007671	0.001252	-0.008434	
44114	    0	12.245098	0.998193	-2.700370	-1.305220	0.163844	-1.486040	0.122498	0.008895	-0.027164	0.999950	-0.006526	0.000819	-0.007430	
44115	    0	12.469954	2.804369	-1.440030	-1.083388	0.159647	-1.386279	0.124878	0.027100	-0.014648	0.999961	-0.005417	0.000798	-0.006931	
44116	    0	12.449118	3.290749	0.169053	-1.105512	0.190928	-1.188673	0.124685	0.032175	0.001392	0.999966	-0.005527	0.000955	-0.005943	
44117	    0	12.735365	2.768690	1.053738	-1.147282	0.199129	-1.014720	0.127502	0.027100	0.010254	0.999969	-0.005736	0.000996	-0.005074	
44118	    0	12.201902	1.538123	0.781957	-1.071366	0.212290	-0.877388	0.122093	0.014887	0.007609	0.999975	-0.005357	0.001061	-0.004387	
44119	    0	12.066055	1.480456	0.627102	-0.935942	0.266268	-0.811773	0.120728	0.014343	0.006042	0.999979	-0.004680	0.001331	-0.004059	
44120	    0	12.351965	1.813857	-0.113648	-0.896650	0.301744	-0.730900	0.123583	0.017681	-0.001403	0.999982	-0.004483	0.001509	-0.003654	
44121	    0	13.022999	0.708334	-0.171429	-0.927740	0.318338	-0.647739	0.130249	0.006653	-0.001953	0.999982	-0.004639	0.001592	-0.003239	
44122	    0	12.861834	-0.735028	-0.103391	-0.842670	0.297166	-0.536349	0.128596	-0.007700	-0.001193	0.999986	-0.004213	0.001486	-0.002682	
44123	    0	12.464006	0.292025	-1.076537	-0.650599	0.242616	-0.515749	0.124634	0.002563	-0.010925	0.999990	-0.003253	0.001213	-0.002579	
44124	    0	12.315492	0.352690	-1.905494	-0.658991	0.241853	-0.525095	0.123140	0.003140	-0.019215	0.999990	-0.003295	0.001209	-0.002625	
44125	    0	11.407070	-1.505517	-2.251523	-0.743105	0.218392	-0.424196	0.114014	-0.015381	-0.022583	0.999990	-0.003716	0.001092	-0.002121	
44126	    0	10.820260	-1.557565	-2.093211	-0.550844	0.210953	-0.428773	0.108147	-0.015865	-0.021003	0.999993	-0.002754	0.001055	-0.002144	
44127	    0	10.841959	-0.129125	-1.434415	-0.375939	0.228882	-0.608064	0.108398	-0.001648	-0.014465	0.999992	-0.001880	0.001144	-0.003040	
44128	    0	10.311177	0.357787	-1.532056	-0.323296	0.221253	-0.709536	0.103106	0.003187	-0.015440	0.999991	-0.001616	0.001106	-0.003548	
44129	    0	9.407030	-1.476362	-1.779596	-0.266267	0.228310	-0.743105	0.093994	-0.015137	-0.017883	0.999991	-0.001331	0.001142	-0.003716	
44130	    0	9.337155	-1.517001	-1.375670	0.046539	0.231553	-0.857356	0.093289	-0.015567	-0.013868	0.999990	0.000233	0.001158	-0.004287	
44131	    0	9.472551	0.341577	-1.571917	0.324442	0.198365	-1.080328	0.094727	0.002930	-0.015808	0.999983	0.001622	0.000992	-0.005402	
44132	    0	9.787866	1.322142	-2.191367	0.461201	0.239374	-1.283274	0.097935	0.012644	-0.022001	0.999975	0.002306	0.001197	-0.006416	
44133	    0	10.299793	1.730466	-2.394306	0.568396	0.296215	-1.496904	0.103088	0.016602	-0.024048	0.999967	0.002842	0.001481	-0.007484	
44134	    0	10.790554	2.981172	-2.769427	0.469214	0.311284	-1.756693	0.108119	0.028928	-0.027794	0.999957	0.002346	0.001556	-0.008783	
44135	    0	11.374786	3.932682	-3.394499	0.215916	0.377853	-2.027929	0.114075	0.038208	-0.034119	0.999946	0.001080	0.001889	-0.010139	
44136	    0	11.555838	5.310880	-3.925279	-0.101855	0.425539	-2.265408	0.116066	0.051776	-0.039526	0.999933	-0.000509	0.002128	-0.011327	
44137	    0	12.061748	4.794720	-4.094213	-0.296601	0.511183	-2.479620	0.121094	0.046387	-0.041321	0.999918	-0.001483	0.002556	-0.012398	
44138	    0	12.848370	3.558857	-4.359411	-0.522249	0.561924	-2.711958	0.128826	0.033729	-0.044045	0.999900	-0.002611	0.002810	-0.013559	
44139	    0	12.861680	1.856857	-4.510468	-0.862920	0.644138	-2.942015	0.128723	0.016479	-0.045593	0.999877	-0.004314	0.003221	-0.014709	
44140	    0	12.501629	-0.040966	-3.944792	-1.111084	0.718723	-3.118092	0.124845	-0.002578	-0.039886	0.999856	-0.005555	0.003593	-0.015590	
44141	    0	12.259233	-1.968164	-3.263796	-1.156485	0.724830	-3.236556	0.122131	-0.021851	-0.032959	0.999846	-0.005782	0.003624	-0.016182	
44142	    0	11.991344	-3.500394	-2.881907	-1.057106	0.750007	-3.230258	0.119217	-0.037086	-0.029075	0.999848	-0.005285	0.003750	-0.016150	
44143	    0	11.821968	-4.264599	-2.348417	-0.820199	0.745618	-3.183897	0.117432	-0.044617	-0.023743	0.999858	-0.004101	0.003728	-0.015919	
44144	    0	11.258311	-3.626504	-2.251714	-0.671416	0.755153	-3.099579	0.111917	-0.038079	-0.022815	0.999866	-0.003357	0.003776	-0.015497	
44145	    0	10.050803	-2.200536	-1.795630	-0.579095	0.718146	-2.996186	0.100098	-0.023560	-0.018250	0.999877	-0.002895	0.003591	-0.014980	
44146	    0	8.989325	-0.890642	-2.180643	-0.476283	0.639176	-2.883828	0.089682	-0.010253	-0.022070	0.999887	-0.002381	0.003196	-0.014419	
44147	    0	8.164696	-0.156317	-2.344014	-0.502604	0.606558	-2.755832	0.081543	-0.002747	-0.023682	0.999897	-0.002513	0.003033	-0.013779	
44148	    0	7.551159	-0.472295	-1.982500	-0.481430	0.565546	-2.622876	0.075384	-0.005760	-0.020025	0.999907	-0.002407	0.002828	-0.013114	
44149	    0	7.072828	-1.039840	-1.510747	-0.359163	0.484479	-2.452153	0.070557	-0.011292	-0.015259	0.999920	-0.001796	0.002422	-0.012260	
44150	    0	6.876763	-1.496304	-1.028552	-0.146869	0.396737	-2.248432	0.068573	-0.015742	-0.010410	0.999934	-0.000734	0.001984	-0.011242	
44151	    0	6.975209	-1.634184	-0.316133	0.131419	0.354773	-1.979098	0.069580	-0.017029	-0.003296	0.999949	0.000657	0.001774	-0.009895	
44152	    0	7.104328	-1.833331	-0.036999	0.464827	0.294117	-1.675818	0.070886	-0.018927	-0.000518	0.999961	0.002324	0.001471	-0.008379	
44153	    0	6.824774	-1.820852	-0.229124	0.764474	0.232890	-1.400772	0.068115	-0.018677	-0.002441	0.999967	0.003822	0.001164	-0.007004	
44154	    0	6.347854	-1.461782	-0.340494	0.988397	0.131608	-1.101122	0.063395	-0.014950	-0.003520	0.999972	0.004942	0.000658	-0.005506	
44155	    0	6.069788	-0.738584	-0.720997	1.133927	0.035095	-0.737005	0.060669	-0.007568	-0.007263	0.999977	0.005670	0.000175	-0.003685	
44156	    0	5.870623	0.163536	-1.031638	1.118476	0.012779	-0.325777	0.058708	0.001597	-0.010311	0.999983	0.005592	0.000064	-0.001629	
44157	    0	5.438544	0.523248	-1.064273	1.038365	0.017738	0.082398	0.054382	0.005310	-0.010620	0.999986	0.005192	0.000089	0.000412	
44158	    0	5.190857	0.686996	-1.382475	1.021391	0.037575	0.527003	0.051888	0.007077	-0.013799	0.999983	0.005107	0.000188	0.002635	
44159	    0	5.175647	1.009458	-1.650665	0.997170	0.094033	1.006326	0.051697	0.010437	-0.016479	0.999974	0.004986	0.000470	0.005032	
44160	    0	5.117069	1.315909	-1.634504	0.896656	0.165178	1.462955	0.051059	0.013606	-0.016327	0.999963	0.004483	0.000826	0.007315	
44161	    0	5.131560	1.531123	-1.642701	0.816551	0.216679	1.917302	0.051147	0.015869	-0.016418	0.999945	0.004083	0.001083	0.009586	
44162	    0	5.211333	1.670388	-1.577857	0.715274	0.250632	2.358306	0.051891	0.017373	-0.015782	0.999923	0.003576	0.001253	0.011791	
44163	    0	5.361949	1.820056	-1.324057	0.627920	0.235184	2.768801	0.053345	0.018982	-0.013245	0.999898	0.003139	0.001176	0.013844	
44164	    0	5.926361	2.425277	-1.247674	0.516532	0.221834	3.163092	0.058856	0.025218	-0.012478	0.999870	0.002583	0.001109	0.015815	
44165	    0	6.577244	3.147509	-1.119968	0.296227	0.240339	3.554724	0.065186	0.032654	-0.011230	0.999840	0.001481	0.001202	0.017773	
44166	    0	7.285803	3.484717	-0.927618	0.090032	0.218977	3.861668	0.072157	0.036249	-0.009339	0.999812	0.000450	0.001095	0.019307	
44167	    0	8.021574	3.504971	-1.074451	-0.003052	0.145922	4.095746	0.079468	0.036682	-0.010803	0.999789	-0.000015	0.000730	0.020477	
44168	    0	8.742700	3.154357	-1.107748	-0.019647	0.054936	4.279845	0.086722	0.033403	-0.011105	0.999770	-0.000098	0.000275	0.021398	
44169	    0	9.565748	3.018909	-1.240255	0.092514	-0.123606	4.396412	0.094971	0.032288	-0.012329	0.999758	0.000463	-0.000618	0.021980	
44170	    0	10.363652	3.560513	-1.411937	0.117121	-0.270866	4.480166	0.102823	0.037923	-0.013958	0.999747	0.000586	-0.001354	0.022399	
44171	    0	10.417315	3.409037	-1.298215	0.088699	-0.405156	4.518515	0.103394	0.036438	-0.012756	0.999743	0.000443	-0.002026	0.022591	
44172	    0	10.472384	2.986073	-1.395488	0.132191	-0.576070	4.556675	0.104047	0.032246	-0.013634	0.999736	0.000661	-0.002880	0.022781	
44173	    0	10.407632	2.814407	-1.613170	0.151075	-0.698724	4.555915	0.103455	0.030518	-0.015747	0.999734	0.000755	-0.003493	0.022778	
44174	    0	10.157166	2.572261	-1.554835	0.241111	-0.838928	4.577097	0.101011	0.028057	-0.015091	0.999728	0.001205	-0.004194	0.022883	
44175	    0	10.041872	2.857023	-1.382816	0.259614	-0.966733	4.591792	0.099792	0.030884	-0.013306	0.999723	0.001298	-0.004833	0.022957	
44176	    0	10.061327	3.063961	-0.986743	0.248932	-1.071649	4.609730	0.099922	0.032960	-0.009291	0.999719	0.001245	-0.005358	0.023046	
44177	    0	10.379225	3.017670	-0.708028	0.176256	-1.127542	4.665060	0.103088	0.032593	-0.006470	0.999711	0.000881	-0.005637	0.023323	
44178	    0	10.646695	2.549341	-0.234619	0.145926	-1.128307	4.706079	0.105839	0.027990	-0.001728	0.999706	0.000730	-0.005641	0.023528	
44179	    0	11.165746	2.208047	0.101793	0.210020	-1.087296	4.745190	0.111084	0.024719	0.001648	0.999702	0.001050	-0.005436	0.023724	
44180	    0	12.233714	2.415899	0.638737	0.321039	-1.009851	4.764076	0.121681	0.027052	0.007045	0.999701	0.001605	-0.005049	0.023818	
44181	    0	13.300996	2.709740	1.146814	0.447126	-0.924583	4.741371	0.132263	0.030212	0.012146	0.999705	0.002235	-0.004622	0.023705	
44182	    0	14.411469	4.187575	1.515199	0.657908	-0.879181	4.665058	0.143018	0.045169	0.015927	0.999712	0.003289	-0.004395	0.023323	
44183	    0	15.423901	5.652802	2.038663	0.713603	-0.680603	4.543714	0.152832	0.059937	0.021118	0.999729	0.003568	-0.003403	0.022717	
44184	    0	15.444294	6.241749	1.890472	0.849794	-0.542113	4.324315	0.152994	0.065654	0.019595	0.999753	0.004249	-0.002710	0.021620	
44185	    0	14.642062	6.914224	-0.148353	1.217167	-0.521888	3.950023	0.145020	0.072021	-0.000671	0.999783	0.006085	-0.002609	0.019749	
44186	    0	13.475812	8.355274	-2.951651	1.532647	-0.539240	3.438585	0.133370	0.086075	-0.028502	0.999819	0.007663	-0.002696	0.017192	
44187	    0	12.698117	10.462333	-4.602664	1.523848	-0.567652	2.827579	0.125610	0.106750	-0.044861	0.999866	0.007619	-0.002838	0.014137	
44188	    0	12.675514	12.848656	-3.849595	1.166567	-0.565926	2.227845	0.125419	0.130109	-0.037384	0.999916	0.005833	-0.002830	0.011139	
44189	    0	12.628013	14.195245	-1.606217	0.681314	-0.505645	1.593039	0.125183	0.143005	-0.015259	0.999959	0.003407	-0.002528	0.007965	
44190	    0	12.341396	13.997035	0.221239	0.268556	-0.374605	0.933651	0.122754	0.140541	0.002631	0.999986	0.001343	-0.001873	0.004668	
44191	    0	11.977669	12.962288	0.625709	-0.175285	-0.137329	0.221253	0.119629	0.129761	0.006226	0.999998	-0.000876	-0.000687	0.001106	
44192	    0	10.698231	10.809744	0.253030	-0.454331	0.085640	-0.468064	0.107236	0.107852	0.002239	0.999994	-0.002272	0.000428	-0.002340	
44193	    0	9.928803	8.518956	-0.451981	-0.376131	0.163461	-1.054388	0.099731	0.084656	-0.004761	0.999984	-0.001881	0.000817	-0.005272	
44194	    0	9.793549	8.017464	-0.930297	-0.370030	0.206759	-1.564806	0.098549	0.079388	-0.009552	0.999967	-0.001850	0.001034	-0.007824	
44195	    0	9.940432	7.966447	-0.807874	-0.559244	0.246624	-1.935611	0.100159	0.078674	-0.008423	0.999948	-0.002796	0.001233	-0.009678	
44196	    0	10.075536	7.194026	-0.783904	-0.830860	0.265700	-2.161266	0.101514	0.070812	-0.008269	0.999931	-0.004154	0.001328	-0.010806	
44197	    0	10.039015	8.841615	-4.170276	-1.097139	-0.014306	-2.394936	0.101440	0.086975	-0.042175	0.999913	-0.005486	-0.000072	-0.011974	
44198	    0	11.525008	22.396521	-17.838115	-0.635942	-0.852627	-3.289196	0.119667	0.221454	-0.178584	0.999850	-0.003180	-0.004263	-0.016445	
44199	    0	21.149881	27.098563	-3.427289	-0.081454	0.377700	-5.340451	0.218567	0.265198	-0.034790	0.999641	-0.000407	0.001888	-0.026699	
44200	    0	22.397583	16.676433	3.266108	-2.798179	1.038348	-5.682395	0.228758	0.160734	0.029204	0.999485	-0.013988	0.005191	-0.028407	
44201	    0	17.691104	-27.753596	5.401225	-2.601030	0.513682	-2.928352	0.172974	-0.279358	0.057190	0.999804	-0.013004	0.002568	-0.014641	
44202	    0	10.535718	-20.799545	0.102821	1.103262	0.067905	-3.159098	0.102055	-0.209626	-0.000160	0.999860	0.005516	0.000340	-0.015795	
44203	    0	9.816590	5.153658	-2.019171	0.985199	0.402091	-3.462409	0.098999	0.049927	-0.020142	0.999836	0.004926	0.002010	-0.017311	
44204	    0	16.313575	8.973767	0.471192	0.997026	0.444818	-3.483012	0.164676	0.086855	0.004785	0.999833	0.004985	0.002224	-0.017414	
44205	    0	13.486562	-0.191654	0.700982	0.984421	0.234232	-2.900810	0.134827	-0.003906	0.006836	0.999882	0.004922	0.001171	-0.014503	
44206	    0	13.884125	0.997316	0.747366	1.186225	0.256167	-2.761755	0.138970	0.008011	0.007347	0.999886	0.005931	0.001281	-0.013808	
44207	    0	12.475669	6.618477	-1.783146	0.876643	0.246627	-2.498700	0.125549	0.064697	-0.017700	0.999911	0.004383	0.001233	-0.012493	
44208	    0	13.488795	5.895696	-2.347751	-0.085451	0.314527	-2.026784	0.135439	0.057576	-0.023715	0.999947	-0.000427	0.001573	-0.010134	
44209	    0	14.271039	3.950292	-1.912071	-0.476080	0.274852	-1.662466	0.143005	0.038269	-0.019409	0.999961	-0.002380	0.001374	-0.008312	
44210	    0	13.997326	3.209495	-1.741384	-0.666053	0.203707	-1.416603	0.140178	0.031044	-0.017661	0.999969	-0.003330	0.001019	-0.007083	
44211	    0	13.941926	2.797157	-0.905395	-0.738342	0.175478	-1.288617	0.139587	0.027039	-0.009277	0.999971	-0.003692	0.000877	-0.006443	
44212	    0	14.029742	1.928739	-0.155093	-0.858505	0.183870	-1.130114	0.140402	0.018487	-0.001760	0.999974	-0.004292	0.000919	-0.005651	
44213	    0	14.732770	1.475935	0.195705	-0.924690	0.164224	-0.990303	0.147400	0.014038	0.001770	0.999976	-0.004623	0.000821	-0.004951	
44214	    0	14.678167	1.330724	0.634018	-0.936515	0.177766	-0.879675	0.146844	0.012691	0.006149	0.999978	-0.004683	0.000889	-0.004398	
44215	    0	13.728835	1.028338	0.250855	-0.993163	0.203706	-0.771337	0.137329	0.009766	0.002319	0.999979	-0.004966	0.001019	-0.003857	
44216	    0	13.183060	0.826825	-0.527538	-1.045616	0.213815	-0.687604	0.131852	0.007787	-0.005458	0.999979	-0.005228	0.001069	-0.003438	
44217	    0	13.491216	-0.554176	-0.554576	-1.122292	0.242044	-0.605015	0.134888	-0.005981	-0.005676	0.999978	-0.005611	0.001210	-0.003025	
44218	    0	13.368051	-0.722395	-0.148646	-1.024252	0.224687	-0.544742	0.133658	-0.007596	-0.001598	0.999982	-0.005121	0.001123	-0.002724	
44219	    0	12.586655	0.236751	-1.707305	-0.929074	0.205232	-0.531771	0.125854	0.001953	-0.017212	0.999985	-0.004645	0.001026	-0.002659	
44220	    0	12.016744	-0.976119	-2.937512	-0.996595	0.216676	-0.479319	0.120111	-0.010196	-0.029455	0.999984	-0.004983	0.001083	-0.002397	
44221	    0	11.683985	-2.520961	-2.612197	-0.894741	0.196839	-0.423433	0.116760	-0.025574	-0.026123	0.999987	-0.004474	0.000984	-0.002117	
44222	    0	11.632800	-0.692844	-2.270249	-0.516321	0.180626	-0.536920	0.116288	-0.007299	-0.022789	0.999992	-0.002582	0.000903	-0.002685	
44223	    0	10.877537	0.416875	-2.877701	-0.232697	0.161934	-0.645448	0.108765	0.003784	-0.028870	0.999993	-0.001163	0.000810	-0.003227	
44224	    0	9.654627	-0.995344	-3.075874	0.004005	0.114441	-0.704958	0.096493	-0.010293	-0.030814	0.999993	0.000020	0.000572	-0.003525	
44225	    0	9.043262	-0.628828	-2.766681	0.286294	0.074768	-0.894168	0.090393	-0.006653	-0.027710	0.999989	0.001431	0.000374	-0.004471	
44226	    0	9.158705	2.807836	-2.182841	0.423434	0.064087	-1.247415	0.091753	0.027553	-0.021799	0.999978	0.002117	0.000320	-0.006237	
44227	    0	10.079966	6.519515	-1.961978	0.238994	0.098420	-1.634235	0.101318	0.064392	-0.019592	0.999966	0.001195	0.000492	-0.008171	
44228	    0	10.592315	8.905814	-2.639317	-0.291829	0.131800	-1.923210	0.106755	0.087996	-0.026592	0.999952	-0.001459	0.000659	-0.009616	
44229	    0	11.079567	9.036698	-4.597918	-0.852987	0.156597	-2.227836	0.111755	0.088928	-0.046448	0.999928	-0.004265	0.000783	-0.011139	
44230	    0	11.771258	5.340280	-4.851706	-1.338620	0.239952	-2.413064	0.118284	0.051651	-0.049008	0.999904	-0.006693	0.001200	-0.012065	
44231	    0	12.433148	1.333267	-2.748177	-1.245731	0.244912	-2.513969	0.124451	0.011597	-0.027710	0.999901	-0.006228	0.001225	-0.012569	
44232	    0	12.640916	0.397280	-1.545599	-0.944551	0.229843	-2.665418	0.126429	0.002214	-0.015615	0.999899	-0.004723	0.001149	-0.013327	
44233	    0	12.342847	1.065540	-1.587077	-1.074068	0.310528	-2.784070	0.123535	0.008850	-0.016113	0.999887	-0.005370	0.001553	-0.013920	
44234	    0	11.769319	0.576054	-1.485129	-1.422180	0.494406	-2.822615	0.117721	0.003992	-0.015175	0.999871	-0.007111	0.002472	-0.014112	
44235	    0	11.179415	-0.823020	-0.869155	-1.555514	0.632506	-2.844368	0.111633	-0.009888	-0.008972	0.999863	-0.007777	0.003162	-0.014221	
44236	    0	11.015494	-2.236804	-1.313329	-1.496767	0.659974	-2.944132	0.109765	-0.024085	-0.013320	0.999858	-0.007483	0.003300	-0.014720	
44237	    0	10.470102	-2.869952	-1.765060	-1.268065	0.691446	-3.034353	0.104187	-0.030396	-0.017822	0.999858	-0.006340	0.003457	-0.015171	
44238	    0	10.269589	-2.993219	-1.879022	-0.860825	0.684196	-3.075927	0.102154	-0.031588	-0.019007	0.999866	-0.004304	0.003421	-0.015379	
44239	    0	10.589869	-2.205663	-2.094112	-0.440998	0.663214	-3.104534	0.105469	-0.023743	-0.021240	0.999871	-0.002205	0.003316	-0.015522	
44240	    0	10.641690	-1.147817	-2.315025	-0.205621	0.631550	-3.102433	0.106148	-0.013150	-0.023473	0.999874	-0.001028	0.003158	-0.015512	
44241	    0	10.239193	-0.875760	-2.325503	-0.091556	0.604463	-3.025175	0.102173	-0.010315	-0.023560	0.999881	-0.000458	0.003022	-0.015125	
44242	    0	9.528812	-1.203281	-1.838956	-0.046922	0.590155	-2.891455	0.095046	-0.013412	-0.018667	0.999890	-0.000235	0.002951	-0.014457	
44243	    0	8.535626	-1.702528	-1.037640	0.050356	0.561732	-2.737516	0.085083	-0.018188	-0.010620	0.999902	0.000252	0.002809	-0.013687	
44244	    0	7.634734	-2.033608	-0.325507	0.255973	0.494971	-2.555920	0.076071	-0.021305	-0.003470	0.999914	0.001280	0.002475	-0.012779	
44245	    0	7.033993	-1.747862	0.123943	0.509847	0.444042	-2.362120	0.070129	-0.018311	0.001038	0.999924	0.002549	0.002220	-0.011810	
44246	    0	6.613096	-1.237003	0.157207	0.699059	0.385102	-2.156687	0.065995	-0.013087	0.001400	0.999933	0.003495	0.001925	-0.010783	
44247	    0	6.436376	-0.938843	0.051822	0.824181	0.347144	-1.927221	0.064270	-0.010010	0.000366	0.999943	0.004121	0.001736	-0.009636	
44248	    0	6.315065	-1.106713	-0.312628	1.003854	0.313955	-1.654651	0.063051	-0.011573	-0.003283	0.999951	0.005019	0.001570	-0.008273	
44249	    0	6.332094	-1.133920	-0.759559	1.136223	0.284580	-1.338213	0.063232	-0.011719	-0.007751	0.999960	0.005681	0.001423	-0.006691	
44250	    0	6.384766	-1.097654	-0.985962	1.193822	0.238230	-0.970278	0.063782	-0.011227	-0.010002	0.999969	0.005969	0.001191	-0.004851	
44251	    0	6.485814	-0.850065	-1.262945	1.183519	0.234987	-0.556950	0.064819	-0.008606	-0.012756	0.999977	0.005918	0.001175	-0.002785	
44252	    0	6.367134	-0.356423	-1.386858	1.103979	0.252344	-0.150681	0.063651	-0.003535	-0.013968	0.999983	0.005520	0.001262	-0.000753	
44253	    0	5.940640	0.009180	-1.365188	1.019483	0.276185	0.277711	0.059387	0.000244	-0.013733	0.999985	0.005097	0.001381	0.001389	
44254	    0	5.337958	0.492593	-1.536291	0.975996	0.271417	0.697140	0.053341	0.005187	-0.015410	0.999981	0.004880	0.001357	0.003486	
44255	    0	4.849273	1.098464	-1.884305	0.898179	0.277713	1.169597	0.048401	0.011353	-0.018860	0.999971	0.004491	0.001389	0.005848	
44256	    0	4.538145	1.489286	-2.020046	0.712786	0.320439	1.668954	0.045222	0.015343	-0.020219	0.999957	0.003564	0.001602	0.008345	
44257	    0	4.165621	1.609883	-2.005093	0.534069	0.354202	2.163742	0.041443	0.016602	-0.020081	0.999936	0.002670	0.001771	0.010818	
44258	    0	4.172341	1.819206	-2.024221	0.348292	0.350963	2.636798	0.041443	0.018775	-0.020283	0.999909	0.001741	0.001755	0.013184	
44259	    0	4.390938	1.883924	-1.806817	0.180252	0.350966	3.093082	0.043579	0.019531	-0.018127	0.999878	0.000901	0.001755	0.015465	
44260	    0	4.722915	1.582900	-1.641088	0.107198	0.288596	3.475365	0.046921	0.016655	-0.016470	0.999847	0.000536	0.001443	0.017376	
44261	    0	5.483727	1.896409	-1.704653	0.080877	0.187885	3.842400	0.054443	0.020020	-0.017090	0.999814	0.000404	0.000939	0.019211	
44262	    0	6.597961	2.706823	-1.706832	-0.065045	0.113496	4.201626	0.065382	0.028440	-0.017115	0.999779	-0.000325	0.000567	0.021007	
44263	    0	7.551607	2.965349	-1.473128	-0.196855	0.023844	4.455173	0.074829	0.031311	-0.014771	0.999751	-0.000984	0.000119	0.022274	
44264	    0	8.518401	3.102938	-1.457782	-0.221845	-0.125133	4.651109	0.084441	0.032983	-0.014561	0.999728	-0.001109	-0.000626	0.023253	
44265	    0	9.304419	3.125168	-1.554465	-0.215742	-0.298338	4.781037	0.092285	0.033447	-0.015442	0.999712	-0.001079	-0.001492	0.023903	
44266	    0	10.022178	3.135514	-1.582088	-0.163667	-0.502446	4.868231	0.099459	0.033770	-0.015597	0.999700	-0.000818	-0.002512	0.024339	
44267	    0	10.585278	3.317174	-1.648930	-0.202200	-0.665162	4.958862	0.105042	0.035767	-0.016174	0.999686	-0.001011	-0.003325	0.024792	
44268	    0	10.541499	2.803225	-1.188598	-0.217652	-0.818340	4.981571	0.104721	0.030634	-0.011489	0.999681	-0.001088	-0.004091	0.024905	
44269	    0	10.525470	2.106830	-1.058144	-0.109684	-0.997270	4.992452	0.104736	0.023682	-0.010071	0.999676	-0.000548	-0.004986	0.024960	
44270	    0	10.775254	1.896862	-0.855224	0.033573	-1.141483	5.001617	0.107280	0.021657	-0.007936	0.999671	0.000168	-0.005707	0.025005	
44271	    0	11.368153	2.015578	-0.572309	0.086985	-1.250407	5.032913	0.113159	0.023010	-0.005005	0.999663	0.000435	-0.006251	0.025162	
44272	    0	11.864795	1.951145	-0.142411	0.090419	-1.312598	5.100458	0.118105	0.022529	-0.000638	0.999653	0.000452	-0.006562	0.025499	
44273	    0	12.611653	1.634574	0.374694	0.089274	-1.307642	5.164948	0.125610	0.019592	0.004578	0.999644	0.000446	-0.006537	0.025822	
44274	    0	13.166174	1.610716	1.095816	0.200677	-1.288760	5.212839	0.131108	0.019518	0.011823	0.999639	0.001003	-0.006443	0.026061	
44275	    0	13.950014	1.848501	1.578855	0.331346	-1.207116	5.229817	0.138855	0.022095	0.016663	0.999638	0.001657	-0.006035	0.026146	
44276	    0	15.076439	2.338457	1.661326	0.501503	-1.101056	5.265113	0.149985	0.027297	0.017506	0.999635	0.002507	-0.005505	0.026322	
44277	    0	16.150339	2.929032	1.608470	0.650102	-0.968095	5.234392	0.160583	0.033447	0.016968	0.999640	0.003250	-0.004840	0.026169	
44278	    0	16.842076	4.350707	1.282742	0.823116	-0.863175	5.133078	0.167173	0.047753	0.013741	0.999653	0.004115	-0.004315	0.025662	
44279	    0	17.107848	5.783270	0.638729	0.850005	-0.655244	4.948954	0.169556	0.062012	0.007202	0.999679	0.004250	-0.003276	0.024742	
44280	    0	16.507565	6.221642	-0.642333	0.932400	-0.530865	4.628808	0.163592	0.066042	-0.005686	0.999718	0.004662	-0.002654	0.023142	
44281	    0	15.555059	7.386565	-2.705106	1.139920	-0.560613	4.131639	0.154053	0.077209	-0.026184	0.999766	0.005699	-0.002803	0.020657	
44282	    0	14.084490	9.330920	-4.456458	1.333696	-0.664559	3.441822	0.139354	0.096008	-0.043466	0.999824	0.006668	-0.003323	0.017208	
44283	    0	13.238709	11.964855	-3.970145	1.275684	-0.726918	2.658183	0.130920	0.121643	-0.038452	0.999885	0.006378	-0.003634	0.013290	
44284	    0	13.062504	14.169348	-1.235377	1.005575	-0.679602	1.879350	0.129325	0.142971	-0.011196	0.999937	0.005028	-0.003398	0.009397	
44285	    0	12.761150	14.380791	1.203968	0.770576	-0.541501	1.119242	0.126770	0.144470	0.012939	0.999972	0.003853	-0.002707	0.005596	
44286	    0	12.075293	13.630983	1.903284	0.714686	-0.328256	0.352479	0.120481	0.136453	0.019718	0.999990	0.003573	-0.001641	0.001762	
44287	    0	10.739782	12.606353	0.909975	0.772860	-0.106621	-0.434114	0.107666	0.125793	0.009644	0.999990	0.003864	-0.000533	-0.002171	
44288	    0	9.826511	11.147376	-0.394678	0.785261	0.030899	-1.109132	0.098881	0.110941	-0.003526	0.999976	0.003926	0.000154	-0.005546	
44289	    0	9.814962	9.696599	-1.055181	0.721750	0.101663	-1.645683	0.098938	0.096191	-0.010254	0.999959	0.003609	0.000508	-0.008228	
44290	    0	9.864254	7.917236	-0.906746	0.634015	0.125124	-2.051965	0.099442	0.078183	-0.008881	0.999942	0.003170	0.000626	-0.010260	
44291	    0	9.859693	6.175111	-0.417329	0.534261	0.159458	-2.330073	0.099304	0.060608	-0.004089	0.999928	0.002671	0.000797	-0.011650	
44292	    0	9.981884	5.082438	-0.133633	0.420581	0.175099	-2.474087	0.100436	0.049587	-0.001319	0.999921	0.002103	0.000875	-0.012370	
44293	    0	9.889337	5.335044	-1.177254	0.325975	0.064089	-2.507849	0.099548	0.052124	-0.011719	0.999920	0.001630	0.000320	-0.012539	
44294	    0	8.178808	14.216921	-12.878713	0.735691	-0.862725	-2.710440	0.084262	0.141510	-0.127906	0.999891	0.003678	-0.004313	-0.013552	
44295	    0	15.461919	29.026810	-16.950649	1.460582	-0.891953	-4.203394	0.161438	0.288147	-0.166687	0.999743	0.007302	-0.004459	-0.021015	
44296	    0	23.075967	23.741538	-4.229654	-0.318187	0.645340	-5.544622	0.237082	0.230832	-0.043426	0.999609	-0.001591	0.003226	-0.027719	
44297	    0	21.136276	-2.419814	3.176687	-3.417425	0.748533	-4.069244	0.210938	-0.027954	0.031433	0.999640	-0.017085	0.003742	-0.020344	
44298	    0	14.686042	-30.362048	0.117360	-0.439656	0.001717	-2.542948	0.142984	-0.305451	0.001842	0.999916	-0.002198	0.000009	-0.012714	
44299	    0	8.481258	-3.481108	0.274385	1.000255	0.293934	-2.954985	0.084290	-0.036072	0.002441	0.999877	0.005001	0.001470	-0.014774	
44300	    0	15.031621	6.029444	0.973033	0.709567	0.372904	-3.239782	0.151284	0.057815	0.009657	0.999861	0.003548	0.001864	-0.016198	
44301	    0	18.833368	-0.832733	-0.534453	0.182540	0.277721	-3.025172	0.188171	-0.011169	-0.005615	0.999884	0.000913	0.001389	-0.015125	
44302	    0	15.897223	-4.279026	2.564899	0.869210	-0.039865	-2.788071	0.158349	-0.045112	0.025488	0.999893	0.004346	-0.000199	-0.013940	
44303	    0	13.099687	2.989639	1.232058	1.453655	-0.068668	-2.913795	0.131409	0.027893	0.012573	0.999866	0.007268	-0.000343	-0.014568	
44304	    0	13.235879	7.080988	0.138065	0.877788	0.013543	-2.519682	0.133237	0.069128	0.001678	0.999910	0.004389	0.000068	-0.012598	
44305	    0	13.832327	7.738888	-3.014328	-0.247769	0.051118	-2.050818	0.139099	0.075928	-0.030273	0.999947	-0.001239	0.000256	-0.010254	
44306	    0	13.186347	4.542092	-4.269793	-0.967422	0.098039	-1.614022	0.132202	0.044147	-0.042978	0.999955	-0.004837	0.000490	-0.008070	
44307	    0	12.834619	1.379019	-2.933293	-1.070990	0.119783	-1.364916	0.128418	0.012756	-0.029480	0.999962	-0.005355	0.000599	-0.006824	
44308	    0	13.662358	0.775101	-1.712837	-0.927172	0.101853	-1.257528	0.136660	0.006812	-0.017231	0.999969	-0.004636	0.000509	-0.006288	
44309	    0	15.166108	0.248257	0.032558	-0.844391	0.096894	-1.182567	0.151672	0.001587	0.000244	0.999973	-0.004222	0.000484	-0.005913	
44310	    0	15.241495	1.436169	0.809271	-0.659184	0.053788	-1.062209	0.152491	0.013578	0.008006	0.999980	-0.003296	0.000269	-0.005311	
44311	    0	14.314516	2.271110	0.922555	-0.726895	0.070191	-0.907140	0.143250	0.022095	0.009094	0.999983	-0.003634	0.000351	-0.004536	
44312	    0	13.765940	2.205694	0.451522	-0.824170	0.127030	-0.770573	0.137746	0.021544	0.004338	0.999984	-0.004121	0.000635	-0.003853	
44313	    0	13.070324	1.380794	-0.855393	-1.010138	0.161935	-0.608066	0.130737	0.013367	-0.008728	0.999982	-0.005051	0.000810	-0.003040	
44314	    0	12.634001	-0.180512	-1.510420	-1.109512	0.175286	-0.477031	0.126322	-0.002191	-0.015203	0.999981	-0.005548	0.000876	-0.002385	
44315	    0	12.342792	-0.010650	-2.299783	-1.098639	0.122262	-0.413516	0.123413	-0.000488	-0.023071	0.999982	-0.005493	0.000611	-0.002068	
44316	    0	11.459461	-0.500413	-3.916885	-1.197632	0.059510	-0.357630	0.114573	-0.005444	-0.039171	0.999980	-0.005988	0.000298	-0.001788	
44317	    0	10.953716	-2.420749	-3.682219	-1.189239	0.009918	-0.312807	0.109497	-0.024597	-0.036682	0.999981	-0.005946	0.000050	-0.001564	
44318	    0	11.347958	-1.384491	-3.233264	-0.842098	-0.010109	-0.415231	0.113452	-0.014216	-0.032268	0.999989	-0.004210	-0.000051	-0.002076	
44319	    0	10.918869	-0.319336	-4.075373	-0.580598	-0.060845	-0.530244	0.109192	-0.003601	-0.040710	0.999991	-0.002903	-0.000304	-0.002651	
44320	    0	10.268798	-0.895826	-4.404368	-0.613406	-0.139809	-0.706103	0.102686	-0.009456	-0.043943	0.999989	-0.003067	-0.000699	-0.003531	
44321	    0	9.967987	-0.719541	-3.786710	-0.405123	-0.142480	-0.962071	0.099670	-0.007751	-0.037781	0.999986	-0.002026	-0.000712	-0.004810	
44322	    0	9.641036	1.249723	-3.949370	-0.531201	-0.135614	-1.291667	0.096515	0.011769	-0.039460	0.999975	-0.002656	-0.000678	-0.006458	
44323	    0	10.561547	4.576591	-4.147643	-0.711642	-0.135805	-1.660942	0.106018	0.044739	-0.041565	0.999958	-0.003558	-0.000679	-0.008305	
44324	    0	12.011826	6.751690	-3.848371	-1.220733	-0.002861	-2.099852	0.120817	0.066014	-0.038888	0.999926	-0.006104	-0.000014	-0.010499	
44325	    0	12.481684	6.183280	-4.502361	-1.692070	-0.006104	-2.414028	0.125549	0.059937	-0.045532	0.999891	-0.008460	-0.000031	-0.012070	
44326	    0	12.915342	2.944326	-4.268899	-1.986590	0.010491	-2.557294	0.129510	0.027363	-0.042974	0.999868	-0.009933	0.000052	-0.012786	
44327	    0	13.121497	0.761272	-3.290676	-2.054504	0.075535	-2.713144	0.131287	0.005493	-0.033020	0.999855	-0.010272	0.000378	-0.013565	
44328	    0	12.786616	-0.188488	-1.994279	-2.077785	0.211727	-2.883682	0.127798	-0.003936	-0.020044	0.999841	-0.010388	0.001059	-0.014418	
44329	    0	12.412860	-0.884159	-1.030814	-1.937970	0.267997	-3.001564	0.123962	-0.010803	-0.010376	0.999839	-0.009689	0.001340	-0.015007	
44330	    0	12.051477	-1.815278	-1.084583	-1.673786	0.274482	-3.118870	0.120196	-0.020120	-0.010848	0.999842	-0.008368	0.001372	-0.015594	
44331	    0	11.908288	-2.470452	-1.129601	-1.396822	0.298324	-3.180093	0.118652	-0.026672	-0.011292	0.999847	-0.006984	0.001492	-0.015900	
44332	    0	11.478676	-2.739922	-1.165964	-1.185475	0.355166	-3.199543	0.114307	-0.029300	-0.011693	0.999852	-0.005927	0.001776	-0.015997	
44333	    0	10.669489	-2.929157	-0.832095	-0.988052	0.359552	-3.145744	0.106201	-0.031006	-0.008362	0.999862	-0.004940	0.001798	-0.015728	
44334	    0	10.046997	-2.813165	-0.720053	-0.717956	0.360886	-3.070579	0.100009	-0.029696	-0.007277	0.999873	-0.003590	0.001804	-0.015352	
44335	    0	9.590754	-2.425095	-0.606094	-0.483532	0.344099	-2.990075	0.095520	-0.025696	-0.006165	0.999884	-0.002418	0.001720	-0.014950	
44336	    0	9.319369	-2.185588	-0.499045	-0.279437	0.329220	-2.898892	0.092855	-0.023211	-0.005112	0.999892	-0.001397	0.001646	-0.014494	
44337	    0	8.913041	-2.207769	-0.378116	-0.122837	0.313006	-2.778716	0.088806	-0.023315	-0.003906	0.999902	-0.000614	0.001565	-0.013893	
44338	    0	8.241574	-2.387355	-0.191364	0.022889	0.288781	-2.615050	0.082091	-0.024948	-0.002035	0.999913	0.000114	0.001444	-0.013075	
44339	    0	7.428195	-2.442543	-0.117135	0.204664	0.228888	-2.444520	0.073975	-0.025330	-0.001282	0.999924	0.001023	0.001144	-0.012222	
44340	    0	6.766830	-2.220059	0.030660	0.368508	0.188259	-2.239466	0.067414	-0.022957	0.000201	0.999935	0.001842	0.000941	-0.011197	
44341	    0	6.337365	-1.980788	0.149873	0.482186	0.145915	-2.009618	0.063171	-0.020447	0.001404	0.999946	0.002411	0.000730	-0.010048	
44342	    0	6.146269	-1.611074	0.116663	0.509078	0.122263	-1.748872	0.061319	-0.016650	0.001087	0.999958	0.002545	0.000611	-0.008744	
44343	    0	5.925726	-1.517916	0.202489	0.521093	0.106240	-1.489273	0.059143	-0.015625	0.001953	0.999969	0.002605	0.000531	-0.007446	
44344	    0	6.035239	-1.673374	0.299438	0.612263	0.137139	-1.170548	0.060255	-0.017096	0.002901	0.999977	0.003061	0.000686	-0.005853	
44345	    0	6.170181	-1.310414	0.021727	0.668529	0.164796	-0.849919	0.061646	-0.013367	0.000122	0.999985	0.003343	0.000824	-0.004250	
44346	    0	5.782262	-0.669594	-0.204701	0.673296	0.160218	-0.551607	0.057802	-0.006848	-0.002116	0.999990	0.003366	0.000801	-0.002758	
44347	    0	5.567124	-0.300990	-0.501200	0.680544	0.156594	-0.212098	0.055664	-0.003052	-0.005066	0.999993	0.003403	0.000783	-0.001060	
44348	    0	5.592451	0.212282	-0.794434	0.688554	0.169182	0.178337	0.055916	0.002200	-0.007984	0.999992	0.003443	0.000846	0.000892	
44349	    0	5.416833	0.701650	-0.875410	0.605967	0.209046	0.587465	0.054138	0.007202	-0.008789	0.999990	0.003030	0.001045	0.002937	
44350	    0	5.117382	1.085254	-0.846935	0.484851	0.251008	0.976186	0.051109	0.011123	-0.008507	0.999984	0.002424	0.001255	0.004881	
44351	    0	4.795408	1.246263	-0.855892	0.387005	0.299075	1.412214	0.047852	0.012817	-0.008606	0.999971	0.001935	0.001495	0.007061	
44352	    0	4.611304	1.193998	-1.005236	0.349431	0.322156	1.808956	0.045986	0.012374	-0.010105	0.999956	0.001747	0.001611	0.009045	
44353	    0	4.626421	1.430213	-1.166146	0.332839	0.354011	2.210283	0.046082	0.014832	-0.011719	0.999935	0.001664	0.001770	0.011051	
44354	    0	4.863555	1.935276	-1.345852	0.351725	0.355159	2.611237	0.048353	0.020009	-0.013510	0.999911	0.001759	0.001776	0.013056	
44355	    0	5.316249	2.603016	-1.466181	0.313771	0.337995	3.034329	0.052734	0.026855	-0.014709	0.999882	0.001569	0.001690	0.015171	
44356	    0	5.909201	3.311914	-1.499188	0.211917	0.323121	3.436260	0.058487	0.034143	-0.015051	0.999850	0.001060	0.001616	0.017180	
44357	    0	6.672822	3.743469	-1.547829	0.055698	0.290888	3.796616	0.065979	0.038696	-0.015564	0.999818	0.000278	0.001454	0.018982	
44358	    0	7.382181	3.877081	-1.743060	-0.023844	0.215355	4.123790	0.072983	0.040279	-0.017514	0.999786	-0.000119	0.001077	0.020617	
44359	    0	7.981427	4.172734	-1.853019	-0.126658	0.147450	4.398701	0.078857	0.043457	-0.018616	0.999757	-0.000633	0.000737	0.021992	
44360	    0	8.481723	4.550224	-2.069194	-0.238440	0.007821	4.609136	0.083738	0.047416	-0.020751	0.999733	-0.001192	0.000039	0.023044	
44361	    0	9.420184	5.097170	-2.153907	-0.474404	-0.122082	4.800118	0.092957	0.053162	-0.021606	0.999708	-0.002372	-0.000610	0.023998	
44362	    0	9.740777	4.510869	-1.894323	-0.710369	-0.256755	4.886744	0.096292	0.047403	-0.018985	0.999694	-0.003551	-0.001284	0.024431	
44363	    0	9.885671	3.383183	-1.415342	-0.650854	-0.469065	4.898574	0.098022	0.036194	-0.014038	0.999692	-0.003254	-0.002345	0.024490	
44364	    0	9.790465	2.535737	-1.330260	-0.396769	-0.699877	4.857363	0.097297	0.027699	-0.013015	0.999697	-0.001984	-0.003499	0.024284	
44365	    0	9.818543	2.199630	-0.874706	-0.045590	-0.923249	4.821499	0.097656	0.024353	-0.008301	0.999699	-0.000228	-0.004616	0.024105	
44366	    0	10.348489	2.889976	-0.643099	0.259808	-1.128885	4.838107	0.102779	0.031400	-0.005810	0.999690	0.001299	-0.005644	0.024188	
44367	    0	11.070089	3.764902	-0.142240	0.305399	-1.255169	4.894779	0.109741	0.040344	-0.000671	0.999680	0.001527	-0.006275	0.024471	
44368	    0	11.642112	3.663696	0.132061	0.322950	-1.337581	4.972628	0.115450	0.039513	0.002157	0.999667	0.001615	-0.006687	0.024860	
44369	    0	12.458514	3.136859	0.307575	0.377126	-1.336059	5.036736	0.123718	0.034485	0.003967	0.999659	0.001885	-0.006680	0.025181	
44370	    0	13.400111	2.515680	0.716195	0.514090	-1.329003	5.067457	0.133255	0.028520	0.008120	0.999653	0.002570	-0.006644	0.025334	
44371	    0	14.687895	2.220656	1.146865	0.710570	-1.222370	5.074897	0.146179	0.025879	0.012451	0.999653	0.003552	-0.006111	0.025372	
44372	    0	15.741826	2.123889	1.640078	0.953211	-1.074723	5.043417	0.156726	0.025116	0.017358	0.999656	0.004766	-0.005373	0.025214	
44373	    0	16.316292	2.225010	1.451792	1.344643	-0.930129	4.960433	0.162476	0.026184	0.015442	0.999659	0.006722	-0.004650	0.024799	
44374	    0	16.880105	3.285871	0.044298	1.765256	-0.879385	4.764513	0.167950	0.036857	0.001496	0.999667	0.008825	-0.004396	0.023820	
44375	    0	17.109884	5.281191	-1.593968	1.950462	-0.809561	4.465939	0.169922	0.056763	-0.014709	0.999695	0.009751	-0.004047	0.022327	
44376	    0	16.496707	6.709938	-2.305135	1.879283	-0.718942	4.099058	0.163623	0.070671	-0.021809	0.999739	0.009396	-0.003594	0.020494	
44377	    0	15.294574	7.485085	-3.125922	1.922936	-0.725607	3.599806	0.151672	0.077881	-0.029968	0.999784	0.009614	-0.003628	0.017998	
44378	    0	14.067746	8.872094	-3.809694	1.941406	-0.767559	2.967234	0.139480	0.091157	-0.036683	0.999835	0.009706	-0.003838	0.014835	
44379	    0	13.117899	10.798312	-3.353837	1.738230	-0.743893	2.261434	0.130066	0.109741	-0.032104	0.999891	0.008691	-0.003719	0.011307	
44380	    0	12.599717	12.514919	-1.410994	1.365688	-0.646795	1.561768	0.125057	0.126219	-0.012845	0.999941	0.006828	-0.003234	0.007809	
44381	    0	11.936146	12.750678	0.015756	1.046189	-0.457767	0.820167	0.118835	0.127991	0.001099	0.999975	0.005231	-0.002289	0.004101	
44382	    0	10.527058	11.349647	-0.111183	0.944141	-0.237275	0.047112	0.105245	0.113524	-0.000451	0.999988	0.004721	-0.001186	0.000236	
44383	    0	9.004441	9.518059	-1.120969	1.042373	-0.074006	-0.725560	0.090393	0.094910	-0.010681	0.999979	0.005212	-0.000370	-0.003628	
44384	    0	8.758915	8.121830	-1.927093	1.032461	-0.009155	-1.377695	0.088147	0.080710	-0.018849	0.999963	0.005162	-0.000046	-0.006888	
44385	    0	9.008376	6.885946	-1.688482	0.877395	0.036812	-1.806671	0.090698	0.068115	-0.016602	0.999949	0.004387	0.000184	-0.009033	
44386	    0	9.029706	5.433552	-1.183184	0.605977	0.113871	-2.079051	0.090849	0.053429	-0.011721	0.999941	0.003030	0.000569	-0.010395	
44387	    0	9.182067	3.715215	-0.646592	0.374039	0.156406	-2.240039	0.092224	0.036133	-0.006470	0.999935	0.001870	0.000782	-0.011200	
44388	    0	9.284055	2.151286	-0.464494	0.285346	0.156978	-2.315193	0.093078	0.020443	-0.004688	0.999931	0.001427	0.000785	-0.011576	
44389	    0	9.203004	1.757994	-1.637784	0.376138	0.024605	-2.322441	0.092224	0.016541	-0.016357	0.999930	0.001881	0.000123	-0.011612	
44390	    0	8.745000	10.354106	-10.745194	1.117173	-0.841742	-2.529614	0.089205	0.103017	-0.106503	0.999895	0.005586	-0.004209	-0.012648	
44391	    0	13.029206	33.881196	-21.833409	2.668281	-1.625042	-3.951681	0.138733	0.338989	-0.212708	0.999682	0.013340	-0.008124	-0.019756	
44392	    0	25.319327	27.511358	-1.556781	0.027660	0.818741	-5.536611	0.260612	0.267969	-0.016587	0.999608	0.000138	0.004093	-0.027679	
44393	    0	19.898322	10.923961	-0.236243	-3.552802	0.576300	-4.962935	0.201599	0.104187	-0.004822	0.999530	-0.017761	0.002881	-0.024811	
44394	    0	13.832900	-34.715078	2.035032	-1.962752	-0.164802	-2.669648	0.133662	-0.348733	0.023879	0.999862	-0.009813	-0.000824	-0.013348	
44395	    0	5.679736	-15.098121	0.119638	0.593586	-0.168424	-2.703944	0.054749	-0.151733	0.000793	0.999904	0.002968	-0.000842	-0.013519	
44396	    0	10.939014	10.620630	3.161525	1.056913	0.128180	-3.239407	0.111110	0.104247	0.032099	0.999854	0.005284	0.000641	-0.016196	
44397	    0	16.998341	6.636212	1.738193	0.599124	0.139624	-3.177019	0.171021	0.063599	0.017456	0.999868	0.002995	0.000698	-0.015884	
44398	    0	17.754038	0.205091	2.905566	0.334750	0.047113	-2.651866	0.177553	-0.000352	0.029015	0.999910	0.001674	0.000236	-0.013259	
44399	    0	15.029897	0.893914	1.016340	0.509658	-0.094416	-2.519296	0.150391	0.007019	0.010254	0.999917	0.002548	-0.000472	-0.012596	
44400	    0	11.515163	2.923833	-0.374848	0.687425	-0.084879	-2.300890	0.115479	0.027924	-0.003602	0.999928	0.003437	-0.000424	-0.011504	
44401	    0	14.216188	5.912618	-1.734406	0.248723	0.001717	-2.061499	0.142761	0.057678	-0.017273	0.999946	0.001244	0.000009	-0.010307	
44402	    0	14.575067	6.118659	-4.558968	-0.664720	0.010109	-1.692604	0.146258	0.059798	-0.045797	0.999958	-0.003324	0.000051	-0.008463	
44403	    0	14.016689	1.372065	-3.679142	-1.234263	-0.008392	-1.399251	0.140259	0.012512	-0.036865	0.999956	-0.006171	-0.000042	-0.006996	
44404	    0	14.126626	0.869973	-2.428110	-1.210610	-0.062562	-1.278512	0.141325	0.007649	-0.024285	0.999961	-0.006053	-0.000313	-0.006392	
44405	    0	15.705030	0.940117	-0.223804	-1.254289	-0.044060	-1.227585	0.157104	0.008423	-0.002258	0.999961	-0.006271	-0.000220	-0.006138	
44406	    0	16.272378	-0.190897	1.408435	-1.150144	-0.005341	-1.144422	0.162709	-0.002759	0.014103	0.999967	-0.005751	-0.000027	-0.005722	
44407	    0	15.371227	0.695594	0.664292	-1.074992	0.021553	-1.075755	0.153748	0.006165	0.006592	0.999970	-0.005375	0.000108	-0.005379	
44408	    0	14.581483	1.224219	0.601776	-1.100741	0.095750	-1.039706	0.145879	0.011517	0.005883	0.999970	-0.005504	0.000479	-0.005198	
44409	    0	13.998933	-0.696053	-0.073579	-1.200116	0.145914	-0.949106	0.139954	-0.007629	-0.000793	0.999970	-0.006001	0.000730	-0.004745	
44410	    0	13.359835	-1.369828	-1.382636	-1.218044	0.153352	-0.888261	0.133525	-0.014376	-0.013843	0.999970	-0.006090	0.000767	-0.004441	
44411	    0	12.733489	-1.580339	-1.472467	-1.219188	0.131418	-0.825508	0.127258	-0.016418	-0.014709	0.999972	-0.006096	0.000657	-0.004128	
44412	    0	12.288376	-0.712492	-2.496654	-1.108560	0.067711	-0.835044	0.122844	-0.007776	-0.024966	0.999975	-0.005543	0.000339	-0.004175	
44413	    0	11.626470	-1.064347	-3.812881	-1.164256	0.037575	-0.838478	0.116211	-0.011353	-0.038086	0.999974	-0.005821	0.000188	-0.004192	
44414	    0	11.439962	-2.977846	-3.080170	-0.961882	-0.006294	-0.769429	0.114285	-0.030366	-0.030653	0.999981	-0.004809	-0.000031	-0.003847	
44415	    0	11.964644	-0.356598	-2.906932	-0.578883	-0.008392	-0.938420	0.119629	-0.004211	-0.029053	0.999985	-0.002894	-0.000042	-0.004692	
44416	    0	10.987310	0.420661	-3.977574	-0.651746	0.000763	-1.124771	0.109894	0.003459	-0.039788	0.999978	-0.003259	0.000004	-0.005624	
44417	    0	9.748648	-2.310107	-4.353461	-0.567631	-0.021935	-1.189431	0.097351	-0.023804	-0.043457	0.999978	-0.002838	-0.000110	-0.005947	
44418	    0	9.959090	-1.819968	-3.655315	-0.178529	-0.052262	-1.414692	0.099468	-0.018936	-0.036510	0.999974	-0.000893	-0.000261	-0.007073	
44419	    0	10.760873	3.115550	-3.393013	-0.042534	-0.115206	-1.849392	0.107910	0.030151	-0.033875	0.999956	-0.000213	-0.000576	-0.009247	
44420	    0	11.284209	6.846942	-3.789235	-0.442324	-0.061799	-2.213334	0.113602	0.067131	-0.038007	0.999936	-0.002212	-0.000309	-0.011066	
44421	    0	11.531623	7.926665	-4.171870	-1.013022	-0.000763	-2.444529	0.116272	0.077637	-0.042114	0.999912	-0.005065	-0.000004	-0.012222	
44422	    0	12.111408	6.109384	-4.535363	-1.644009	0.037576	-2.615079	0.121887	0.059128	-0.045868	0.999880	-0.008220	0.000188	-0.013075	
44423	    0	12.261184	2.626538	-3.261284	-1.917923	0.074008	-2.601737	0.122925	0.024353	-0.032898	0.999868	-0.009589	0.000370	-0.013008	
44424	    0	12.324090	0.513690	-2.285556	-2.062894	0.191888	-2.622917	0.123270	0.003284	-0.023014	0.999860	-0.010314	0.000959	-0.013114	
44425	    0	12.042528	-0.238482	-1.076924	-2.098947	0.320641	-2.642186	0.120361	-0.004089	-0.010925	0.999856	-0.010494	0.001603	-0.013210	
44426	    0	11.551659	-0.672983	-0.751148	-2.025699	0.380725	-2.636079	0.115399	-0.008328	-0.007652	0.999860	-0.010128	0.001904	-0.013180	
44427	    0	10.701242	-1.266612	-0.872975	-1.880730	0.465605	-2.640651	0.106812	-0.014160	-0.008850	0.999866	-0.009403	0.002328	-0.013203	
44428	    0	10.154517	-1.867125	-0.917932	-1.628372	0.501272	-2.686995	0.101258	-0.020108	-0.009274	0.999873	-0.008142	0.002506	-0.013434	
44429	    0	9.825253	-2.294403	-1.115330	-1.308492	0.476284	-2.725326	0.097900	-0.024353	-0.011230	0.999883	-0.006542	0.002381	-0.013626	
44430	    0	9.427893	-2.512017	-1.210143	-1.025046	0.467699	-2.732949	0.093895	-0.026467	-0.012188	0.999890	-0.005125	0.002338	-0.013664	
44431	    0	8.888045	-2.575007	-1.040058	-0.694107	0.428023	-2.687924	0.088501	-0.026978	-0.010498	0.999901	-0.003470	0.002140	-0.013439	
44432	    0	8.520107	-2.298536	-0.714080	-0.346575	0.378048	-2.607804	0.084878	-0.024106	-0.007260	0.999911	-0.001733	0.001890	-0.013039	
44433	    0	8.136658	-1.882065	-0.401288	-0.047876	0.350199	-2.499456	0.081116	-0.019836	-0.004150	0.999920	-0.000239	0.001751	-0.012497	
44434	    0	7.694050	-1.757025	-0.150505	0.237661	0.281150	-2.357539	0.076724	-0.018474	-0.001635	0.999928	0.001188	0.001406	-0.011787	
44435	    0	7.226397	-1.625215	-0.049491	0.479899	0.208477	-2.156874	0.072083	-0.017029	-0.000610	0.999938	0.002399	0.001042	-0.010784	
44436	    0	6.572692	-1.436914	0.061452	0.630390	0.158313	-1.935611	0.065584	-0.015006	0.000516	0.999948	0.003152	0.000792	-0.009678	
44437	    0	5.948137	-1.083943	0.226141	0.688181	0.086404	-1.701379	0.059387	-0.011353	0.002197	0.999957	0.003441	0.000432	-0.008507	
44438	    0	5.501881	-0.554992	0.189069	0.640876	0.041581	-1.436630	0.054977	-0.005951	0.001861	0.999969	0.003204	0.000208	-0.007183	
44439	    0	5.105468	-0.476071	0.105691	0.548557	0.022316	-1.184853	0.051025	-0.005066	0.001038	0.999978	0.002743	0.000112	-0.005924	
44440	    0	4.920675	-0.774162	-0.107826	0.538638	0.019646	-0.940137	0.049170	-0.007970	-0.001104	0.999985	0.002693	0.000098	-0.004701	
44441	    0	5.124253	-1.027943	-0.338664	0.636294	-0.006676	-0.657656	0.051208	-0.010437	-0.003418	0.999990	0.003181	-0.000033	-0.003288	
44442	    0	5.395321	-0.720669	-0.854333	0.681497	-0.018501	-0.338746	0.053942	-0.007269	-0.008563	0.999992	0.003407	-0.000093	-0.001694	
44443	    0	5.505440	-0.266198	-1.127941	0.630380	0.013733	0.006866	0.055054	-0.002625	-0.011292	0.999994	0.003152	0.000069	0.000034	
44444	    0	5.518465	0.250214	-1.484080	0.569726	0.027847	0.376702	0.055178	0.002648	-0.014841	0.999993	0.002849	0.000139	0.001884	
44445	    0	5.399772	0.951841	-1.666815	0.451662	0.060463	0.776675	0.053955	0.009766	-0.016663	0.999990	0.002258	0.000302	0.003883	
44446	    0	4.952750	1.387522	-1.706496	0.300218	0.085831	1.160247	0.049438	0.014188	-0.017065	0.999982	0.001501	0.000429	0.005801	
44447	    0	4.579486	1.653141	-1.671614	0.208285	0.109292	1.566331	0.045654	0.016907	-0.016724	0.999969	0.001041	0.000546	0.007832	
44448	    0	4.471972	1.895710	-1.804498	0.114824	0.115778	1.981386	0.044518	0.019409	-0.018060	0.999950	0.000574	0.000579	0.009907	
44449	    0	4.603780	2.051278	-1.625791	-0.014496	0.161175	2.378902	0.045776	0.021057	-0.016296	0.999928	-0.000072	0.000806	0.011894	
44450	    0	4.712870	1.796162	-1.342839	-0.068285	0.161367	2.765172	0.046864	0.018606	-0.013473	0.999904	-0.000341	0.000807	0.013825	
44451	    0	5.040375	2.173694	-1.413682	0.002289	0.094036	3.128942	0.050049	0.022522	-0.014160	0.999877	0.000011	0.000470	0.015644	
44452	    0	5.964569	3.595909	-1.621881	-0.091557	0.024988	3.507413	0.059001	0.036990	-0.016243	0.999846	-0.000458	0.000125	0.017536	
44453	    0	7.019042	4.361306	-1.493014	-0.370049	0.006295	3.839349	0.069336	0.044922	-0.015015	0.999814	-0.001850	0.000031	0.019196	
44454	    0	7.948700	4.150094	-1.482856	-0.499952	-0.071149	4.121504	0.078615	0.043090	-0.014907	0.999784	-0.002500	-0.000356	0.020606	
44455	    0	8.945719	4.365626	-1.680493	-0.555464	-0.189033	4.329263	0.088501	0.045532	-0.016846	0.999761	-0.002777	-0.000945	0.021645	
44456	    0	9.660566	4.493416	-1.700132	-0.581600	-0.289179	4.463193	0.095596	0.047026	-0.016997	0.999745	-0.002908	-0.001446	0.022314	
44457	    0	10.066726	4.141865	-1.561101	-0.534867	-0.445405	4.523863	0.099731	0.043640	-0.015503	0.999738	-0.002674	-0.002227	0.022617	
44458	    0	10.060461	3.161019	-1.400128	-0.327139	-0.634631	4.531304	0.099898	0.033856	-0.013738	0.999737	-0.001636	-0.003173	0.022655	
44459	    0	9.964694	2.147953	-1.344560	0.094613	-0.874216	4.543710	0.099182	0.023743	-0.013000	0.999732	0.000473	-0.004371	0.022717	
44460	    0	10.164821	2.112789	-1.495233	0.509882	-1.108273	4.581881	0.101209	0.023487	-0.014333	0.999719	0.002549	-0.005541	0.022907	
44461	    0	10.681364	2.763620	-1.174763	0.696632	-1.238945	4.653627	0.106201	0.030151	-0.010986	0.999703	0.003483	-0.006194	0.023266	
44462	    0	11.234577	2.958107	-0.814036	0.695682	-1.318305	4.756657	0.111650	0.032269	-0.007294	0.999689	0.003478	-0.006591	0.023781	
44463	    0	11.546447	2.620097	-0.363412	0.660967	-1.381831	4.834502	0.114807	0.028992	-0.002747	0.999678	0.003304	-0.006908	0.024170	
44464	    0	12.314235	2.152416	-0.348875	0.675467	-1.418080	4.912349	0.122584	0.024549	-0.002539	0.999667	0.003377	-0.007090	0.024559	
44465	    0	12.986402	1.620036	0.142225	0.730978	-1.375544	4.965007	0.129395	0.019409	0.002380	0.999661	0.003654	-0.006877	0.024822	
44466	    0	14.024596	1.231805	0.176144	0.898846	-1.336442	5.006795	0.139863	0.015812	0.002763	0.999654	0.004494	-0.006681	0.025031	
44467	    0	15.703559	2.036834	0.320316	1.025701	-1.214741	5.035222	0.156433	0.024292	0.004272	0.999651	0.005128	-0.006073	0.025173	
44468	    0	16.862213	3.430902	0.673975	1.044963	-1.023789	4.985607	0.167660	0.038458	0.007793	0.999662	0.005224	-0.005118	0.024925	
44469	    0	16.910512	5.039126	0.935606	1.162079	-0.845998	4.813891	0.167786	0.054382	0.010376	0.999684	0.005810	-0.004230	0.024067	
44470	    0	16.731029	6.003100	0.614200	1.250767	-0.608311	4.559949	0.165864	0.063782	0.007039	0.999716	0.006253	-0.003041	0.022798	
44471	    0	15.887965	5.726033	-0.710892	1.491670	-0.478975	4.173624	0.157654	0.060608	-0.006287	0.999751	0.007458	-0.002395	0.020866	
44472	    0	15.116547	6.066863	-2.789153	1.847974	-0.520935	3.713878	0.150072	0.063714	-0.026920	0.999781	0.009239	-0.002604	0.018568	
44473	    0	14.133285	7.900018	-4.105452	2.005887	-0.639953	3.130526	0.140198	0.081604	-0.039795	0.999822	0.010029	-0.003200	0.015652	
44474	    0	13.107956	10.473395	-3.270989	1.887020	-0.679236	2.488051	0.129869	0.106654	-0.031267	0.999872	0.009435	-0.003396	0.012440	
44475	    0	12.467938	12.408928	-0.841898	1.496163	-0.652902	1.871539	0.123535	0.125305	-0.007080	0.999923	0.007481	-0.003264	0.009357	
44476	    0	11.887073	12.286487	0.982919	1.156250	-0.539596	1.250093	0.118072	0.123544	0.010861	0.999960	0.005781	-0.002698	0.006250	
44477	    0	11.540666	11.420063	0.843078	0.937849	-0.326540	0.595859	0.115051	0.114502	0.009155	0.999983	0.004689	-0.001633	0.002979	
44478	    0	10.001993	10.671991	-0.246805	0.827983	-0.172997	-0.070763	0.100060	0.106693	-0.001940	0.999990	0.004140	-0.000865	-0.000354	
44479	    0	9.117633	9.783140	-1.211454	0.849347	-0.092316	-0.759892	0.091553	0.097534	-0.011658	0.999983	0.004247	-0.000462	-0.003799	
44480	    0	8.975573	8.469864	-1.861356	0.940715	-0.056649	-1.395051	0.090349	0.084156	-0.018191	0.999964	0.004704	-0.000283	-0.006975	
44481	    0	9.154620	7.152234	-1.844039	0.988216	-0.050355	-1.896704	0.092224	0.070740	-0.018066	0.999943	0.004941	-0.000252	-0.009483	
44482	    0	9.426295	6.092441	-1.626530	0.959229	-0.050927	-2.230508	0.094939	0.059945	-0.015952	0.999926	0.004796	-0.000255	-0.011152	
44483	    0	9.709782	5.172131	-1.492285	0.783560	-0.028039	-2.422398	0.097717	0.050598	-0.014709	0.999919	0.003918	-0.000140	-0.012112	
44484	    0	9.703984	4.167283	-1.259869	0.524535	-0.018120	-2.506134	0.097553	0.040485	-0.012483	0.999918	0.002623	-0.000091	-0.012530	
44485	    0	9.504951	3.364041	-1.012978	0.319680	-0.013543	-2.488011	0.095459	0.032471	-0.010071	0.999921	0.001598	-0.000068	-0.012440	
44486	    0	8.858528	4.139459	-3.124881	0.118831	-0.181012	-2.418768	0.089106	0.040338	-0.031144	0.999926	0.000594	-0.000905	-0.012094	
44487	    0	6.922782	10.805932	-12.766202	0.455488	-0.968771	-2.456739	0.071167	0.107483	-0.127075	0.999909	0.002277	-0.004844	-0.012283	
44488	    0	15.334167	24.017007	-13.070581	1.204379	-0.902426	-3.667118	0.158303	0.238076	-0.128561	0.999804	0.006021	-0.004512	-0.018334	
44489	    0	20.718420	23.259346	-4.234342	-0.789721	0.487758	-4.806999	0.212585	0.227356	-0.043762	0.999700	-0.003948	0.002439	-0.024033	
44490	    0	18.574720	2.906760	1.735471	-3.707598	0.626835	-4.073665	0.186344	0.025584	0.016275	0.999616	-0.018536	0.003134	-0.020366	
44491	    0	14.020842	-29.593784	0.801605	-1.384780	-0.086024	-2.429278	0.136597	-0.297546	0.010132	0.999902	-0.006924	-0.000430	-0.012146	
44492	    0	8.802397	-10.031331	-0.172756	0.870543	0.135999	-2.702423	0.086657	-0.101481	-0.002227	0.999899	0.004353	0.000680	-0.013512	
44493	    0	15.398150	12.455053	1.715896	0.883526	0.316063	-3.251803	0.156006	0.121948	0.017456	0.999856	0.004417	0.001580	-0.016258	
44494	    0	18.524495	2.946531	1.227205	-0.016213	0.252732	-2.824878	0.185652	0.026846	0.012035	0.999899	-0.000081	0.001264	-0.014124	
44495	    0	16.484733	-1.898576	2.716410	0.208479	0.126651	-2.481143	0.164612	-0.021057	0.027039	0.999922	0.001042	0.000633	-0.012405	
44496	    0	12.867729	2.124360	1.066265	0.540176	0.049783	-2.531695	0.128935	0.019584	0.010685	0.999916	0.002701	0.000249	-0.012658	
44497	    0	12.047547	3.979148	-0.539541	0.463114	0.007820	-2.238513	0.120911	0.038452	-0.005310	0.999934	0.002316	0.000039	-0.011192	
44498	    0	13.860707	6.380505	-3.876224	-0.334173	0.057221	-1.928360	0.139202	0.062400	-0.038907	0.999951	-0.001671	0.000286	-0.009642	
44499	    0	14.405122	3.178335	-2.869105	-0.916112	0.051118	-1.572440	0.144287	0.030518	-0.028870	0.999958	-0.004580	0.000256	-0.007862	
44500	    0	13.931067	1.175525	-1.939272	-0.913058	-0.013352	-1.340309	0.139386	0.010733	-0.019434	0.999967	-0.004565	-0.000067	-0.006701	
44501	    0	14.422058	2.149472	-0.960933	-0.932321	-0.002861	-1.220715	0.144348	0.020569	-0.009705	0.999970	-0.004662	-0.000014	-0.006104	
44502	    0	15.431443	1.429042	0.494861	-0.909622	0.017738	-1.055154	0.154387	0.013498	0.004872	0.999975	-0.004548	0.000089	-0.005276	
44503	    0	15.378659	1.864871	-0.019551	-0.974090	0.027466	-0.914008	0.153870	0.017944	-0.000305	0.999977	-0.004870	0.000137	-0.004570	
44504	    0	14.542564	1.187662	0.171844	-1.007468	0.072289	-0.771337	0.145471	0.011324	0.001608	0.999979	-0.005037	0.000361	-0.003857	
44505	    0	14.101481	1.254681	-0.654894	-1.096352	0.139047	-0.689702	0.141052	0.012024	-0.006714	0.999978	-0.005482	0.000695	-0.003448	
44506	    0	13.253352	0.259316	-1.945079	-1.278125	0.165750	-0.547223	0.132524	0.002106	-0.019575	0.999975	-0.006391	0.000829	-0.002736	
44507	    0	12.822229	-1.095677	-2.455374	-1.341259	0.185587	-0.455479	0.128174	-0.011414	-0.024597	0.999974	-0.006706	0.000928	-0.002277	
44508	    0	12.891396	-0.710131	-2.837134	-1.301967	0.171853	-0.449566	0.128873	-0.007576	-0.028434	0.999975	-0.006510	0.000859	-0.002248	
44509	    0	11.936452	-0.945655	-4.218875	-1.360333	0.089455	-0.446323	0.119324	-0.010010	-0.042175	0.999974	-0.006802	0.000447	-0.002232	
44510	    0	11.068624	-3.319603	-3.919683	-1.348125	0.057221	-0.450520	0.110600	-0.033709	-0.039002	0.999974	-0.006741	0.000286	-0.002253	
44511	    0	11.309444	-1.789982	-3.137842	-0.806240	0.010681	-0.611117	0.113037	-0.018372	-0.031311	0.999987	-0.004031	0.000053	-0.003056	
44512	    0	11.253716	0.166495	-3.802446	-0.431062	-0.032997	-0.830272	0.112549	0.001116	-0.038009	0.999989	-0.002155	-0.000165	-0.004151	
44513	    0	10.366859	-0.994795	-4.334613	-0.470545	-0.092316	-0.982671	0.103638	-0.010559	-0.043274	0.999985	-0.002353	-0.000462	-0.004913	
44514	    0	9.992456	-1.522593	-4.194786	-0.327113	-0.129128	-1.238641	0.099854	-0.015913	-0.041858	0.999979	-0.001636	-0.000646	-0.006193	
44515	    0	10.799333	1.685248	-3.845424	-0.218012	-0.149538	-1.628894	0.108154	0.015930	-0.038391	0.999966	-0.001090	-0.000748	-0.008144	
44516	    0	12.026110	5.979438	-3.288995	-0.455484	-0.115778	-2.111858	0.120902	0.058445	-0.032954	0.999941	-0.002277	-0.000579	-0.010559	
44517	    0	12.115230	8.313683	-4.233543	-0.988608	-0.126652	-2.471234	0.122192	0.081421	-0.042664	0.999910	-0.004943	-0.000633	-0.012356	
44518	    0	12.207502	6.851351	-5.660131	-1.624367	-0.115209	-2.736970	0.123026	0.066372	-0.057076	0.999873	-0.008121	-0.000576	-0.013684	
44519	    0	12.954479	2.900851	-4.017823	-1.993659	-0.073055	-2.791732	0.129944	0.026794	-0.040405	0.999852	-0.009968	-0.000365	-0.013958	
44520	    0	13.669301	0.655869	-2.671478	-2.179837	0.031854	-2.889219	0.136762	0.004292	-0.026792	0.999836	-0.010899	0.000159	-0.014445	
44521	    0	13.079927	-0.181590	-1.215413	-2.319284	0.231184	-2.980219	0.130737	-0.003906	-0.012268	0.999821	-0.011596	0.001156	-0.014900	
44522	    0	12.222235	-1.490280	-0.598862	-2.259579	0.337621	-3.005206	0.121969	-0.016805	-0.006012	0.999822	-0.011297	0.001688	-0.015025	
44523	    0	11.525885	-2.760295	-0.653085	-1.982799	0.390647	-3.047350	0.114807	-0.029419	-0.006470	0.999832	-0.009913	0.001953	-0.015236	
44524	    0	11.032880	-3.265377	-1.005565	-1.663867	0.404379	-3.098840	0.109784	-0.034441	-0.009996	0.999843	-0.008319	0.002022	-0.015493	
44525	    0	10.410957	-3.105348	-1.344053	-1.375648	0.402280	-3.141941	0.103577	-0.032776	-0.013428	0.999850	-0.006878	0.002011	-0.015709	
44526	    0	9.782842	-2.808948	-1.324426	-1.092389	0.413341	-3.100346	0.097349	-0.029674	-0.013287	0.999863	-0.005462	0.002067	-0.015501	
44527	    0	9.355257	-2.471744	-1.066468	-0.853575	0.401323	-3.046546	0.093140	-0.026184	-0.010742	0.999872	-0.004268	0.002007	-0.015232	
44528	    0	9.061978	-2.188066	-0.908475	-0.632120	0.389305	-2.954597	0.090265	-0.023245	-0.009189	0.999884	-0.003160	0.001946	-0.014772	
44529	    0	8.682355	-1.767682	-0.763956	-0.419441	0.347912	-2.834418	0.086548	-0.018921	-0.007751	0.999895	-0.002097	0.001740	-0.014172	
44530	    0	7.916924	-1.529728	-0.586013	-0.302324	0.324831	-2.667699	0.078946	-0.016360	-0.005964	0.999908	-0.001512	0.001624	-0.013338	
44531	    0	7.023364	-1.769281	-0.131907	-0.182347	0.289352	-2.455965	0.070007	-0.018555	-0.001404	0.999923	-0.000912	0.001447	-0.012280	
44532	    0	6.263674	-2.353301	0.399822	0.048066	0.239377	-2.259303	0.062370	-0.024240	0.003918	0.999935	0.000240	0.001197	-0.011296	
44533	    0	5.706256	-2.363949	0.752994	0.323492	0.157359	-2.036322	0.056824	-0.024231	0.007446	0.999946	0.001617	0.000787	-0.010181	
44534	    0	5.220605	-1.916924	0.919217	0.539216	0.082589	-1.818875	0.052032	-0.019668	0.009118	0.999954	0.002696	0.000413	-0.009094	
44535	    0	4.965569	-1.204259	0.688165	0.650223	0.022888	-1.557941	0.049561	-0.012451	0.006836	0.999964	0.003251	0.000114	-0.007790	
44536	    0	5.231595	-0.273466	0.426134	0.656324	0.022507	-1.210222	0.052299	-0.003065	0.004246	0.999976	0.003282	0.000113	-0.006051	
44537	    0	5.506091	-0.158569	0.148718	0.578311	0.062752	-0.875859	0.055054	-0.001831	0.001465	0.999986	0.002892	0.000314	-0.004379	
44538	    0	5.521940	-0.858360	-0.095890	0.594904	0.101662	-0.575449	0.055194	-0.008739	-0.001013	0.999990	0.002975	0.000508	-0.002877	
44539	    0	5.464167	-1.162623	-0.695272	0.762179	0.080300	-0.212861	0.054626	-0.011658	-0.007019	0.999991	0.003811	0.000401	-0.001064	
44540	    0	5.330643	-0.812943	-1.168470	0.890163	0.061035	0.163270	0.053309	-0.008034	-0.011737	0.999990	0.004451	0.000305	0.000816	
44541	    0	5.115230	-0.038075	-1.297767	0.894932	0.084877	0.545504	0.051147	-0.000183	-0.013000	0.999986	0.004475	0.000424	0.002728	
44542	    0	4.850404	0.775946	-1.248134	0.820356	0.147821	0.971610	0.048456	0.008046	-0.012485	0.999979	0.004102	0.000739	0.004858	
44543	    0	4.502168	1.215156	-1.244975	0.741013	0.210574	1.399246	0.044922	0.012512	-0.012451	0.999968	0.003705	0.001053	0.006996	
44544	    0	4.248795	1.338594	-1.508436	0.666629	0.250630	1.827079	0.042344	0.013824	-0.015092	0.999951	0.003333	0.001253	0.009135	
44545	    0	4.203886	1.729133	-1.835765	0.561537	0.303085	2.288872	0.041809	0.017822	-0.018372	0.999928	0.002808	0.001515	0.011444	
44546	    0	4.278535	2.300813	-2.128164	0.369847	0.336277	2.761168	0.042426	0.023635	-0.021310	0.999901	0.001849	0.001681	0.013805	
44547	    0	4.657139	2.781371	-2.031718	0.137526	0.380723	3.186172	0.046082	0.028564	-0.020386	0.999870	0.000688	0.001904	0.015930	
44548	    0	5.080625	2.898475	-1.849130	-0.008202	0.390264	3.566743	0.050242	0.029883	-0.018591	0.999839	-0.000041	0.001951	0.017833	
44549	    0	5.901986	3.200169	-2.066040	-0.025179	0.298519	3.902684	0.058350	0.033142	-0.020752	0.999808	-0.000126	0.001493	0.019512	
44550	    0	7.125918	4.031336	-2.297271	-0.194183	0.241107	4.237494	0.070356	0.041788	-0.023098	0.999774	-0.000971	0.001205	0.021186	
44551	    0	7.934796	3.891744	-2.030663	-0.366242	0.169578	4.494095	0.078430	0.040649	-0.020447	0.999745	-0.001831	0.000848	0.022469	
44552	    0	9.034609	3.760609	-2.093731	-0.389517	-0.031856	4.711971	0.089431	0.039680	-0.020999	0.999720	-0.001947	-0.000159	0.023558	
44553	    0	9.812678	3.863296	-2.062077	-0.476694	-0.177783	4.863461	0.097168	0.040955	-0.020630	0.999701	-0.002383	-0.000889	0.024315	
44554	    0	10.174156	3.114945	-1.676608	-0.457238	-0.339352	4.918601	0.100964	0.033601	-0.016669	0.999693	-0.002286	-0.001697	0.024590	
44555	    0	10.485757	2.459501	-1.383018	-0.216506	-0.591339	4.940544	0.104248	0.027161	-0.013550	0.999689	-0.001082	-0.002956	0.024700	
44556	    0	10.849897	2.600299	-1.189484	0.060851	-0.843136	4.920326	0.107864	0.028666	-0.011431	0.999688	0.000304	-0.004215	0.024599	
44557	    0	11.824311	3.560028	-1.077899	0.187894	-1.039997	4.934453	0.117371	0.038513	-0.010132	0.999681	0.000939	-0.005199	0.024670	
44558	    0	12.810598	4.065168	-0.671802	0.074204	-1.138620	4.972616	0.127078	0.043822	-0.005977	0.999674	0.000371	-0.005692	0.024860	
44559	    0	12.915961	3.312736	-0.224597	0.020029	-1.209390	4.958882	0.128296	0.036316	-0.001465	0.999674	0.000100	-0.006046	0.024792	
44560	    0	12.949931	2.459043	-0.186365	0.164813	-1.293131	4.917675	0.128851	0.027765	-0.001007	0.999676	0.000824	-0.006465	0.024586	
44561	    0	13.450974	2.212424	0.035585	0.355758	-1.316211	4.873414	0.133911	0.025391	0.001282	0.999680	0.001779	-0.006580	0.024364	
44562	    0	13.939818	2.071341	0.456957	0.552808	-1.291029	4.824765	0.138811	0.024053	0.005530	0.999684	0.002764	-0.006454	0.024121	
44563	    0	14.608859	2.261707	0.734096	0.755388	-1.188591	4.771152	0.145447	0.026062	0.008301	0.999690	0.003777	-0.005942	0.023853	
44564	    0	14.950762	2.880247	0.780066	0.907035	-1.036175	4.698460	0.148733	0.032265	0.008714	0.999700	0.004535	-0.005180	0.023490	
44565	    0	14.777887	3.472172	0.624304	1.063637	-0.870405	4.536863	0.146912	0.038025	0.007080	0.999719	0.005318	-0.004352	0.022682	
44566	    0	14.579954	3.873707	0.258051	1.327059	-0.747555	4.325292	0.144905	0.041857	0.003394	0.999737	0.006635	-0.003737	0.021625	
44567	    0	14.250105	4.588055	-0.269325	1.569683	-0.600481	4.045428	0.141541	0.048767	-0.001892	0.999760	0.007848	-0.003002	0.020226	
44568	    0	13.670534	4.914608	-0.814164	1.905964	-0.463329	3.734484	0.135773	0.051760	-0.007341	0.999777	0.009529	-0.002316	0.018671	
44569	    0	13.082046	6.123826	-1.877110	2.279818	-0.451500	3.309857	0.129822	0.063599	-0.017761	0.999795	0.011398	-0.002257	0.016548	
44570	    0	12.219017	7.596768	-3.335299	2.433921	-0.512726	2.839639	0.121175	0.078089	-0.032100	0.999822	0.012169	-0.002563	0.014197	
44571	    0	11.365490	8.710835	-3.852440	2.353207	-0.557735	2.328601	0.112732	0.088867	-0.037170	0.999859	0.011765	-0.002789	0.011642	
44572	    0	10.954233	9.879458	-3.058924	2.167778	-0.607703	1.831119	0.108720	0.100114	-0.029178	0.999894	0.010839	-0.003038	0.009155	
44573	    0	11.138251	10.660081	-1.624851	1.904533	-0.604263	1.326784	0.110718	0.107483	-0.014893	0.999928	0.009522	-0.003021	0.006634	
44574	    0	11.454891	10.953912	-0.658843	1.674488	-0.538834	0.815023	0.114117	0.110053	-0.005361	0.999952	0.008372	-0.002694	0.004075	
44575	    0	10.844849	10.876950	-0.791541	1.475730	-0.396732	0.230410	0.108337	0.108948	-0.006897	0.999969	0.007379	-0.001984	0.001152	
44576	    0	9.601473	10.360195	-1.838999	1.394475	-0.270083	-0.392345	0.096242	0.103538	-0.017538	0.999972	0.006972	-0.001350	-0.001962	
44577	    0	9.109748	9.689972	-2.824812	1.289573	-0.213625	-1.006329	0.091614	0.096619	-0.027527	0.999966	0.006448	-0.001068	-0.005032	
44578	    0	9.194959	8.719324	-3.113101	1.161212	-0.168231	-1.514839	0.092633	0.086672	-0.030549	0.999953	0.005806	-0.000841	-0.007574	
44579	    0	9.584426	7.867734	-2.773395	0.957508	-0.160030	-1.925696	0.096619	0.077881	-0.027283	0.999942	0.004787	-0.000800	-0.009628	
44580	    0	9.884214	6.905350	-2.540550	0.668159	-0.161365	-2.209713	0.099618	0.068040	-0.025097	0.999932	0.003341	-0.000807	-0.011048	
44581	    0	10.289619	6.034884	-3.375999	0.393686	-0.259978	-2.342280	0.103638	0.059204	-0.033508	0.999928	0.001968	-0.001300	-0.011711	
44582	    0	10.595876	5.822381	-3.273690	0.066187	-0.328263	-2.406942	0.106703	0.056953	-0.032543	0.999926	0.000331	-0.001641	-0.012034	
44583	    0	7.617987	9.812777	-14.847317	-0.373852	-1.033625	-2.548300	0.078186	0.096863	-0.148254	0.999904	-0.001869	-0.005168	-0.012741	
44584	    0	12.617702	15.371279	-16.013154	1.473320	-1.135128	-3.205101	0.129533	0.152825	-0.158275	0.999828	0.007366	-0.005675	-0.016025	
44585	    0	32.574612	23.598925	-1.351128	-0.535654	1.574341	-5.358063	0.331787	0.227112	-0.016724	0.999606	-0.002678	0.007871	-0.026787	
44586	    0	35.057274	-2.128766	16.290471	-4.283469	1.318196	-4.427688	0.351104	-0.025594	0.161109	0.999503	-0.021414	0.006590	-0.022135	
44587	    0	18.130812	-29.008635	4.801277	-0.532548	-0.248535	-2.619250	0.177429	-0.292297	0.049011	0.999909	-0.002663	-0.001243	-0.013096	
44588	    0	10.706301	-6.982711	1.287815	1.622522	-0.208872	-4.084917	0.105593	-0.072096	0.012410	0.999758	0.008112	-0.001044	-0.020423	
44589	    0	12.102071	13.705857	1.576906	0.456460	0.041965	-4.070567	0.123779	0.134521	0.016052	0.999790	0.002282	0.000210	-0.020351	
44590	    0	9.855500	0.525371	-1.187519	-0.721777	-0.167474	-3.398685	0.098635	0.003535	-0.011807	0.999848	-0.003609	-0.000837	-0.016993	
44591	    0	11.021744	-2.991320	-2.627964	-0.196656	-0.118261	-3.163280	0.109741	-0.031677	-0.026184	0.999874	-0.000983	-0.000591	-0.015816	
44592	    0	11.474463	5.216923	-2.314409	-0.009537	-0.161941	-3.143631	0.115564	0.050356	-0.023053	0.999876	-0.000048	-0.000810	-0.015718	
44593	    0	9.761357	6.128264	-2.871027	-0.669691	-0.211341	-2.670373	0.098450	0.059875	-0.028809	0.999905	-0.003348	-0.001057	-0.013351	
44594	    0	10.536232	5.306196	-3.016515	-0.905249	-0.104907	-2.207046	0.105954	0.051758	-0.030346	0.999928	-0.004526	-0.000525	-0.011035	
44595	    0	12.340700	6.574660	-1.695441	-1.283865	0.038911	-1.910443	0.124023	0.064453	-0.017395	0.999933	-0.006419	0.000195	-0.009552	
44596	    0	12.988974	2.874429	-1.156785	-1.381710	-0.005150	-1.624901	0.130117	0.027607	-0.011758	0.999943	-0.006908	-0.000026	-0.008124	
44597	    0	12.975320	1.811072	0.065094	-1.044288	0.016022	-1.483175	0.129883	0.017151	0.000549	0.999958	-0.005221	0.000080	-0.007416	
44598	    0	12.369697	3.311347	0.765950	-0.726326	-0.012970	-1.387420	0.123922	0.032282	0.007549	0.999969	-0.003632	-0.000065	-0.006937	
44599	    0	11.902203	3.033253	1.304694	-0.672918	0.011635	-1.197061	0.119202	0.029663	0.012939	0.999976	-0.003365	0.000058	-0.005985	
44600	    0	11.823840	2.872511	0.921014	-0.587085	0.031090	-1.013189	0.118383	0.028152	0.009109	0.999983	-0.002935	0.000155	-0.005066	
44601	    0	11.923004	3.597605	0.089337	-0.637630	0.079346	-0.866703	0.119385	0.035461	0.000732	0.999985	-0.003188	0.000397	-0.004333	
44602	    0	11.591239	3.098724	-0.795565	-0.808911	0.103188	-0.717357	0.116018	0.030539	-0.008140	0.999985	-0.004045	0.000516	-0.003587	
44603	    0	11.733600	1.362454	-0.836326	-0.865177	0.107003	-0.585177	0.117371	0.013245	-0.008484	0.999986	-0.004326	0.000535	-0.002926	
44604	    0	11.777068	0.572961	-1.141878	-0.707819	0.087738	-0.547983	0.117781	0.005366	-0.011490	0.999990	-0.003539	0.000439	-0.002740	
44605	    0	11.325245	1.131482	-2.363752	-0.626184	0.016785	-0.556947	0.113281	0.010925	-0.023682	0.999990	-0.003131	0.000084	-0.002785	
44606	    0	11.434321	0.547127	-3.088303	-0.733760	-0.008583	-0.554087	0.114359	0.005041	-0.030897	0.999989	-0.003669	-0.000043	-0.002770	
44607	    0	11.623104	-0.918146	-2.843254	-0.860599	-0.018120	-0.479891	0.116211	-0.009583	-0.028381	0.999988	-0.004303	-0.000091	-0.002399	
44608	    0	12.099058	-0.186795	-2.584798	-0.791362	0.040054	-0.562861	0.120979	-0.002311	-0.025864	0.999988	-0.003957	0.000200	-0.002814	
44609	    0	11.593073	1.394199	-3.321652	-0.798802	0.094033	-0.762943	0.115967	0.013367	-0.033325	0.999984	-0.003994	0.000470	-0.003815	
44610	    0	10.777145	-0.309004	-4.219778	-0.761990	0.087548	-0.878339	0.107738	-0.003724	-0.042232	0.999983	-0.003810	0.000438	-0.004392	
44611	    0	10.508796	-3.146362	-3.913277	-0.510982	0.021362	-1.030737	0.104919	-0.032104	-0.039062	0.999983	-0.002555	0.000107	-0.005154	
44612	    0	10.325361	-2.425299	-3.704301	-0.297739	-0.062561	-1.214989	0.103115	-0.024935	-0.036974	0.999980	-0.001489	-0.000313	-0.006075	
44613	    0	10.772147	0.670720	-3.673585	-0.325587	-0.118257	-1.462569	0.107788	0.005859	-0.036682	0.999971	-0.001628	-0.000591	-0.007313	
44614	    0	11.517344	3.055945	-3.613498	-0.703059	-0.109483	-1.689172	0.115445	0.029458	-0.036177	0.999957	-0.003515	-0.000547	-0.008446	
44615	    0	12.052278	4.106532	-3.329924	-1.288443	0.019074	-1.948592	0.120911	0.039673	-0.033569	0.999931	-0.006442	0.000095	-0.009743	
44616	    0	11.963412	3.883544	-3.486355	-1.670127	0.070383	-2.194474	0.120036	0.037227	-0.035221	0.999905	-0.008350	0.000352	-0.010972	
44617	    0	12.174782	3.407291	-3.944597	-1.857830	0.071910	-2.422427	0.122131	0.032227	-0.039795	0.999883	-0.009289	0.000360	-0.012112	
44618	    0	12.802155	2.205153	-4.665589	-2.005286	0.118833	-2.596781	0.128262	0.019917	-0.046939	0.999865	-0.010026	0.000594	-0.012983	
44619	    0	13.611560	-0.047562	-3.434031	-2.159036	0.243390	-2.701704	0.136047	-0.002686	-0.034485	0.999849	-0.010795	0.001217	-0.013508	
44620	    0	14.071691	-2.189113	-2.349194	-2.070341	0.327890	-2.792309	0.140352	-0.024096	-0.023480	0.999847	-0.010351	0.001639	-0.013961	
44621	    0	13.616683	-4.392199	-1.250996	-1.716694	0.396175	-2.845134	0.135498	-0.045959	-0.012390	0.999860	-0.008583	0.001981	-0.014225	
44622	    0	12.807375	-5.167572	-0.055620	-1.200726	0.425929	-2.894331	0.127307	-0.053525	-0.000510	0.999874	-0.006003	0.002130	-0.014471	
44623	    0	11.973067	-4.756809	0.373739	-0.620866	0.379958	-2.951163	0.119019	-0.049316	0.003662	0.999884	-0.003104	0.001900	-0.014755	
44624	    0	11.241216	-3.904487	0.414951	-0.220116	0.337804	-2.940667	0.111829	-0.040688	0.004004	0.999889	-0.001101	0.001689	-0.014703	
44625	    0	10.489104	-3.127559	0.217178	0.088504	0.274095	-2.867226	0.104431	-0.032776	0.002014	0.999896	0.000443	0.001370	-0.014336	
44626	    0	9.573714	-2.477259	0.171239	0.261315	0.236519	-2.741710	0.095387	-0.026084	0.001566	0.999904	0.001307	0.001183	-0.013708	
44627	    0	8.464897	-2.254077	-0.061580	0.389873	0.168805	-2.560497	0.084351	-0.023621	-0.000732	0.999915	0.001949	0.000844	-0.012802	
44628	    0	7.379707	-2.323412	-0.273141	0.527585	0.101283	-2.311189	0.073521	-0.024077	-0.002831	0.999929	0.002638	0.000506	-0.011556	
44629	    0	6.578957	-2.265157	-0.302312	0.641644	0.047494	-2.053110	0.065552	-0.023315	-0.003113	0.999942	0.003208	0.000237	-0.010265	
44630	    0	6.083348	-1.930533	-0.173324	0.681124	-0.020790	-1.744105	0.060662	-0.019829	-0.001794	0.999956	0.003406	-0.000104	-0.008720	
44631	    0	5.964086	-1.819534	-0.109894	0.741013	-0.025940	-1.425949	0.059509	-0.018616	-0.001160	0.999968	0.003705	-0.000130	-0.007130	
44632	    0	6.221497	-1.920509	-0.271745	0.815207	0.004768	-1.061447	0.062112	-0.019524	-0.002798	0.999977	0.004076	0.000024	-0.005307	
44633	    0	6.548559	-1.522369	-0.351574	0.852971	0.060463	-0.713352	0.065430	-0.015442	-0.003601	0.999984	0.004265	0.000302	-0.003567	
44634	    0	7.003791	-0.953629	-0.533888	0.888637	0.133706	-0.304033	0.070020	-0.009619	-0.005428	0.999989	0.004443	0.000669	-0.001520	
44635	    0	7.105256	-0.576695	-1.045835	0.868228	0.213815	0.126648	0.071045	-0.005676	-0.010559	0.999990	0.004341	0.001069	0.000633	
44636	    0	6.779894	-0.032982	-1.354087	0.724223	0.320054	0.582888	0.067778	-0.000083	-0.013650	0.999988	0.003621	0.001600	0.002914	
44637	    0	6.200773	0.495097	-1.496455	0.575260	0.406840	1.019294	0.061951	0.005310	-0.015076	0.999980	0.002876	0.002034	0.005096	
44638	    0	5.804665	0.789521	-1.544969	0.486951	0.456433	1.446167	0.057952	0.008352	-0.015562	0.999968	0.002435	0.002282	0.007231	
44639	    0	5.633355	1.395385	-1.881612	0.435646	0.483902	1.890595	0.056152	0.014526	-0.018921	0.999949	0.002178	0.002419	0.009453	
44640	    0	5.176687	1.839486	-2.047960	0.278480	0.528920	2.316721	0.051495	0.019021	-0.020590	0.999928	0.001392	0.002645	0.011583	
44641	    0	4.885425	1.958856	-2.099557	0.082400	0.538081	2.740568	0.048523	0.020264	-0.021118	0.999902	0.000412	0.002690	0.013702	
44642	    0	5.006222	1.951962	-1.969159	-0.081638	0.533317	3.157369	0.049693	0.020298	-0.019833	0.999871	-0.000408	0.002666	0.015786	
44643	    0	5.433145	1.481461	-1.705614	-0.160989	0.529698	3.496734	0.054016	0.015747	-0.017212	0.999843	-0.000805	0.002648	0.017483	
44644	    0	6.143967	1.260978	-1.674943	-0.017549	0.379013	3.787269	0.061154	0.013768	-0.016867	0.999819	-0.000088	0.001895	0.018935	
44645	    0	7.508577	1.940407	-2.189876	0.089461	0.222031	4.067512	0.074646	0.020935	-0.021973	0.999792	0.000447	0.001110	0.020336	
44646	    0	8.678429	2.655581	-2.103898	0.093086	0.120554	4.298923	0.086174	0.028422	-0.021078	0.999768	0.000465	0.000603	0.021493	
44647	    0	9.754345	3.212098	-2.190721	0.192277	-0.050167	4.450594	0.096802	0.034302	-0.021851	0.999751	0.000961	-0.000251	0.022251	
44648	    0	10.568253	4.356204	-2.528911	0.223561	-0.246260	4.586624	0.104677	0.045999	-0.025109	0.999735	0.001118	-0.001231	0.022931	
44649	    0	10.962344	5.060442	-2.735968	0.118266	-0.420990	4.668854	0.108459	0.053162	-0.027100	0.999724	0.000591	-0.002105	0.023342	
44650	    0	11.042875	4.950713	-2.977381	-0.045208	-0.609075	4.754331	0.109301	0.052108	-0.029451	0.999712	-0.000226	-0.003045	0.023769	
44651	    0	10.752663	4.269508	-2.697960	-0.205251	-0.774269	4.788678	0.106567	0.045227	-0.026611	0.999705	-0.001026	-0.003871	0.023941	
44652	    0	10.289505	3.561198	-2.275118	-0.254847	-0.957776	4.805093	0.102108	0.038043	-0.022308	0.999699	-0.001274	-0.004788	0.024023	
44653	    0	9.781794	3.009925	-1.943438	-0.201436	-1.119917	4.784112	0.097168	0.032410	-0.018921	0.999698	-0.001007	-0.005599	0.023918	
44654	    0	10.020742	3.051640	-1.635784	-0.111019	-1.262031	4.797665	0.099538	0.032901	-0.015746	0.999692	-0.000555	-0.006310	0.023986	
44655	    0	10.530177	3.666466	-0.854692	-0.109684	-1.326127	4.820754	0.104431	0.039185	-0.007874	0.999687	-0.000548	-0.006630	0.024101	
44656	    0	11.179539	3.943086	0.161370	-0.188848	-1.336621	4.858532	0.110780	0.042132	0.002317	0.999681	-0.000944	-0.006682	0.024290	
44657	    0	12.030809	3.540867	1.096463	-0.185986	-1.318499	4.865018	0.119324	0.038330	0.011719	0.999681	-0.000930	-0.006592	0.024323	
44658	    0	13.065642	2.638411	1.878106	0.070388	-1.243148	4.824374	0.129849	0.029516	0.019600	0.999689	0.000352	-0.006215	0.024119	
44659	    0	14.318148	2.568516	2.117792	0.614419	-1.165126	4.729174	0.142395	0.028992	0.022095	0.999699	0.003072	-0.005825	0.023643	
44660	    0	15.635891	4.521006	2.179591	1.077756	-1.026062	4.589144	0.155153	0.048658	0.022850	0.999708	0.005388	-0.005130	0.022943	
44661	    0	15.869882	6.614690	2.375756	1.233020	-0.762817	4.391871	0.157104	0.069458	0.024780	0.999732	0.006165	-0.003814	0.021957	
44662	    0	15.248746	7.427729	1.637039	1.427000	-0.562903	4.068314	0.150888	0.077236	0.017341	0.999763	0.007134	-0.002814	0.020340	
44663	    0	14.406308	8.042517	-0.521986	1.799136	-0.461420	3.638711	0.142578	0.083069	-0.004150	0.999791	0.008995	-0.002307	0.018192	
44664	    0	13.600975	9.417273	-2.892277	2.092867	-0.464467	3.096764	0.134592	0.096558	-0.027607	0.999823	0.010464	-0.002322	0.015483	
44665	    0	12.819900	11.247429	-4.244855	2.151779	-0.518823	2.485008	0.126892	0.114502	-0.040894	0.999861	0.010758	-0.002594	0.012424	
44666	    0	12.081293	13.117133	-3.959096	2.001062	-0.561732	1.799640	0.119732	0.132637	-0.037931	0.999905	0.010005	-0.002809	0.008998	
44667	    0	11.871292	14.297470	-2.190526	1.680786	-0.530062	1.097127	0.117981	0.143799	-0.020386	0.999946	0.008404	-0.002650	0.005486	
44668	    0	11.509366	13.624489	-0.586044	1.359761	-0.439076	0.402836	0.114830	0.136511	-0.004681	0.999972	0.006799	-0.002195	0.002014	
44669	    0	11.457645	12.545873	-0.082383	1.129920	-0.308039	-0.270082	0.114746	0.125305	0.000061	0.999982	0.005650	-0.001540	-0.001350	
44670	    0	10.633280	11.695401	-0.274122	0.781636	-0.170518	-0.899130	0.106859	0.116484	-0.002194	0.999982	0.003908	-0.000853	-0.004496	
44671	    0	9.808086	10.316826	-0.629760	0.422100	-0.077821	-1.426710	0.098816	0.102478	-0.006042	0.999971	0.002110	-0.000389	-0.007133	
44672	    0	9.393677	8.600507	-0.882078	0.066377	0.000954	-1.869420	0.094735	0.085125	-0.008793	0.999956	0.000332	0.000005	-0.009347	
44673	    0	9.091884	6.472033	-0.743706	-0.088503	0.091745	-2.180524	0.091614	0.063721	-0.007507	0.999940	-0.000443	0.000459	-0.010902	
44674	    0	9.087719	6.052211	-2.965884	-0.289161	-0.075533	-2.340562	0.091588	0.059410	-0.029711	0.999930	-0.001446	-0.000378	-0.011703	
44675	    0	8.082677	8.970351	-8.314776	-0.471510	-0.556770	-2.463599	0.082153	0.088501	-0.083130	0.999917	-0.002357	-0.002784	-0.012318	
44676	    0	10.289450	19.564348	-20.252131	0.644531	-1.335604	-3.443729	0.107596	0.194468	-0.201185	0.999824	0.003222	-0.006678	-0.017218	
44677	    0	15.016473	17.909666	-24.312801	1.114002	-0.968838	-4.638367	0.155457	0.176880	-0.241394	0.999703	0.005569	-0.004844	-0.023190	
44678	    0	30.477749	-5.105840	16.721761	-2.959660	1.491562	-4.703026	0.304743	-0.055765	0.165747	0.999586	-0.014796	0.007457	-0.023512	
44679	    0	21.198110	-14.819863	10.990831	-0.653103	0.392358	-3.060277	0.209900	-0.151062	0.109985	0.999875	-0.003265	0.001962	-0.015301	
44680	    0	13.882551	-11.602520	3.939624	1.199785	0.187884	-3.338417	0.136897	-0.118554	0.038561	0.999842	0.005999	0.000939	-0.016691	
44681	    0	13.277134	2.353302	-0.135715	1.819933	0.277730	-3.740200	0.133179	0.021057	-0.001343	0.999783	0.009099	0.001389	-0.018700	
44682	    0	15.092395	4.120313	-2.936053	1.187398	0.131043	-3.652034	0.151626	0.038612	-0.029225	0.999815	0.005937	0.000655	-0.018259	
44683	    0	10.364453	2.338869	-1.247855	0.680574	0.093274	-3.277741	0.104004	0.021729	-0.012451	0.999860	0.003403	0.000466	-0.016388	
44684	    0	10.037617	4.837048	-1.455895	0.558111	0.018120	-2.917588	0.101067	0.046940	-0.014436	0.999889	0.002790	0.000091	-0.014587	
