// Start Time: Unknown
// Update Rate: 100.0Hz
// Filter Profile: human (34.3)
// Firmware Version: 2.1.4
PacketCounter	SampleTimeFine	Acc_X	Acc_Y	Acc_Z	Gyr_X	Gyr_Y	Gyr_Z	VelInc_X	VelInc_Y	VelInc_Z	OriInc_q0	OriInc_q1	OriInc_q2	OriInc_q3	
65443	    0	9.888498	-0.690661	-1.522501	-0.582130	0.112344	-1.619741	0.098816	-0.007751	-0.015259	0.999963	-0.002911	0.000562	-0.008099	
65444	    0	9.900754	-1.087609	-1.429112	-0.553137	0.094033	-1.552027	0.098912	-0.011683	-0.014306	0.999966	-0.002766	0.000470	-0.007760	
65445	    0	9.937445	-1.598357	-1.173560	-0.627143	0.070382	-1.539630	0.099243	-0.016785	-0.011719	0.999965	-0.003136	0.000352	-0.007698	
65446	    0	9.909468	-2.094361	-0.877267	-0.667008	0.077630	-1.552028	0.098925	-0.021741	-0.008739	0.999964	-0.003335	0.000388	-0.007760	
65447	    0	9.405139	-2.144548	-0.453738	-0.515563	0.076295	-1.617451	0.093872	-0.022217	-0.004517	0.999964	-0.002578	0.000381	-0.008087	
65448	    0	8.976608	-2.549323	-0.456901	-0.366597	0.012779	-1.652928	0.089551	-0.026242	-0.004527	0.999964	-0.001833	0.000064	-0.008265	
65449	    0	8.737221	-3.376790	-0.685903	-0.269893	-0.086976	-1.623554	0.087097	-0.034485	-0.006775	0.999966	-0.001349	-0.000435	-0.008118	
65450	    0	8.624774	-4.036762	-1.152893	-0.162699	-0.179865	-1.588839	0.085934	-0.041060	-0.011418	0.999968	-0.000813	-0.000899	-0.007944	
65451	    0	8.638734	-4.529191	-1.607344	-0.110437	-0.273898	-1.528946	0.086060	-0.045959	-0.015930	0.999969	-0.000552	-0.001369	-0.007645	
65452	    0	8.757757	-4.883814	-2.345252	-0.077058	-0.296595	-1.467337	0.087251	-0.049488	-0.023304	0.999971	-0.000385	-0.001483	-0.007337	
65453	    0	9.088032	-4.847976	-3.126869	-0.022888	-0.298121	-1.433576	0.090576	-0.049133	-0.031128	0.999972	-0.000114	-0.001491	-0.007168	
65454	    0	9.442186	-4.599393	-3.183571	0.056839	-0.265124	-1.350604	0.094151	-0.046621	-0.031724	0.999976	0.000284	-0.001326	-0.006753	
65455	    0	9.882404	-4.681115	-2.805659	0.171662	-0.166131	-1.168067	0.098572	-0.047363	-0.028015	0.999982	0.000858	-0.000831	-0.005840	
65456	    0	10.108284	-4.446661	-2.533937	0.263597	-0.079537	-0.901989	0.100891	-0.044888	-0.025358	0.999989	0.001318	-0.000398	-0.004510	
65457	    0	10.187376	-4.146612	-2.319841	0.160218	0.044441	-0.590516	0.101746	-0.041748	-0.023254	0.999995	0.000801	0.000222	-0.002953	
65458	    0	9.738404	-4.104153	-3.136040	-0.107384	0.222206	-0.217819	0.097304	-0.041164	-0.031446	0.999998	-0.000537	0.001111	-0.001089	
65459	    0	9.560955	-4.421853	-4.660277	-0.510980	0.295258	0.182343	0.095581	-0.044250	-0.046631	0.999994	-0.002555	0.001476	0.000912	
65460	    0	10.972782	-7.192824	-5.577288	-0.971610	0.295069	0.695805	0.109896	-0.071816	-0.055586	0.999981	-0.004858	0.001475	0.003479	
65461	    0	12.978863	-10.852588	-4.109810	-1.434923	0.596629	1.302360	0.130371	-0.107971	-0.040710	0.999949	-0.007174	0.002983	0.006512	
65462	    0	14.180995	-13.658723	1.340325	-1.942891	0.995670	1.837221	0.143125	-0.135142	0.014010	0.999898	-0.009714	0.004978	0.009186	
65463	    0	14.545522	-14.207862	5.550401	-2.269103	1.454431	2.363713	0.147522	-0.139709	0.056030	0.999839	-0.011345	0.007272	0.011818	
65464	    0	13.401641	-11.997951	6.085341	-1.557807	1.553039	2.605755	0.136032	-0.117743	0.060725	0.999854	-0.007789	0.007765	0.013028	
65465	    0	12.365550	-8.699874	5.118645	-0.732259	1.252032	2.677258	0.125122	-0.085144	0.050720	0.999884	-0.003661	0.006260	0.013386	
65466	    0	13.210401	-4.105483	2.567004	0.341045	0.700401	2.661790	0.132724	-0.039334	0.025138	0.999904	0.001705	0.003502	0.013309	
65467	    0	14.487398	0.131821	-0.633589	1.756548	0.131994	2.568921	0.144836	0.003235	-0.006409	0.999878	0.008782	0.000660	0.012844	
65468	    0	17.161138	3.603144	-3.647262	2.484844	0.024797	2.722894	0.171091	0.038813	-0.036023	0.999829	0.012424	0.000124	0.013614	
65469	    0	21.256556	7.836613	-5.411251	2.267022	0.314350	3.060336	0.211243	0.082214	-0.053528	0.999817	0.011334	0.001572	0.015301	
65470	    0	22.565803	8.887632	-6.154733	1.408277	0.536187	3.407675	0.223930	0.093135	-0.061503	0.999826	0.007041	0.002681	0.017037	
65471	    0	20.008096	4.380457	-6.293521	-0.173198	0.564037	3.747020	0.199036	0.047485	-0.063538	0.999820	-0.000866	0.002820	0.018734	
65472	    0	18.488895	2.722700	-5.490561	-1.430608	0.536574	3.731027	0.184195	0.030272	-0.055610	0.999796	-0.007153	0.002683	0.018654	
65473	    0	19.250846	2.245995	-4.375875	-1.808103	0.471530	3.657026	0.191956	0.025574	-0.044434	0.999788	-0.009040	0.002357	0.018284	
65474	    0	19.186173	2.092004	-3.545846	-1.144859	0.513489	3.580117	0.191357	0.024143	-0.036082	0.999820	-0.005724	0.002567	0.017900	
65475	    0	17.292564	2.224643	-2.536531	-0.221264	0.564033	3.534888	0.172424	0.025269	-0.025879	0.999839	-0.001106	0.002820	0.017673	
65476	    0	15.195860	2.610333	-1.936108	0.484682	0.469613	3.454577	0.151431	0.028769	-0.019650	0.999845	0.002423	0.002348	0.017272	
65477	    0	13.637121	3.475075	-1.886810	1.124821	0.288406	3.313616	0.135742	0.037109	-0.018860	0.999846	0.005624	0.001442	0.016567	
65478	    0	12.444238	4.026440	-2.213548	1.650323	0.036623	3.103798	0.123792	0.042370	-0.021814	0.999845	0.008251	0.000183	0.015518	
65479	    0	10.807637	4.135122	-2.278433	1.922135	-0.294510	2.944336	0.107483	0.043152	-0.022217	0.999844	0.009610	-0.001472	0.014721	
65480	    0	9.997056	3.827736	-2.552681	2.069392	-0.572998	2.846869	0.099482	0.039955	-0.024834	0.999839	0.010346	-0.002865	0.014234	
65481	    0	9.888710	3.976579	-3.199768	2.254034	-0.705757	2.682638	0.098450	0.041443	-0.031189	0.999840	0.011270	-0.003529	0.013412	
65482	    0	9.441511	4.516396	-3.838897	2.454886	-0.775187	2.441534	0.093997	0.046777	-0.037457	0.999841	0.012274	-0.003876	0.012207	
65483	    0	8.192489	5.075211	-4.378065	2.500275	-0.853580	2.188981	0.081543	0.052185	-0.042786	0.999852	0.012501	-0.004268	0.010944	
65484	    0	6.828654	6.504295	-3.951491	2.334692	-0.867308	1.960073	0.067810	0.066162	-0.038452	0.999874	0.011673	-0.004336	0.009800	
65485	    0	5.851711	7.696737	-3.194707	2.104830	-0.831250	1.702175	0.057987	0.077791	-0.030890	0.999899	0.010524	-0.004156	0.008511	
65486	    0	4.922715	8.371013	-2.526142	1.725238	-0.815030	1.457822	0.048715	0.084279	-0.024337	0.999928	0.008626	-0.004075	0.007289	
65487	    0	4.031033	8.249099	-2.545673	1.256008	-0.782788	1.187152	0.039917	0.082886	-0.024780	0.999954	0.006280	-0.003914	0.005936	
65488	    0	3.104955	7.828029	-2.013264	0.764662	-0.724417	0.936897	0.030754	0.078501	-0.019721	0.999974	0.003823	-0.003622	0.004684	
65489	    0	2.270867	7.588505	-0.769148	0.620273	-0.626949	0.714115	0.022461	0.075989	-0.007385	0.999984	0.003101	-0.003135	0.003571	
65490	    0	1.762418	7.247533	0.079409	0.677302	-0.565531	0.519183	0.017433	0.072517	0.001089	0.999987	0.003386	-0.002828	0.002596	
65491	    0	1.721016	6.540218	0.084027	0.646403	-0.547792	0.359346	0.017090	0.065430	0.001099	0.999989	0.003232	-0.002739	0.001797	
65492	    0	2.505211	5.861805	0.109115	0.553132	-0.494195	0.168610	0.025000	0.058636	0.001315	0.999992	0.002766	-0.002471	0.000843	
65493	    0	3.379504	5.267705	-0.272683	0.307465	-0.487328	-0.045776	0.033813	0.052673	-0.002563	0.999995	0.001537	-0.002437	-0.000229	
65494	    0	4.233324	4.034431	-0.990976	-0.273705	-0.530816	-0.274086	0.042415	0.040273	-0.009852	0.999994	-0.001369	-0.002654	-0.001370	
65495	    0	4.710226	2.625708	-0.619151	-0.746730	-0.528719	-0.470736	0.047180	0.026123	-0.006165	0.999987	-0.003734	-0.002644	-0.002354	
65496	    0	5.064759	0.526110	-0.482321	-0.997168	-0.396922	-0.563625	0.050672	0.005095	-0.004748	0.999981	-0.004986	-0.001985	-0.002818	
65497	    0	6.267571	-2.376796	-0.745925	-1.428809	-0.275424	-0.532537	0.062622	-0.023987	-0.007202	0.999969	-0.007144	-0.001377	-0.002663	
65498	    0	7.937032	-6.010141	-0.703671	-1.277362	-0.187494	-0.507740	0.079224	-0.060346	-0.006577	0.999975	-0.006387	-0.000937	-0.002539	
65499	    0	10.229341	-10.398110	-0.918759	-0.749209	0.103188	-0.457002	0.102051	-0.104248	-0.008850	0.999990	-0.003746	0.000516	-0.002285	
65500	    0	12.093166	-15.065664	-2.039433	-0.491334	0.250435	-0.345803	0.120646	-0.150915	-0.020175	0.999994	-0.002457	0.001252	-0.001729	
65501	    0	12.881541	-19.238610	-3.812585	-0.037193	0.088501	-0.268555	0.128540	-0.192566	-0.038147	0.999998	-0.000186	0.000443	-0.001343	
65502	    0	12.594678	-21.069678	-5.862563	0.752451	-0.098992	-0.166130	0.125801	-0.210579	-0.059356	0.999992	0.003762	-0.000495	-0.000831	
65503	    0	11.823390	-18.188209	-5.967920	1.121527	-0.152398	-0.060273	0.118225	-0.181580	-0.060608	0.999984	0.005608	-0.000762	-0.000301	
65504	    0	10.877613	-12.829467	-4.093074	1.124770	-0.132371	0.053978	0.108838	-0.128033	-0.041579	0.999984	0.005624	-0.000662	0.000270	
65505	    0	9.719490	-8.432783	-3.905956	0.906566	-0.025177	0.214387	0.097290	-0.084045	-0.039429	0.999989	0.004533	-0.000126	0.001072	
65506	    0	8.899728	-4.341727	-4.467685	0.724031	0.201035	0.255204	0.089007	-0.043141	-0.044923	0.999991	0.003620	0.001005	0.001276	
65507	    0	10.569938	1.234578	-5.609981	0.704958	0.182534	-0.059509	0.105652	0.012512	-0.056152	0.999993	0.003525	0.000913	-0.000298	
65508	    0	13.662207	8.075379	-5.743855	0.329972	0.208855	-0.528527	0.136775	0.080487	-0.057448	0.999994	0.001650	0.001044	-0.002643	
65509	    0	12.012561	8.775127	-2.085056	-0.332642	0.507547	-0.521852	0.120300	0.087402	-0.021301	0.999991	-0.001663	0.002538	-0.002609	
65510	    0	12.624083	1.414058	2.471325	-0.708011	0.660327	-0.154114	0.126332	0.014130	0.024246	0.999988	-0.003540	0.003302	-0.000771	
65511	    0	15.704433	-8.428771	3.905496	-0.577356	0.455476	-0.067902	0.157104	-0.084229	0.038940	0.999992	-0.002887	0.002277	-0.000340	
65512	    0	17.143568	-13.689611	-0.253635	0.420190	0.210953	-0.357819	0.171187	-0.137197	-0.003005	0.999995	0.002101	0.001055	-0.001789	
65513	    0	15.145546	-11.928067	-2.728469	1.599143	0.105478	-0.837719	0.150940	-0.119690	-0.028320	0.999959	0.007996	0.000527	-0.004189	
65514	    0	12.673757	-4.035795	-1.498952	2.225170	-0.095751	-1.094655	0.126522	-0.040881	-0.015382	0.999923	0.011126	-0.000479	-0.005473	
65515	    0	11.372787	5.296741	-0.576455	2.864957	-0.333991	-1.287895	0.114075	0.052307	-0.004822	0.999875	0.014324	-0.001670	-0.006439	
65516	    0	10.223311	13.074287	0.389659	2.240629	-0.697347	-1.259841	0.103036	0.130038	0.005714	0.999911	0.011203	-0.003487	-0.006299	
65517	    0	8.457948	15.222547	0.027713	0.528151	-0.987254	-1.150525	0.085449	0.151733	0.001099	0.999968	0.002641	-0.004936	-0.005753	
65518	    0	7.224220	13.141168	-3.854186	-0.790032	-0.951014	-0.987826	0.073073	0.130899	-0.038713	0.999969	-0.003950	-0.004755	-0.004939	
65519	    0	6.749850	7.719234	-6.552520	-1.396770	-0.600441	-0.934613	0.068054	0.076416	-0.065857	0.999960	-0.006984	-0.003002	-0.004673	
65520	    0	6.752757	4.776727	-6.483382	-1.464103	-0.310712	-1.161402	0.067903	0.046898	-0.065074	0.999954	-0.007320	-0.001554	-0.005807	
65521	    0	7.913355	2.813904	-6.033829	-1.386284	-0.262265	-1.411461	0.079407	0.027161	-0.060425	0.999949	-0.006931	-0.001311	-0.007057	
65522	    0	9.461424	1.875163	-6.149783	-1.224538	-0.307470	-1.553371	0.094849	0.017639	-0.061462	0.999949	-0.006123	-0.001537	-0.007767	
65523	    0	10.717012	1.872211	-6.492679	-0.915159	-0.356870	-1.578544	0.107428	0.017578	-0.064817	0.999955	-0.004576	-0.001784	-0.007893	
65524	    0	10.724015	1.020360	-6.432068	-0.772677	-0.349050	-1.591895	0.107428	0.009101	-0.064170	0.999959	-0.003863	-0.001745	-0.007959	
65525	    0	10.403826	-0.489402	-5.551927	-0.904669	-0.259403	-1.608300	0.104065	-0.005981	-0.055359	0.999956	-0.004523	-0.001297	-0.008041	
65526	    0	10.875094	-2.203919	-4.208166	-1.122493	-0.243572	-1.608875	0.108619	-0.023149	-0.041821	0.999950	-0.005612	-0.001218	-0.008044	
65527	    0	10.309797	-2.973546	-3.372583	-1.117725	-0.329405	-1.629666	0.102905	-0.030762	-0.033386	0.999949	-0.005589	-0.001647	-0.008148	
65528	    0	9.617011	-2.884326	-3.093580	-0.897803	-0.365072	-1.660182	0.095982	-0.029778	-0.030628	0.999953	-0.004489	-0.001825	-0.008301	
65529	    0	9.319876	-1.996269	-3.155183	-0.704967	-0.361448	-1.719691	0.093079	-0.020874	-0.031311	0.999955	-0.003525	-0.001807	-0.008598	
65530	    0	9.009956	-0.736007	-3.015584	-0.688754	-0.302701	-1.748684	0.090075	-0.008251	-0.029992	0.999954	-0.003444	-0.001513	-0.008743	
65531	    0	8.563758	0.354711	-2.639037	-0.859084	-0.226406	-1.747159	0.085693	0.002686	-0.026306	0.999951	-0.004295	-0.001132	-0.008736	
65532	    0	8.473454	0.950112	-2.298181	-1.127454	-0.186542	-1.729424	0.084833	0.008638	-0.022953	0.999946	-0.005637	-0.000933	-0.008647	
65533	    0	8.811513	0.823518	-2.246822	-1.420623	-0.139430	-1.704442	0.088196	0.007324	-0.022461	0.999938	-0.007103	-0.000697	-0.008522	
65534	    0	9.166111	0.278545	-2.302297	-1.572453	-0.077059	-1.693573	0.091688	0.001828	-0.023005	0.999932	-0.007862	-0.000385	-0.008468	
65535	    0	9.099556	-0.592391	-2.447783	-1.605261	-0.024224	-1.708261	0.090942	-0.006897	-0.024414	0.999930	-0.008026	-0.000121	-0.008541	
    0	    0	-8.981064	1.384519	2.387130	1.574553	-0.037766	1.744692	0.089680	-0.014815	-0.023774	0.999930	-0.007873	0.000189	-0.008723	
    1	    0	9.119138	-1.958198	-2.222377	-1.546324	0.060274	-1.791424	0.091003	-0.020569	-0.022095	0.999929	-0.007731	0.000301	-0.008957	
    2	    0	9.305949	-1.959336	-2.102997	-1.500165	0.065424	-1.833005	0.092867	-0.020602	-0.020908	0.999929	-0.007501	0.000327	-0.009165	
    3	    0	9.319103	-1.686429	-2.192982	-1.405176	0.094607	-1.859326	0.093018	-0.017883	-0.021851	0.999931	-0.007026	0.000473	-0.009296	
    4	    0	9.223219	-1.505014	-2.199294	-1.253727	0.105669	-1.872484	0.092073	-0.016050	-0.021943	0.999936	-0.006269	0.000528	-0.009362	
    5	    0	9.096652	-0.760547	-1.831002	-1.048871	0.096132	-1.855504	0.090881	-0.008545	-0.018311	0.999943	-0.005244	0.000481	-0.009277	
    6	    0	9.102869	-0.099805	-1.320919	-0.921838	0.102426	-1.838907	0.091007	-0.001896	-0.013248	0.999947	-0.004609	0.000512	-0.009194	
    7	    0	9.450491	-0.138694	-1.009130	-0.935951	0.105287	-1.744108	0.094482	-0.002258	-0.010132	0.999950	-0.004680	0.000526	-0.008720	
    8	    0	9.627832	-0.171859	-0.513290	-0.963035	0.121309	-1.668002	0.096256	-0.002546	-0.005180	0.999953	-0.004815	0.000607	-0.008340	
    9	    0	9.719903	-0.343727	0.084572	-0.980392	0.147440	-1.601434	0.097168	-0.004211	0.000793	0.999955	-0.004902	0.000737	-0.008007	
   10	    0	9.320434	-0.794557	0.379791	-0.882542	0.109293	-1.584647	0.093140	-0.008667	0.003784	0.999958	-0.004413	0.000546	-0.007923	
   11	    0	8.666219	-1.364539	0.111342	-0.703439	0.007820	-1.621267	0.086548	-0.014343	0.001160	0.999961	-0.003517	0.000039	-0.008106	
   12	    0	8.755681	-2.270121	-0.596904	-0.577171	-0.141336	-1.671622	0.087367	-0.023449	-0.005840	0.999960	-0.002886	-0.000707	-0.008358	
   13	    0	9.205472	-3.086016	-1.128469	-0.440222	-0.233272	-1.725029	0.091797	-0.031677	-0.011108	0.999959	-0.002201	-0.001166	-0.008625	
   14	    0	9.424372	-3.909009	-1.863090	-0.296978	-0.227550	-1.730751	0.093922	-0.039931	-0.018465	0.999960	-0.001485	-0.001138	-0.008654	
   15	    0	9.090424	-4.150105	-2.656873	-0.130274	-0.249484	-1.718161	0.090576	-0.042297	-0.026428	0.999962	-0.000651	-0.001247	-0.008591	
   16	    0	9.391087	-4.342065	-3.311271	0.093270	-0.270084	-1.682111	0.093586	-0.044193	-0.033007	0.999963	0.000466	-0.001350	-0.008410	
   17	    0	9.971758	-4.992556	-3.575967	0.261119	-0.241091	-1.568620	0.099365	-0.050659	-0.035706	0.999968	0.001306	-0.001205	-0.007843	
   18	    0	9.955463	-5.272478	-3.286075	0.343326	-0.158693	-1.363766	0.099218	-0.053346	-0.032873	0.999974	0.001717	-0.000793	-0.006819	
   19	    0	9.989346	-5.279441	-3.172587	0.403597	-0.067711	-1.110083	0.099609	-0.053284	-0.031799	0.999982	0.002018	-0.000339	-0.005550	
   20	    0	9.996803	-5.239710	-3.232978	0.342561	0.052071	-0.794604	0.099751	-0.052738	-0.032446	0.999990	0.001713	0.000260	-0.003973	
   21	    0	9.518091	-5.132745	-4.212728	0.102425	0.173950	-0.437165	0.095032	-0.051514	-0.042236	0.999996	0.000512	0.000870	-0.002186	
   22	    0	9.372607	-5.519580	-6.041927	-0.142288	0.150681	-0.038528	0.093670	-0.055257	-0.060451	0.999999	-0.000711	0.000753	-0.000193	
   23	    0	11.182216	-8.293583	-6.930665	-0.515558	0.106812	0.517274	0.112000	-0.082825	-0.069153	0.999992	-0.002578	0.000534	0.002586	
   24	    0	13.397574	-11.771515	-4.229084	-1.383230	0.630770	1.136034	0.134510	-0.117243	-0.041903	0.999954	-0.006916	0.003154	0.005680	
   25	    0	14.181029	-11.667864	2.013235	-2.104830	1.097907	1.554160	0.142822	-0.115356	0.020569	0.999899	-0.010524	0.005489	0.007771	
   26	    0	14.097455	-11.895604	5.276033	-2.465742	1.128630	1.899997	0.142392	-0.116952	0.053410	0.999863	-0.012328	0.005643	0.009500	
   27	    0	13.638213	-12.294444	6.069749	-2.315628	0.933309	2.194315	0.138000	-0.120728	0.061462	0.999862	-0.011578	0.004666	0.010971	
   28	    0	13.171076	-7.935187	4.327377	-1.518114	0.818282	2.400104	0.132825	-0.077434	0.043324	0.999890	-0.007590	0.004091	0.012000	
   29	    0	12.965923	-4.150017	0.528637	0.018311	0.708982	2.529980	0.130188	-0.039856	0.004822	0.999913	0.000092	0.003545	0.012650	
   30	    0	12.690764	-1.981353	-1.851308	1.658508	0.513289	2.618707	0.127103	-0.017994	-0.018993	0.999876	0.008292	0.002566	0.013093	
   31	    0	14.181814	0.943630	-3.154640	2.623340	0.389123	2.808555	0.141602	0.011841	-0.031677	0.999813	0.013116	0.001945	0.014042	
   32	    0	17.396278	4.847904	-3.586788	2.455682	0.349640	3.107276	0.173115	0.051611	-0.035550	0.999802	0.012278	0.001748	0.015535	
   33	    0	19.697080	8.166834	-3.899450	1.664071	0.222982	3.405203	0.195496	0.085327	-0.038513	0.999820	0.008320	0.001115	0.017025	
   34	    0	20.508342	6.109884	-5.725593	0.447491	0.160990	3.781738	0.203832	0.065089	-0.057278	0.999818	0.002237	0.000805	0.018908	
   35	    0	19.878177	2.110284	-4.791568	-0.688216	0.345825	3.873695	0.198242	0.024780	-0.048340	0.999804	-0.003441	0.001729	0.019367	
   36	    0	19.331175	1.223229	-3.292750	-1.348772	0.307103	3.654713	0.192997	0.015537	-0.033321	0.999808	-0.006743	0.001535	0.018272	
   37	    0	19.347435	1.405611	-2.505043	-1.172513	0.127418	3.481489	0.193176	0.017273	-0.025269	0.999830	-0.005862	0.000637	0.017406	
   38	    0	18.529113	2.609296	-1.923530	-0.379963	0.061038	3.416230	0.184804	0.029216	-0.019345	0.999852	-0.001900	0.000305	0.017080	
   39	    0	16.706747	3.846820	-1.708305	0.461601	0.046732	3.376934	0.166382	0.041321	-0.017029	0.999854	0.002308	0.000234	0.016884	
   40	    0	14.679283	4.225639	-1.780182	1.129970	-0.010872	3.280423	0.146073	0.044756	-0.017546	0.999849	0.005650	-0.000054	0.016401	
   41	    0	12.957303	4.517542	-1.785530	1.608552	-0.131995	3.170944	0.128845	0.047363	-0.017395	0.999842	0.008042	-0.000660	0.015854	
   42	    0	11.650780	4.084689	-1.741772	1.879794	-0.377103	3.046200	0.115898	0.042775	-0.016803	0.999838	0.009398	-0.001885	0.015230	
   43	    0	10.811759	3.375017	-1.914087	2.003779	-0.664557	2.940529	0.107666	0.035522	-0.018433	0.999836	0.010018	-0.003323	0.014702	
   44	    0	10.286113	3.262755	-2.246061	2.192237	-0.832413	2.789079	0.102482	0.034299	-0.021664	0.999833	0.010961	-0.004162	0.013945	
   45	    0	9.785128	3.833378	-2.820536	2.380501	-0.929883	2.571247	0.097473	0.039917	-0.027283	0.999835	0.011902	-0.004649	0.012856	
   46	    0	8.864369	4.595664	-3.207362	2.496280	-1.028688	2.337580	0.088257	0.047381	-0.031034	0.999840	0.012481	-0.005143	0.011687	
   47	    0	7.606451	5.711176	-3.222801	2.447054	-1.033832	2.089028	0.075623	0.058289	-0.031128	0.999857	0.012235	-0.005169	0.010445	
   48	    0	6.236272	7.131925	-3.121956	2.176177	-0.973167	1.871181	0.061838	0.072231	-0.030135	0.999885	0.010880	-0.004866	0.009356	
   49	    0	5.333255	7.754535	-2.229520	1.887569	-0.974112	1.647999	0.052795	0.078186	-0.021301	0.999909	0.009438	-0.004870	0.008240	
   50	    0	4.778779	7.613953	-2.106458	1.477844	-0.901050	1.392393	0.047348	0.076622	-0.020286	0.999938	0.007389	-0.004505	0.006962	
   51	    0	3.850600	7.322411	-1.837766	1.056113	-0.875867	1.192491	0.038147	0.073547	-0.017822	0.999958	0.005280	-0.004379	0.005962	
   52	    0	3.050955	7.215428	-1.148524	0.740630	-0.783546	1.001939	0.030191	0.072348	-0.011099	0.999972	0.003703	-0.003918	0.005010	
   53	    0	2.793159	6.799796	-0.064425	0.716405	-0.686460	0.834662	0.027649	0.068115	-0.000305	0.999978	0.003582	-0.003432	0.004173	
   54	    0	2.879071	6.077489	0.586239	0.818639	-0.651173	0.666241	0.028568	0.060845	0.006205	0.999980	0.004093	-0.003256	0.003331	
   55	    0	3.469838	5.445363	0.748677	0.792698	-0.634578	0.469973	0.034546	0.054504	0.007812	0.999984	0.003963	-0.003173	0.002350	
   56	    0	4.144513	4.782150	0.830823	0.617411	-0.572969	0.262643	0.041358	0.047850	0.008574	0.999990	0.003087	-0.002865	0.001313	
   57	    0	4.816176	4.164101	0.476616	0.284577	-0.491906	-0.033569	0.048157	0.041626	0.004944	0.999995	0.001423	-0.002460	-0.000168	
   58	    0	5.433909	3.020698	-0.501283	-0.331498	-0.482942	-0.384713	0.054409	0.030094	-0.004931	0.999993	-0.001657	-0.002415	-0.001924	
   59	    0	5.693157	1.822764	-0.657208	-0.807194	-0.401118	-0.687412	0.057007	0.018005	-0.006531	0.999984	-0.004036	-0.002006	-0.003437	
   60	    0	5.698790	0.402681	-0.721905	-1.152049	-0.287440	-0.846680	0.057014	0.003744	-0.007159	0.999973	-0.005760	-0.001437	-0.004233	
   61	    0	6.177495	-2.038528	-1.499560	-1.732471	-0.150301	-0.771343	0.061707	-0.020752	-0.014771	0.999954	-0.008662	-0.000751	-0.003857	
   62	    0	7.521615	-5.328826	-1.596816	-1.833563	0.101282	-0.628863	0.075040	-0.053668	-0.015515	0.999952	-0.009168	0.000506	-0.003144	
   63	    0	9.588443	-9.829323	-1.066142	-1.172646	0.354960	-0.454715	0.095642	-0.098572	-0.010254	0.999978	-0.005863	0.001775	-0.002274	
   64	    0	11.279519	-14.804654	-1.326617	-0.683023	0.321961	-0.322152	0.112535	-0.148273	-0.012941	0.999991	-0.003415	0.001610	-0.001611	
   65	    0	12.103807	-19.138439	-2.978752	-0.322724	0.002480	-0.260163	0.120789	-0.191589	-0.029480	0.999997	-0.001614	0.000012	-0.001301	
   66	    0	11.986574	-21.713088	-5.818139	0.251007	-0.228501	-0.263596	0.119646	-0.217216	-0.058317	0.999997	0.001255	-0.001143	-0.001318	
   67	    0	11.376203	-19.559243	-7.383996	0.819400	-0.205804	-0.257874	0.113586	-0.195435	-0.074524	0.999990	0.004097	-0.001029	-0.001289	
   68	    0	10.760863	-14.065858	-5.559052	1.298342	0.006867	-0.176240	0.107483	-0.140388	-0.056506	0.999978	0.006492	0.000034	-0.000881	
   69	    0	9.847540	-9.293044	-3.801957	1.367389	0.210573	0.032044	0.098450	-0.092651	-0.038757	0.999975	0.006837	0.001053	0.000160	
   70	    0	9.116548	-5.039706	-3.615443	1.283655	0.411228	0.143434	0.091126	-0.050097	-0.036664	0.999976	0.006418	0.002056	0.000717	
   71	    0	10.158885	0.590226	-4.751562	1.228532	0.374606	-0.059510	0.101501	0.006165	-0.047668	0.999979	0.006143	0.001873	-0.000298	
   72	    0	13.191031	8.311155	-5.948574	1.011854	0.273515	-0.574306	0.132068	0.083033	-0.059246	0.999982	0.005059	0.001368	-0.002872	
   73	    0	11.760325	10.762366	-3.430703	0.242043	0.418855	-0.724032	0.117920	0.107239	-0.034424	0.999990	0.001210	0.002094	-0.003620	
   74	    0	10.819599	4.165319	0.101188	-0.341225	0.519372	-0.405122	0.108282	0.041435	0.000660	0.999992	-0.001706	0.002597	-0.002026	
   75	    0	14.369848	-6.628719	2.011677	-0.644495	0.347901	-0.170899	0.143677	-0.066345	0.020081	0.999992	-0.003222	0.001740	-0.000854	
   76	    0	16.576498	-13.219771	-0.969739	0.085068	0.058174	-0.331688	0.165543	-0.132468	-0.009802	0.999998	0.000425	0.000291	-0.001658	
   77	    0	15.960484	-11.583104	-2.007177	1.424614	-0.031281	-0.737770	0.159180	-0.116272	-0.020874	0.999968	0.007123	-0.000156	-0.003689	
   78	    0	13.356910	-2.568693	0.368315	2.196365	-0.177197	-0.970482	0.133439	-0.026374	0.003514	0.999928	0.010982	-0.000886	-0.004852	
   79	    0	12.281467	5.415166	0.295216	2.748403	-0.550863	-1.130719	0.123108	0.053406	0.004028	0.999886	0.013741	-0.002754	-0.005653	
   80	    0	10.862621	13.051105	-0.609857	2.112829	-0.918223	-1.195941	0.109426	0.129910	-0.004223	0.999915	0.010564	-0.004591	-0.005980	
   81	    0	9.343991	15.244859	-1.704618	0.236514	-1.081669	-1.172651	0.094421	0.151917	-0.016357	0.999967	0.001183	-0.005408	-0.005863	
   82	    0	8.335584	13.290716	-4.702914	-0.984966	-0.869380	-1.043713	0.084252	0.132236	-0.047317	0.999965	-0.004925	-0.004347	-0.005219	
   83	    0	7.871227	8.143652	-6.215926	-1.466200	-0.482948	-1.042953	0.079285	0.080566	-0.062561	0.999956	-0.007331	-0.002415	-0.005215	
   84	    0	7.625363	3.737286	-5.770333	-1.565960	-0.254635	-1.251051	0.076557	0.036442	-0.057894	0.999949	-0.007830	-0.001273	-0.006255	
   85	    0	7.842333	1.610659	-5.621207	-1.435687	-0.279241	-1.441981	0.078613	0.015137	-0.056213	0.999947	-0.007178	-0.001396	-0.007210	
   86	    0	8.661882	1.311926	-5.956364	-1.313424	-0.396736	-1.549367	0.086833	0.012056	-0.059473	0.999946	-0.006567	-0.001984	-0.007747	
   87	    0	9.704606	1.907756	-6.526107	-1.087970	-0.485810	-1.601436	0.097351	0.017944	-0.065125	0.999949	-0.005440	-0.002429	-0.008007	
   88	    0	10.041891	0.775443	-6.968035	-1.052874	-0.505646	-1.608684	0.100651	0.006579	-0.069463	0.999950	-0.005264	-0.002528	-0.008043	
   89	    0	10.031079	-1.181491	-6.485440	-1.164266	-0.410278	-1.612882	0.100342	-0.013000	-0.064575	0.999948	-0.005821	-0.002051	-0.008064	
   90	    0	10.296436	-2.504867	-4.991314	-1.280999	-0.349051	-1.646073	0.102839	-0.026214	-0.049568	0.999944	-0.006405	-0.001745	-0.008230	
   91	    0	10.132762	-2.980149	-3.717163	-1.286913	-0.337989	-1.669343	0.101135	-0.030884	-0.036804	0.999943	-0.006434	-0.001690	-0.008347	
   92	    0	9.374471	-2.893543	-3.180283	-1.222442	-0.313955	-1.653510	0.093550	-0.029902	-0.031475	0.999946	-0.006112	-0.001570	-0.008267	
   93	    0	8.943379	-2.110339	-3.101328	-1.212333	-0.268369	-1.664001	0.089294	-0.022034	-0.030762	0.999946	-0.006062	-0.001342	-0.008320	
   94	    0	8.701925	-1.233298	-3.056218	-1.321437	-0.236897	-1.680025	0.086946	-0.013265	-0.030374	0.999942	-0.006607	-0.001184	-0.008400	
   95	    0	8.310176	-0.641730	-2.917764	-1.456481	-0.177578	-1.673161	0.083069	-0.007324	-0.029053	0.999938	-0.007282	-0.000888	-0.008366	
   96	    0	8.036832	-0.063664	-2.636419	-1.540408	-0.132945	-1.665533	0.080376	-0.001509	-0.026301	0.999935	-0.007702	-0.000665	-0.008327	
   97	    0	8.178128	0.001881	-2.494122	-1.618040	-0.083925	-1.642645	0.081787	-0.000854	-0.024902	0.999933	-0.008090	-0.000420	-0.008213	
   98	    0	8.640882	-0.650968	-2.725679	-1.655424	-0.028802	-1.589810	0.086356	-0.007421	-0.027185	0.999933	-0.008277	-0.000144	-0.007949	
   99	    0	8.954337	-1.474813	-2.879338	-1.599918	0.036050	-1.583133	0.089417	-0.015686	-0.028687	0.999936	-0.007999	0.000180	-0.007915	
  100	    0	8.992170	-2.166091	-2.930094	-1.489478	0.041963	-1.594766	0.089738	-0.022594	-0.029154	0.999940	-0.007447	0.000210	-0.007974	
  101	    0	9.036818	-2.568021	-2.921446	-1.353480	0.036050	-1.627380	0.090149	-0.026611	-0.029053	0.999944	-0.006767	0.000180	-0.008137	
  102	    0	9.124582	-2.514247	-2.646696	-1.208708	0.049401	-1.668769	0.091024	-0.026062	-0.026334	0.999947	-0.006043	0.000247	-0.008344	
  103	    0	9.252714	-1.971602	-2.369900	-1.056689	0.062753	-1.707487	0.092346	-0.020630	-0.023621	0.999949	-0.005283	0.000314	-0.008537	
  104	    0	9.171279	-1.118926	-2.054711	-0.954643	0.078584	-1.722173	0.091603	-0.012076	-0.020527	0.999951	-0.004773	0.000393	-0.008611	
  105	    0	9.110990	-0.383743	-1.847556	-0.912299	0.083925	-1.708248	0.091064	-0.004700	-0.018494	0.999952	-0.004561	0.000420	-0.008541	
  106	    0	9.164400	-0.133384	-1.687727	-0.908293	0.110246	-1.696231	0.091619	-0.002188	-0.016919	0.999953	-0.004541	0.000551	-0.008481	
  107	    0	9.146460	-0.234541	-1.582483	-0.914587	0.125887	-1.653314	0.091431	-0.003174	-0.015869	0.999954	-0.004573	0.000629	-0.008266	
  108	    0	9.283685	-0.529402	-1.359460	-0.864422	0.107767	-1.597236	0.092783	-0.006094	-0.013619	0.999958	-0.004322	0.000539	-0.007986	
  109	    0	9.578796	-0.996888	-0.817702	-0.826274	0.094033	-1.544972	0.095703	-0.010742	-0.008179	0.999961	-0.004131	0.000470	-0.007725	
  110	    0	9.723915	-1.238079	-0.203482	-0.694474	0.098611	-1.533717	0.097139	-0.013133	-0.002038	0.999964	-0.003472	0.000493	-0.007668	
  111	    0	9.441049	-1.379268	0.121284	-0.488096	0.057221	-1.561755	0.094299	-0.014526	0.001221	0.999966	-0.002440	0.000286	-0.007809	
  112	    0	9.106305	-1.950232	-0.354572	-0.441747	-0.072671	-1.592082	0.090905	-0.020234	-0.003469	0.999966	-0.002209	-0.000363	-0.007960	
  113	    0	9.050280	-2.970903	-0.969242	-0.531584	-0.200655	-1.598377	0.090271	-0.030457	-0.009521	0.999964	-0.002658	-0.001003	-0.007992	
  114	    0	9.016049	-3.717042	-1.494947	-0.544173	-0.261119	-1.576633	0.089883	-0.037920	-0.014729	0.999964	-0.002721	-0.001306	-0.007883	
  115	    0	8.945157	-4.023404	-2.096388	-0.408749	-0.288394	-1.519029	0.089172	-0.040955	-0.020752	0.999968	-0.002044	-0.001442	-0.007595	
  116	    0	9.111372	-4.501758	-2.918160	-0.179292	-0.275614	-1.416600	0.090832	-0.045688	-0.029016	0.999973	-0.000896	-0.001378	-0.007083	
  117	    0	9.392637	-5.255620	-3.454253	0.051308	-0.282290	-1.310740	0.093628	-0.053162	-0.034424	0.999977	0.000257	-0.001411	-0.006554	
  118	    0	9.622285	-5.641725	-3.415806	0.237657	-0.228502	-1.155479	0.095934	-0.056931	-0.034116	0.999982	0.001188	-0.001143	-0.005777	
  119	    0	10.079485	-6.296267	-3.337581	0.347139	-0.076104	-0.894168	0.100525	-0.063354	-0.033447	0.999988	0.001736	-0.000381	-0.004471	
  120	    0	10.075599	-6.652041	-3.381597	0.480653	0.093651	-0.574113	0.100549	-0.066728	-0.034023	0.999992	0.002403	0.000468	-0.002871	
  121	    0	9.635438	-6.874417	-4.221881	0.503541	0.184059	-0.183106	0.096252	-0.068726	-0.042480	0.999995	0.002518	0.000920	-0.000916	
  122	    0	9.542058	-7.936562	-4.871129	-0.020599	0.339890	0.282097	0.095449	-0.079236	-0.048865	0.999997	-0.000103	0.001699	0.001410	
  123	    0	10.842560	-9.379099	-3.626488	-0.800328	0.559429	0.679783	0.108643	-0.093567	-0.036194	0.999982	-0.004002	0.002797	0.003399	
  124	    0	13.037912	-11.661932	-1.228603	-1.669154	0.813691	1.142143	0.130994	-0.115973	-0.011848	0.999940	-0.008346	0.004068	0.005711	
  125	    0	14.278636	-11.707985	3.303150	-2.330872	1.220179	1.604525	0.143921	-0.115540	0.033508	0.999881	-0.011654	0.006101	0.008022	
  126	    0	14.275996	-10.197039	4.962886	-2.330313	1.262149	1.941768	0.144052	-0.099996	0.049895	0.999865	-0.011651	0.006310	0.009708	
  127	    0	13.716205	-9.296563	4.168506	-1.981438	1.136256	2.243901	0.138428	-0.091003	0.041809	0.999871	-0.009907	0.005681	0.011219	
  128	    0	13.080636	-6.342867	1.611605	-0.829533	1.036487	2.453502	0.131653	-0.061751	0.015694	0.999902	-0.004148	0.005182	0.012267	
  129	    0	12.898294	-2.711812	-0.901377	0.654623	0.843265	2.532276	0.129272	-0.025452	-0.009644	0.999906	0.003273	0.004216	0.012661	
  130	    0	13.890606	0.621398	-2.627368	1.997277	0.593022	2.592779	0.138729	0.008278	-0.026609	0.999861	0.009986	0.002965	0.012963	
  131	    0	15.850428	3.021161	-4.232793	2.723108	0.436620	2.823822	0.157959	0.033020	-0.042236	0.999804	0.013615	0.002183	0.014118	
  132	    0	18.497150	5.139437	-4.693997	2.360498	0.407055	3.146567	0.184031	0.054847	-0.046681	0.999804	0.011802	0.002035	0.015732	
  133	    0	20.151645	5.540500	-5.664764	1.207991	0.280777	3.443338	0.200439	0.059204	-0.056580	0.999832	0.006040	0.001404	0.017216	
  134	    0	20.349573	1.506537	-6.515315	-0.225843	0.382254	3.668422	0.203050	0.018719	-0.065561	0.999829	-0.001129	0.001911	0.018341	
  135	    0	19.697474	0.157069	-5.135651	-1.165077	0.509864	3.547115	0.196777	0.004761	-0.051880	0.999822	-0.005825	0.002549	0.017735	
  136	    0	19.661928	0.866331	-4.007929	-1.364210	0.431657	3.325262	0.196355	0.011654	-0.040576	0.999836	-0.006821	0.002158	0.016625	
  137	    0	19.555627	2.077608	-2.885687	-0.720249	0.366419	3.270876	0.195129	0.023865	-0.029297	0.999858	-0.003601	0.001832	0.016354	
  138	    0	17.978302	3.872787	-2.057802	0.224696	0.316253	3.270106	0.179085	0.041683	-0.020816	0.999864	0.001123	0.001581	0.016350	
  139	    0	15.720097	5.174152	-1.969000	0.992823	0.214396	3.247990	0.156311	0.054382	-0.019592	0.999855	0.004964	0.001072	0.016239	
  140	    0	14.088682	5.380432	-2.203944	1.522714	0.039675	3.154153	0.140009	0.056183	-0.021646	0.999846	0.007613	0.000198	0.015770	
  141	    0	12.628969	4.860962	-2.211723	1.845076	-0.175485	3.036659	0.125549	0.050720	-0.021545	0.999842	0.009225	-0.000877	0.015182	
  142	    0	11.401902	3.959745	-2.150602	1.933201	-0.484302	2.964750	0.113464	0.041486	-0.020836	0.999840	0.009665	-0.002421	0.014823	
  143	    0	10.676329	3.517397	-2.302498	2.001487	-0.720253	2.868042	0.106323	0.036926	-0.022278	0.999840	0.010007	-0.003601	0.014339	
  144	    0	10.288359	3.880622	-2.830669	2.126423	-0.824590	2.699993	0.102459	0.040486	-0.027459	0.999844	0.010632	-0.004123	0.013499	
  145	    0	9.777700	4.605758	-3.254184	2.239529	-0.942277	2.446868	0.097351	0.047607	-0.031555	0.999851	0.011197	-0.004711	0.012234	
  146	    0	8.728404	5.396490	-3.347208	2.241618	-1.009415	2.202515	0.086845	0.055290	-0.032418	0.999864	0.011208	-0.005047	0.011012	
  147	    0	7.318990	6.500291	-3.113899	2.137267	-0.951422	1.953964	0.072693	0.066040	-0.030090	0.999884	0.010686	-0.004757	0.009769	
  148	    0	6.038899	8.009511	-2.398417	1.898443	-0.938063	1.737077	0.059798	0.080837	-0.022938	0.999906	0.009492	-0.004690	0.008685	
  149	    0	5.260379	8.290750	-1.718218	1.693195	-0.926231	1.483191	0.052063	0.083435	-0.016235	0.999926	0.008466	-0.004631	0.007416	
  150	    0	4.325805	8.024499	-1.893376	1.263638	-0.839437	1.205272	0.042850	0.080621	-0.018245	0.999952	0.006318	-0.004197	0.006026	
  151	    0	3.456112	7.911797	-1.660622	0.732429	-0.824554	0.978097	0.034241	0.079346	-0.016174	0.999972	0.003662	-0.004123	0.004890	
  152	    0	2.605765	7.879578	-0.899138	0.440028	-0.723652	0.761418	0.025789	0.078914	-0.008724	0.999984	0.002200	-0.003618	0.003807	
  153	    0	2.300122	7.623651	0.318630	0.592234	-0.585177	0.590518	0.022766	0.076294	0.003479	0.999987	0.002961	-0.002926	0.002953	
  154	    0	2.528069	6.945503	0.742344	0.738147	-0.500872	0.421907	0.025115	0.069480	0.007743	0.999988	0.003691	-0.002504	0.002110	
  155	    0	2.994310	6.205717	0.718430	0.620271	-0.465204	0.257111	0.029846	0.062073	0.007446	0.999991	0.003101	-0.002326	0.001286	
  156	    0	3.675629	5.638461	0.419679	0.281525	-0.467873	0.071716	0.036726	0.056392	0.004362	0.999996	0.001408	-0.002339	0.000359	
  157	    0	4.511451	4.716442	-0.389470	-0.293541	-0.525666	-0.175476	0.045166	0.047119	-0.003845	0.999994	-0.001468	-0.002628	-0.000877	
  158	    0	5.271280	3.244818	-0.175698	-0.594904	-0.546839	-0.451853	0.052791	0.032324	-0.001709	0.999989	-0.002975	-0.002734	-0.002259	
  159	    0	5.519857	0.977200	-0.314400	-0.798802	-0.473597	-0.641635	0.055237	0.009583	-0.003052	0.999984	-0.003994	-0.002368	-0.003208	
  160	    0	5.991615	-1.666514	-1.005048	-1.341261	-0.389294	-0.677497	0.059878	-0.016934	-0.009821	0.999969	-0.006706	-0.001946	-0.003387	
  161	    0	7.161119	-4.875580	-1.177641	-1.462381	-0.354771	-0.650795	0.071472	-0.049072	-0.011292	0.999966	-0.007312	-0.001774	-0.003254	
  162	    0	9.228750	-9.004833	-1.462218	-1.113708	-0.164224	-0.584606	0.092035	-0.090397	-0.014044	0.999979	-0.005569	-0.000821	-0.002923	
  163	    0	11.100351	-12.961927	-2.089554	-0.805476	0.023651	-0.436403	0.110718	-0.129944	-0.020386	0.999989	-0.004027	0.000118	-0.002182	
  164	    0	12.134422	-16.560982	-3.410599	-0.537110	-0.102043	-0.321770	0.121095	-0.165895	-0.033599	0.999994	-0.002686	-0.000510	-0.001609	
  165	    0	12.107753	-19.721464	-4.880630	0.129128	-0.275421	-0.237274	0.120911	-0.197327	-0.048767	0.999998	0.000646	-0.001377	-0.001186	
  166	    0	11.507771	-19.920398	-6.386520	0.655366	-0.220108	-0.169373	0.114980	-0.199091	-0.064391	0.999993	0.003277	-0.001101	-0.000847	
  167	    0	10.808760	-16.256757	-5.461949	0.971226	-0.091362	-0.099183	0.108032	-0.162354	-0.055359	0.999988	0.004856	-0.000457	-0.000496	
  168	    0	9.700273	-11.836270	-3.986805	1.213081	0.093651	0.032425	0.097003	-0.118102	-0.040630	0.999981	0.006065	0.000468	0.000162	
  169	    0	8.767545	-7.666509	-3.598545	1.212319	0.253488	0.204469	0.087708	-0.076355	-0.036560	0.999980	0.006062	0.001267	0.001022	
  170	    0	9.185611	-3.143045	-3.600339	1.077467	0.324442	0.186158	0.091826	-0.031150	-0.036321	0.999983	0.005387	0.001622	0.000931	
  171	    0	12.369623	4.445505	-5.822938	1.000218	0.159646	-0.307466	0.123718	0.044556	-0.058105	0.999986	0.005001	0.000798	-0.001537	
  172	    0	13.711297	10.898670	-6.218268	0.396730	0.262261	-0.786212	0.137459	0.108570	-0.062147	0.999989	0.001984	0.001311	-0.003931	
  173	    0	10.805145	8.235065	-1.492800	-0.356103	0.566866	-0.653079	0.108276	0.081970	-0.015381	0.999989	-0.001781	0.002834	-0.003265	
  174	    0	12.509207	-2.565282	1.993360	-0.912289	0.528529	-0.188638	0.125120	-0.025681	0.019720	0.999985	-0.004561	0.002643	-0.000943	
  175	    0	16.003474	-11.486163	1.838037	-0.531007	0.239754	-0.145722	0.159973	-0.114929	0.018494	0.999995	-0.002655	0.001199	-0.000729	
  176	    0	17.088252	-14.534092	-2.070959	0.884632	0.082970	-0.526812	0.170490	-0.145697	-0.021424	0.999987	0.004423	0.000415	-0.002634	
  177	    0	14.472453	-8.878718	-1.743993	2.029462	0.122264	-0.956746	0.144287	-0.089294	-0.018433	0.999936	0.010147	0.000611	-0.004784	
  178	    0	12.780845	-0.308805	0.084274	2.612775	-0.094608	-1.142159	0.127788	-0.003829	0.000856	0.999898	0.013063	-0.000473	-0.005711	
  179	    0	11.325968	6.770737	-1.090330	3.084709	-0.389690	-1.274932	0.113708	0.067139	-0.009644	0.999858	0.015423	-0.001948	-0.006374	
  180	    0	10.002327	12.935428	-0.984914	1.955843	-0.652139	-1.283486	0.100880	0.128795	-0.008260	0.999926	0.009779	-0.003261	-0.006417	
  181	    0	8.471885	13.819268	-1.165385	0.035858	-0.791747	-1.171122	0.085571	0.137695	-0.011292	0.999974	0.000179	-0.003959	-0.005856	
  182	    0	7.581575	11.186518	-3.379392	-1.047527	-0.729760	-1.001369	0.076498	0.111305	-0.034100	0.999967	-0.005238	-0.003649	-0.005007	
  183	    0	6.891544	6.787632	-5.082681	-1.503585	-0.537117	-1.022354	0.069397	0.067139	-0.051147	0.999954	-0.007518	-0.002686	-0.005112	
  184	    0	6.354097	3.895627	-5.017555	-1.665336	-0.360114	-1.188681	0.063860	0.038158	-0.050381	0.999946	-0.008327	-0.001801	-0.005943	
  185	    0	6.923978	2.616988	-5.266498	-1.602967	-0.390442	-1.379421	0.069519	0.025269	-0.052734	0.999942	-0.008015	-0.001952	-0.006897	
  186	    0	8.558669	2.692618	-6.436029	-1.539262	-0.530635	-1.515229	0.085956	0.025781	-0.064334	0.999938	-0.007696	-0.002653	-0.007576	
  187	    0	9.999768	2.162609	-7.480704	-1.393154	-0.488100	-1.557952	0.100342	0.020325	-0.074707	0.999942	-0.006966	-0.002440	-0.007790	
  188	    0	10.195386	0.454666	-7.244374	-1.340699	-0.309759	-1.554899	0.102095	0.003268	-0.072310	0.999946	-0.006703	-0.001549	-0.007774	
  189	    0	10.257339	-1.757106	-5.508234	-1.340318	-0.173190	-1.557950	0.102478	-0.018738	-0.054871	0.999947	-0.006701	-0.000866	-0.007790	
  190	    0	10.720499	-3.212777	-3.872377	-1.253150	-0.170901	-1.602582	0.106975	-0.033227	-0.038426	0.999948	-0.006266	-0.000854	-0.008013	
  191	    0	10.028897	-3.532969	-3.109296	-1.061838	-0.280003	-1.642635	0.100037	-0.036316	-0.030762	0.999950	-0.005309	-0.001400	-0.008213	
  192	    0	9.217118	-3.156568	-3.088460	-0.864615	-0.358587	-1.684787	0.091955	-0.032474	-0.030581	0.999953	-0.004323	-0.001793	-0.008424	
  193	    0	9.074377	-1.869788	-3.221931	-0.709354	-0.371557	-1.721980	0.090637	-0.019592	-0.031982	0.999954	-0.003547	-0.001858	-0.008610	
  194	    0	9.063617	-0.460130	-2.923816	-0.683604	-0.334173	-1.758793	0.090639	-0.005498	-0.029069	0.999953	-0.003418	-0.001671	-0.008794	
  195	    0	8.945153	0.626847	-2.586162	-0.781263	-0.283627	-1.779966	0.089539	0.005371	-0.025757	0.999951	-0.003906	-0.001418	-0.008900	
  196	    0	8.948289	1.124193	-2.507213	-0.979631	-0.227169	-1.749259	0.089604	0.010336	-0.025023	0.999949	-0.004898	-0.001136	-0.008746	
  197	    0	9.040707	1.046195	-2.510649	-1.261926	-0.183681	-1.728854	0.090515	0.009521	-0.025085	0.999942	-0.006310	-0.000918	-0.008644	
  198	    0	9.222127	0.605790	-2.717829	-1.489863	-0.131419	-1.744690	0.092286	0.005051	-0.027158	0.999933	-0.007449	-0.000657	-0.008723	
  199	    0	9.338351	-0.063176	-2.965204	-1.613656	-0.083735	-1.795240	0.093384	-0.001709	-0.029602	0.999927	-0.008068	-0.000419	-0.008976	
  200	    0	9.392680	-0.811381	-3.066546	-1.714561	-0.019074	-1.838542	0.093848	-0.009239	-0.030581	0.999921	-0.008573	-0.000095	-0.009192	
  201	    0	9.397073	-1.581326	-3.113969	-1.753283	0.024605	-1.879935	0.093811	-0.016968	-0.031006	0.999917	-0.008766	0.000123	-0.009399	
  202	    0	9.331348	-1.900136	-2.925211	-1.770069	0.045778	-1.903778	0.093119	-0.020146	-0.029099	0.999915	-0.008850	0.000229	-0.009519	
  203	    0	9.157057	-1.900860	-2.797618	-1.724292	0.057413	-1.952417	0.091370	-0.020142	-0.027832	0.999915	-0.008621	0.000287	-0.009762	
  204	    0	8.935463	-1.621785	-2.539628	-1.589436	0.066759	-1.973396	0.089179	-0.017300	-0.025291	0.999919	-0.007947	0.000334	-0.009867	
  205	    0	8.886595	-1.077265	-2.267927	-1.302176	0.088503	-1.936384	0.088745	-0.011780	-0.022644	0.999931	-0.006511	0.000443	-0.009682	
  206	    0	9.113144	-0.209877	-1.652537	-0.936716	0.134471	-1.865230	0.091095	-0.003026	-0.016574	0.999945	-0.004683	0.000672	-0.009326	
  207	    0	9.668598	-0.611923	-1.467815	-0.826276	0.122263	-1.736477	0.096619	-0.007019	-0.014709	0.999953	-0.004131	0.000611	-0.008682	
  208	    0	9.642334	-1.168676	-1.138691	-0.812923	0.144770	-1.629089	0.096315	-0.012518	-0.011407	0.999958	-0.004065	0.000724	-0.008145	
  209	    0	9.600374	-1.373949	-0.798955	-0.762949	0.126077	-1.577016	0.095886	-0.014526	-0.007996	0.999961	-0.003815	0.000630	-0.007885	
  210	    0	9.598978	-1.567154	-0.589513	-0.701341	0.067712	-1.584264	0.095860	-0.016452	-0.005871	0.999962	-0.003507	0.000339	-0.007921	
  211	    0	9.334762	-1.817122	-0.554678	-0.586707	0.002480	-1.573200	0.093201	-0.018921	-0.005493	0.999965	-0.002934	0.000012	-0.007866	
  212	    0	8.909862	-2.183865	-0.747863	-0.449567	-0.067139	-1.558321	0.088927	-0.022549	-0.007399	0.999967	-0.002248	-0.000336	-0.007792	
  213	    0	8.778518	-2.646470	-1.146087	-0.407223	-0.122072	-1.535050	0.087585	-0.027161	-0.011353	0.999968	-0.002036	-0.000610	-0.007675	
  214	    0	8.996084	-3.504855	-1.411206	-0.456815	-0.224116	-1.472870	0.089715	-0.035742	-0.013930	0.999969	-0.002284	-0.001121	-0.007364	
  215	    0	9.123226	-4.505951	-1.656727	-0.420193	-0.251009	-1.364911	0.090942	-0.045715	-0.016357	0.999973	-0.002101	-0.001255	-0.006824	
  216	    0	9.145353	-5.042745	-2.315613	-0.256922	-0.268557	-1.262292	0.091164	-0.051033	-0.022968	0.999978	-0.001285	-0.001343	-0.006311	
  217	    0	9.684538	-5.440364	-2.787074	-0.110436	-0.270082	-1.187141	0.096558	-0.054993	-0.027710	0.999981	-0.000552	-0.001350	-0.005936	
  218	    0	10.396788	-5.970329	-2.799697	-0.026894	-0.221444	-1.078230	0.103675	-0.060266	-0.027874	0.999985	-0.000134	-0.001107	-0.005391	
  219	    0	10.508191	-6.568887	-2.654167	0.064278	-0.140381	-0.918582	0.104797	-0.066162	-0.026489	0.999989	0.000321	-0.000702	-0.004593	
  220	    0	10.305197	-6.829428	-2.906983	0.211525	0.020599	-0.647928	0.102827	-0.068597	-0.029153	0.999993	0.001058	0.000103	-0.003240	
  221	    0	10.022007	-6.953834	-3.968218	0.413704	0.181580	-0.247956	0.100098	-0.069580	-0.039917	0.999996	0.002069	0.000908	-0.001240	
  222	    0	9.644131	-7.970228	-5.408747	0.428773	0.228119	0.270653	0.096487	-0.079455	-0.054368	0.999995	0.002144	0.001141	0.001353	
  223	    0	10.621292	-10.124605	-4.610337	-0.326349	0.498202	0.808719	0.106506	-0.100891	-0.046204	0.999987	-0.001632	0.002491	0.004044	
  224	    0	12.619313	-12.097768	-1.182913	-1.221676	0.893035	1.254865	0.126897	-0.120255	-0.011659	0.999951	-0.006108	0.004465	0.006274	
  225	    0	13.837340	-11.779963	2.437952	-1.699690	1.202429	1.721244	0.139526	-0.116394	0.024536	0.999908	-0.008498	0.006012	0.008606	
  226	    0	13.951619	-10.800306	5.150112	-1.912575	1.267865	2.080238	0.140953	-0.106049	0.051631	0.999880	-0.009562	0.006339	0.010401	
  227	    0	13.474276	-8.489177	5.250891	-1.676052	1.060527	2.310270	0.135986	-0.082886	0.052490	0.999884	-0.008380	0.005302	0.011551	
  228	    0	12.911119	-3.940536	1.850318	-0.545327	0.865580	2.421067	0.129654	-0.037788	0.018047	0.999913	-0.002727	0.004328	0.012105	
  229	    0	12.461330	-0.645649	-3.017767	1.106489	0.694297	2.451403	0.124573	-0.004761	-0.030640	0.999903	0.005532	0.003471	0.012257	
  230	    0	13.449118	1.302625	-4.777949	2.234188	0.522449	2.571996	0.134179	0.015288	-0.047968	0.999851	0.011170	0.002612	0.012859	
  231	    0	16.212293	3.861722	-4.792220	2.399014	0.438716	2.861191	0.161438	0.041504	-0.047791	0.999823	0.011994	0.002193	0.014305	
  232	    0	18.838748	6.932290	-4.271934	1.832685	0.345059	3.199188	0.187169	0.072713	-0.042387	0.999828	0.009163	0.001725	0.015995	
  233	    0	19.776058	5.923402	-6.112630	0.716439	0.255789	3.527260	0.196594	0.062927	-0.061157	0.999837	0.003582	0.001279	0.017635	
  234	    0	19.482135	0.720235	-6.332683	-0.452831	0.416971	3.675864	0.194514	0.010635	-0.063754	0.999825	-0.002264	0.002085	0.018378	
  235	    0	18.965712	-0.106862	-4.722365	-1.055969	0.528175	3.517353	0.189514	0.002014	-0.047729	0.999827	-0.005280	0.002641	0.017586	
  236	    0	19.524517	0.622640	-3.563478	-1.103651	0.399993	3.400032	0.195032	0.009345	-0.036071	0.999838	-0.005518	0.002000	0.016999	
  237	    0	19.855809	2.543601	-2.335337	-0.459121	0.328843	3.334204	0.198059	0.028687	-0.023743	0.999857	-0.002295	0.001644	0.016670	
  238	    0	17.996915	4.832435	-1.708678	0.381869	0.268949	3.312647	0.179112	0.051329	-0.017232	0.999860	0.001909	0.001345	0.016562	
  239	    0	15.641571	5.934997	-1.912191	1.039175	0.149734	3.291484	0.155396	0.062012	-0.018921	0.999850	0.005196	0.000749	0.016457	
  240	    0	13.963638	5.775959	-2.065623	1.437643	-0.014115	3.216528	0.138683	0.060142	-0.020220	0.999845	0.007188	-0.000071	0.016082	
  241	    0	12.384024	5.044488	-1.993067	1.600922	-0.271621	3.162551	0.123047	0.052551	-0.019348	0.999842	0.008004	-0.001358	0.015812	
  242	    0	11.384031	3.940105	-2.056814	1.644795	-0.551826	3.151110	0.113255	0.041354	-0.019920	0.999838	0.008224	-0.002759	0.015755	
  243	    0	10.900931	3.634485	-2.350081	1.800063	-0.729410	3.047346	0.108521	0.038208	-0.022766	0.999836	0.009000	-0.003647	0.015236	
  244	    0	10.502245	3.956351	-2.432545	2.016174	-0.779193	2.825886	0.104540	0.041283	-0.023507	0.999842	0.010080	-0.003896	0.014129	
  245	    0	9.759715	4.522670	-2.586958	2.176203	-0.828594	2.572761	0.097107	0.046753	-0.024963	0.999849	0.010880	-0.004143	0.012863	
  246	    0	8.649962	5.546401	-2.571583	2.153684	-0.863877	2.326689	0.085953	0.056736	-0.024737	0.999865	0.010768	-0.004319	0.011633	
  247	    0	7.402313	6.524146	-2.161628	2.005082	-0.884853	2.095875	0.073425	0.066223	-0.020630	0.999885	0.010025	-0.004424	0.010479	
  248	    0	6.301153	7.506019	-1.716824	1.849043	-0.922614	1.863730	0.062384	0.075796	-0.016181	0.999903	0.009245	-0.004613	0.009318	
  249	    0	5.752744	7.387315	-1.696883	1.635020	-0.868819	1.593820	0.057007	0.074463	-0.016113	0.999925	0.008175	-0.004344	0.007969	
  250	    0	4.828749	6.989357	-1.543224	1.210805	-0.804151	1.330397	0.047881	0.070304	-0.014814	0.999951	0.006054	-0.004021	0.006652	
  251	    0	3.891810	7.023674	-1.142846	0.843057	-0.751312	1.095592	0.038574	0.070496	-0.010986	0.999969	0.004215	-0.003757	0.005478	
  252	    0	3.170798	6.969466	-0.175101	0.791747	-0.643926	0.899894	0.031399	0.069842	-0.001373	0.999976	0.003959	-0.003220	0.004499	
  253	    0	2.917171	6.492499	0.453614	1.004227	-0.561528	0.700384	0.028931	0.065002	0.004944	0.999977	0.005021	-0.002808	0.003502	
  254	    0	3.152940	5.677169	0.382617	0.984961	-0.580219	0.525669	0.031368	0.056834	0.004197	0.999980	0.004925	-0.002901	0.002628	
  255	    0	3.726094	4.713033	0.344299	0.701907	-0.616267	0.336458	0.037170	0.047180	0.003723	0.999988	0.003510	-0.003081	0.001682	
  256	    0	4.352963	4.324489	0.216174	0.315285	-0.586320	0.123787	0.043496	0.043268	0.002357	0.999993	0.001576	-0.002932	0.000619	
  257	    0	4.964010	3.604926	-0.784452	-0.220490	-0.534631	-0.120545	0.049683	0.036011	-0.007751	0.999995	-0.001102	-0.002673	-0.000603	
  258	    0	5.440160	2.372756	-1.213357	-0.559999	-0.435640	-0.380517	0.054473	0.023590	-0.012081	0.999991	-0.002800	-0.002178	-0.001903	
  259	    0	5.666027	0.759907	-1.403080	-0.737765	-0.286676	-0.572207	0.056702	0.007385	-0.013977	0.999988	-0.003689	-0.001433	-0.002861	
  260	    0	5.986444	-1.275576	-1.925049	-1.289379	-0.124169	-0.631147	0.059835	-0.013068	-0.019130	0.999973	-0.006447	-0.000621	-0.003156	
  261	    0	6.681638	-3.758626	-1.791891	-1.551646	0.040436	-0.536352	0.066711	-0.037903	-0.017639	0.999966	-0.007758	0.000202	-0.002682	
  262	    0	8.482234	-7.598544	-0.795694	-1.140602	0.238420	-0.450900	0.084641	-0.076221	-0.007624	0.999980	-0.005703	0.001192	-0.002254	
  263	    0	10.457424	-12.096404	-0.679953	-0.731470	0.333406	-0.318910	0.104370	-0.121155	-0.006531	0.999990	-0.003657	0.001667	-0.001595	
  264	    0	11.588018	-15.879935	-1.790482	-0.621606	0.162125	-0.237847	0.115677	-0.158992	-0.017505	0.999993	-0.003108	0.000811	-0.001189	
  265	    0	11.493407	-18.185787	-3.282272	-0.134277	-0.081444	-0.221253	0.114746	-0.182007	-0.032654	0.999999	-0.000671	-0.000407	-0.001106	
  266	    0	10.788358	-18.747661	-5.530883	0.508881	-0.273514	-0.179863	0.107791	-0.187432	-0.055638	0.999995	0.002544	-0.001368	-0.000899	
  267	    0	10.036740	-16.369318	-6.490916	0.932316	-0.238610	-0.126648	0.100342	-0.163452	-0.065552	0.999988	0.004662	-0.001193	-0.000633	
  268	    0	9.537726	-12.106480	-5.198756	1.123244	-0.073624	-0.056076	0.095363	-0.120797	-0.052631	0.999984	0.005616	-0.000368	-0.000280	
  269	    0	8.816630	-7.588770	-4.274365	1.239785	0.138284	-0.004578	0.088135	-0.075623	-0.043274	0.999980	0.006199	0.000691	-0.000023	
  270	    0	8.612301	-2.822114	-3.840974	1.255044	0.316241	-0.064469	0.086053	-0.028007	-0.038722	0.999978	0.006275	0.001581	-0.000322	
  271	    0	10.671333	3.434108	-4.896751	1.291667	0.155069	-0.436405	0.106750	0.034424	-0.048828	0.999976	0.006458	0.000775	-0.002182	
  272	    0	13.256101	9.987341	-7.282031	1.051720	0.024986	-0.849349	0.132976	0.099690	-0.072312	0.999977	0.005259	0.000125	-0.004247	
  273	    0	11.986887	9.552143	-4.187403	0.055886	0.647739	-0.936895	0.120178	0.094971	-0.042236	0.999983	0.000279	0.003239	-0.004684	
  274	    0	12.071352	0.321704	1.552456	-0.557331	0.952155	-0.578884	0.120794	0.002910	0.014941	0.999980	-0.002787	0.004761	-0.002894	
  275	    0	14.703815	-9.906294	2.553758	-0.393677	0.382424	-0.230408	0.146973	-0.099182	0.025452	0.999995	-0.001968	0.001912	-0.001152	
  276	    0	16.243180	-13.846002	-0.799429	0.680353	0.009155	-0.397111	0.162156	-0.138754	-0.008473	0.999991	0.003402	0.000046	-0.001986	
  277	    0	14.799109	-9.093202	-0.758503	1.683068	-0.070764	-0.766765	0.147644	-0.091431	-0.008301	0.999957	0.008415	-0.000354	-0.003834	
  278	    0	13.518660	-0.718442	0.605755	2.274953	-0.354967	-0.945688	0.135139	-0.007894	0.006210	0.999922	0.011374	-0.001775	-0.004728	
  279	    0	12.375476	7.122244	-0.189465	2.432519	-0.682852	-1.094090	0.124146	0.070557	-0.000610	0.999905	0.012162	-0.003414	-0.005470	
  280	    0	10.986205	13.848131	-1.141411	1.188486	-0.918974	-1.120774	0.110684	0.137925	-0.010086	0.999955	0.005942	-0.004595	-0.005604	
  281	    0	8.907968	14.356394	-2.616417	-0.626952	-0.956736	-1.062785	0.089966	0.143005	-0.026184	0.999969	-0.003135	-0.004784	-0.005314	
  282	    0	7.784619	11.430236	-5.653240	-1.475546	-0.642023	-0.960173	0.078575	0.113506	-0.057120	0.999955	-0.007378	-0.003210	-0.004801	
  283	    0	7.447330	6.332941	-6.622197	-1.697569	-0.277524	-1.035326	0.074890	0.062378	-0.066650	0.999949	-0.008488	-0.001388	-0.005177	
  284	    0	7.301288	2.429487	-6.108760	-1.635389	-0.153544	-1.226828	0.073205	0.023346	-0.061225	0.999947	-0.008177	-0.000768	-0.006134	
  285	    0	7.769967	0.727750	-6.108084	-1.441980	-0.240139	-1.416040	0.077820	0.006287	-0.061035	0.999948	-0.007210	-0.001201	-0.007080	
  286	    0	9.013609	0.371746	-6.351933	-1.282905	-0.380332	-1.533535	0.090280	0.002619	-0.063367	0.999948	-0.006414	-0.001902	-0.007668	
  287	    0	9.866106	0.683076	-6.942076	-1.033609	-0.482186	-1.612117	0.098877	0.005676	-0.069214	0.999950	-0.005168	-0.002411	-0.008060	
  288	    0	10.029860	-0.445562	-7.172649	-0.963608	-0.443084	-1.671055	0.100413	-0.005639	-0.071479	0.999950	-0.004818	-0.002215	-0.008355	
  289	    0	10.070282	-1.751473	-5.989309	-1.048106	-0.329595	-1.686888	0.100647	-0.018677	-0.059631	0.999949	-0.005240	-0.001648	-0.008434	
  290	    0	10.205672	-2.072842	-4.222308	-1.103802	-0.287824	-1.712066	0.101933	-0.021833	-0.041958	0.999947	-0.005519	-0.001439	-0.008560	
  291	    0	9.710443	-1.847764	-3.136493	-1.014536	-0.288396	-1.719695	0.096985	-0.019470	-0.031128	0.999949	-0.005073	-0.001442	-0.008598	
  292	    0	9.155427	-1.498961	-2.785599	-0.897613	-0.282864	-1.744490	0.091457	-0.015912	-0.027657	0.999950	-0.004488	-0.001414	-0.008722	
  293	    0	9.017104	-0.598411	-2.700506	-0.823797	-0.271611	-1.779204	0.090149	-0.006897	-0.026855	0.999950	-0.004119	-0.001358	-0.008896	
  294	    0	8.844147	0.222142	-2.547947	-0.946825	-0.233082	-1.824221	0.088486	0.001294	-0.025384	0.999946	-0.004734	-0.001165	-0.009121	
  295	    0	8.669130	0.863017	-2.428105	-1.161217	-0.222592	-1.841773	0.086792	0.007690	-0.024231	0.999940	-0.005806	-0.001113	-0.009209	
  296	    0	8.804730	1.289494	-2.406004	-1.380379	-0.199895	-1.846355	0.088184	0.011915	-0.024056	0.999932	-0.006902	-0.000999	-0.009232	
  297	    0	9.204796	1.100185	-2.568641	-1.574555	-0.155643	-1.847122	0.092163	0.009949	-0.025696	0.999926	-0.007873	-0.000778	-0.009235	
  298	    0	9.308444	0.376746	-2.907090	-1.673360	-0.095561	-1.844645	0.093126	0.002666	-0.029052	0.999922	-0.008367	-0.000478	-0.009223	
  299	    0	9.270446	-0.503685	-3.081394	-1.706550	-0.006104	-1.866963	0.092651	-0.006165	-0.030762	0.999920	-0.008533	-0.000031	-0.009335	
  300	    0	9.260737	-1.177810	-2.987623	-1.689003	0.033952	-1.895955	0.092484	-0.012907	-0.029786	0.999919	-0.008445	0.000170	-0.009480	
  301	    0	9.251209	-1.540573	-2.800091	-1.709604	0.065615	-1.939446	0.092346	-0.016541	-0.027893	0.999916	-0.008548	0.000328	-0.009697	
  302	    0	9.198630	-1.634402	-2.447263	-1.705791	0.086024	-1.982364	0.091806	-0.017463	-0.024366	0.999914	-0.008529	0.000430	-0.009912	
  303	    0	9.045303	-1.586999	-2.187120	-1.647806	0.122074	-2.032529	0.090271	-0.016968	-0.021790	0.999914	-0.008239	0.000610	-0.010162	
  304	    0	8.699904	-1.204999	-1.859331	-1.491586	0.140575	-2.028901	0.086857	-0.013070	-0.018559	0.999920	-0.007458	0.000703	-0.010144	
  305	    0	8.668317	-0.589353	-1.334505	-1.264220	0.145153	-1.980637	0.086609	-0.006836	-0.013367	0.999930	-0.006321	0.000726	-0.009903	
  306	    0	8.805121	-0.535638	-1.134542	-1.036282	0.142482	-1.858746	0.087988	-0.006233	-0.011377	0.999943	-0.005181	0.000712	-0.009294	
  307	    0	9.026395	-1.186514	-1.036978	-0.842108	0.129702	-1.744107	0.090149	-0.012695	-0.010376	0.999952	-0.004210	0.000648	-0.008720	
  308	    0	9.141544	-1.881217	-1.334694	-0.686845	0.040436	-1.629469	0.091255	-0.019602	-0.013299	0.999961	-0.003434	0.000202	-0.008147	
  309	    0	9.324283	-2.077663	-1.320412	-0.523382	-0.055504	-1.577014	0.093079	-0.021545	-0.013123	0.999965	-0.002617	-0.000278	-0.007885	
  310	    0	9.570933	-2.298805	-1.375217	-0.388150	-0.074578	-1.549165	0.095532	-0.023755	-0.013671	0.999968	-0.001941	-0.000373	-0.007746	
  311	    0	9.639613	-2.724692	-1.566772	-0.348667	-0.115014	-1.539628	0.096191	-0.028015	-0.015564	0.999969	-0.001743	-0.000575	-0.007698	
  312	    0	9.715633	-3.398011	-1.201945	-0.360111	-0.132181	-1.494041	0.096907	-0.034726	-0.011893	0.999969	-0.001801	-0.000661	-0.007470	
  313	    0	9.751997	-4.091391	-0.916021	-0.318149	-0.125695	-1.433576	0.097229	-0.041626	-0.009033	0.999972	-0.001591	-0.000628	-0.007168	
  314	    0	9.698264	-4.897714	-1.414338	-0.229647	-0.147630	-1.383411	0.096651	-0.049663	-0.014015	0.999974	-0.001148	-0.000738	-0.006917	
  315	    0	9.217506	-4.935122	-2.063044	-0.135041	-0.193597	-1.354228	0.091858	-0.049988	-0.020508	0.999976	-0.000675	-0.000968	-0.006771	
  316	    0	9.290288	-4.949498	-2.748192	-0.084878	-0.244142	-1.291094	0.092614	-0.050105	-0.027348	0.999978	-0.000424	-0.001221	-0.006455	
  317	    0	9.945957	-5.114915	-3.033920	-0.003052	-0.253870	-1.225289	0.099182	-0.051758	-0.030212	0.999980	-0.000015	-0.001269	-0.006126	
  318	    0	10.390268	-5.058686	-3.062546	0.064659	-0.199319	-1.129347	0.103645	-0.051163	-0.030539	0.999983	0.000323	-0.000997	-0.005647	
  319	    0	10.434187	-4.816300	-3.121700	0.105286	-0.102806	-0.956730	0.104126	-0.048645	-0.031189	0.999988	0.000526	-0.000514	-0.004784	
  320	    0	10.393869	-4.864170	-3.486641	0.060272	0.048637	-0.658609	0.103769	-0.048973	-0.034906	0.999994	0.000301	0.000243	-0.003293	
  321	    0	9.925826	-5.335857	-4.225086	-0.057983	0.248146	-0.316620	0.099121	-0.053528	-0.042358	0.999997	-0.000290	0.001241	-0.001583	
  322	    0	9.720899	-6.045465	-5.851158	-0.113487	0.320244	0.076866	0.097138	-0.060451	-0.058633	0.999998	-0.000567	0.001601	0.000384	
  323	    0	10.957042	-8.345199	-6.536730	-0.018120	0.238800	0.598146	0.109741	-0.083130	-0.065491	0.999994	-0.000091	0.001194	0.002991	
  324	    0	13.166085	-12.458621	-4.890152	-0.688179	0.645263	1.304641	0.132313	-0.123893	-0.048901	0.999968	-0.003441	0.003226	0.006523	
  325	    0	13.746765	-12.973456	2.014194	-1.611950	1.325267	1.756341	0.138733	-0.128357	0.020264	0.999907	-0.008060	0.006626	0.008781	
  326	    0	13.985843	-12.570474	5.315025	-1.960267	1.382697	2.140137	0.141558	-0.123673	0.053394	0.999870	-0.009801	0.006913	0.010700	
  327	    0	13.666443	-12.888041	6.210935	-1.811869	1.107073	2.417859	0.138550	-0.126648	0.062500	0.999870	-0.009059	0.005535	0.012089	
  328	    0	13.431545	-6.942988	4.926052	-1.130335	0.817709	2.566810	0.135390	-0.067419	0.049093	0.999893	-0.005651	0.004088	0.012834	
  329	    0	13.763533	-1.306721	0.685812	0.337993	0.712036	2.682582	0.137817	-0.011230	0.006348	0.999902	0.001690	0.003560	0.013412	
  330	    0	13.883291	0.950850	-1.875082	1.994804	0.631745	2.746528	0.138623	0.011602	-0.019080	0.999850	0.009974	0.003159	0.013732	
  331	    0	15.204189	3.159201	-2.937855	2.789687	0.505100	2.872662	0.151489	0.034180	-0.029297	0.999796	0.013947	0.002525	0.014362	
  332	    0	18.582367	6.856470	-4.203509	2.482965	0.390270	3.172900	0.184618	0.072018	-0.041516	0.999795	0.012414	0.001951	0.015863	
  333	    0	20.657467	9.388436	-4.835052	1.342089	0.263420	3.476917	0.204834	0.097778	-0.047974	0.999825	0.006710	0.001317	0.017384	
  334	    0	20.021629	6.033557	-5.963429	-0.180256	0.272195	3.831718	0.198931	0.064101	-0.059962	0.999815	-0.000901	0.001361	0.019157	
  335	    0	19.070590	1.902609	-4.916427	-1.393798	0.453218	3.843197	0.190186	0.022339	-0.049744	0.999788	-0.006968	0.002266	0.019215	
  336	    0	19.097544	0.996801	-3.685928	-1.973674	0.401716	3.615637	0.190683	0.013050	-0.037361	0.999785	-0.009868	0.002008	0.018077	
  337	    0	19.154963	1.080664	-2.642563	-1.459401	0.286883	3.516602	0.191284	0.013977	-0.026794	0.999817	-0.007297	0.001434	0.017582	
  338	    0	18.184873	2.197456	-1.914046	-0.506809	0.213062	3.515429	0.181405	0.025117	-0.019395	0.999842	-0.002534	0.001065	0.017576	
  339	    0	16.157790	3.361362	-1.641969	0.342005	0.149544	3.470025	0.160950	0.036438	-0.016479	0.999847	0.001710	0.000748	0.017349	
  340	    0	14.330167	4.159356	-1.811626	1.097164	0.018121	3.359588	0.142573	0.044091	-0.017892	0.999844	0.005486	0.000091	0.016797	
  341	    0	12.818412	4.221747	-2.175637	1.670928	-0.140961	3.189259	0.127502	0.044434	-0.021301	0.999837	0.008354	-0.000705	0.015945	
  342	    0	11.527432	3.839205	-2.193549	2.012554	-0.383970	2.985927	0.114723	0.040324	-0.021316	0.999836	0.010062	-0.001920	0.014929	
  343	    0	10.567699	3.149757	-2.354121	2.216655	-0.667610	2.866526	0.105286	0.033264	-0.022827	0.999830	0.011083	-0.003338	0.014332	
  344	    0	10.160187	3.113187	-2.898193	2.445175	-0.812197	2.754565	0.101273	0.032876	-0.028175	0.999822	0.012225	-0.004061	0.013772	
  345	    0	9.870165	4.080723	-3.688132	2.678078	-0.874953	2.537689	0.098328	0.042542	-0.035889	0.999820	0.013390	-0.004375	0.012688	
  346	    0	9.168456	5.223886	-4.142590	2.747693	-0.979098	2.278649	0.091276	0.053839	-0.040246	0.999828	0.013738	-0.004895	0.011393	
  347	    0	7.959375	6.667894	-4.073691	2.520301	-0.998736	2.047065	0.079102	0.067993	-0.039490	0.999855	0.012601	-0.004993	0.010235	
  348	    0	6.573394	8.252546	-3.348418	2.176939	-0.994147	1.812621	0.065143	0.083473	-0.032254	0.999887	0.010884	-0.004971	0.009063	
  349	    0	5.593029	8.638935	-2.347263	1.875549	-0.930813	1.560256	0.055359	0.087036	-0.022400	0.999914	0.009377	-0.004654	0.007801	
  350	    0	4.738134	8.486030	-2.247745	1.370073	-0.840965	1.291679	0.046924	0.085315	-0.021696	0.999947	0.006850	-0.004205	0.006458	
  351	    0	3.844173	8.167457	-2.209394	0.802811	-0.831613	1.090252	0.038086	0.081970	-0.021606	0.999968	0.004014	-0.004158	0.005451	
  352	    0	2.894933	7.944203	-1.416482	0.447276	-0.765233	0.883871	0.028651	0.079600	-0.013877	0.999980	0.002236	-0.003826	0.004419	
  353	    0	2.534031	7.748449	-0.259174	0.483897	-0.673679	0.678256	0.025085	0.077576	-0.002319	0.999985	0.002419	-0.003368	0.003391	
  354	    0	2.672418	7.079515	0.636103	0.676349	-0.608447	0.496485	0.026528	0.070839	0.006681	0.999986	0.003382	-0.003042	0.002482	
  355	    0	3.277072	6.211260	0.793183	0.692942	-0.566866	0.302125	0.032654	0.062134	0.008240	0.999989	0.003465	-0.002834	0.001511	
  356	    0	3.973145	5.551727	0.532178	0.469399	-0.519181	0.098038	0.039690	0.055524	0.005555	0.999993	0.002347	-0.002596	0.000490	
  357	    0	4.598468	4.532109	-0.162425	-0.136566	-0.562096	-0.138855	0.046021	0.045288	-0.001526	0.999995	-0.000683	-0.002810	-0.000694	
  358	    0	5.370708	3.270044	0.036528	-0.596430	-0.592615	-0.405122	0.053772	0.032593	0.000427	0.999989	-0.002982	-0.002963	-0.002026	
  359	    0	5.601366	1.192596	0.795716	-0.676730	-0.498011	-0.618747	0.056030	0.011780	0.008057	0.999986	-0.003384	-0.002490	-0.003094	
  360	    0	6.206908	-1.664557	0.210164	-1.161585	-0.396923	-0.687414	0.062007	-0.016846	0.002322	0.999973	-0.005808	-0.001985	-0.003437	
  361	    0	7.212443	-4.892791	-0.334483	-1.303685	-0.263980	-0.684363	0.071960	-0.049194	-0.002930	0.999971	-0.006518	-0.001320	-0.003422	
  362	    0	9.005700	-8.848882	-0.885313	-0.845341	0.000000	-0.665668	0.089762	-0.088824	-0.008478	0.999984	-0.004227	0.000000	-0.003328	
  363	    0	10.662720	-12.400313	-1.415188	-0.380708	0.230599	-0.561525	0.106262	-0.124329	-0.014038	0.999993	-0.001904	0.001153	-0.002808	
  364	    0	11.568349	-16.124846	-2.910244	-0.157166	0.108910	-0.462342	0.115294	-0.161538	-0.029038	0.999996	-0.000786	0.000545	-0.002312	
  365	    0	11.670356	-19.268864	-4.840843	0.241852	-0.203514	-0.308991	0.116455	-0.192810	-0.048523	0.999997	0.001209	-0.001018	-0.001545	
  366	    0	11.270308	-19.487034	-6.880483	0.495530	-0.342179	-0.119972	0.112704	-0.194767	-0.069095	0.999995	0.002478	-0.001711	-0.000600	
  367	    0	10.941177	-15.861341	-6.320842	0.529481	-0.276757	-0.003052	0.109497	-0.158447	-0.063477	0.999995	0.002647	-0.001384	-0.000015	
  368	    0	10.203992	-11.165369	-4.462078	0.637819	0.010872	0.133324	0.102112	-0.111443	-0.044982	0.999994	0.003189	0.000054	0.000667	
  369	    0	8.894295	-7.281745	-3.470052	0.758555	0.267793	0.256348	0.088989	-0.072571	-0.035095	0.999990	0.003793	0.001339	0.001282	
  370	    0	8.476655	-3.117605	-3.601694	0.823214	0.327684	0.178338	0.084735	-0.030951	-0.036283	0.999990	0.004116	0.001638	0.000892	
  371	    0	10.652163	4.216700	-5.409955	0.902561	0.086403	-0.327302	0.106567	0.042236	-0.053955	0.999988	0.004513	0.000432	-0.001637	
  372	    0	12.605463	12.014219	-6.695494	0.374414	-0.036240	-0.816920	0.126556	0.119751	-0.066708	0.999990	0.001872	-0.000181	-0.004085	
  373	    0	11.257736	9.630937	-3.240196	-0.666049	0.204659	-0.773624	0.112915	0.095764	-0.032837	0.999986	-0.003330	0.001023	-0.003868	
  374	    0	11.862797	-1.398250	-0.372585	-0.864033	0.370409	-0.430872	0.118590	-0.014255	-0.003884	0.999986	-0.004320	0.001852	-0.002154	
  375	    0	14.186704	-11.705354	-1.011305	-0.210571	0.028420	-0.346375	0.141663	-0.117310	-0.010010	0.999997	-0.001053	0.000142	-0.001732	
  376	    0	16.365298	-15.976780	-4.650707	1.256572	-0.049019	-0.699622	0.163105	-0.160043	-0.047472	0.999973	0.006283	-0.000245	-0.003498	
  377	    0	15.324424	-9.748882	-1.554446	2.549062	0.229843	-1.052890	0.152710	-0.098083	-0.016968	0.999904	0.012745	0.001149	-0.005264	
  378	    0	13.430364	0.108597	1.682820	3.230636	0.035288	-1.202643	0.134309	0.000007	0.016810	0.999851	0.016152	0.000176	-0.006013	
  379	    0	12.192217	6.357893	0.535816	3.465662	-0.432612	-1.288679	0.122314	0.062683	0.006714	0.999826	0.017327	-0.002163	-0.006443	
  380	    0	11.105855	12.989932	0.573039	2.108442	-0.762388	-1.271283	0.111855	0.129117	0.007520	0.999916	0.010542	-0.003812	-0.006356	
  381	    0	10.028149	14.004314	0.120170	0.074959	-0.902565	-1.145182	0.101074	0.139465	0.001709	0.999973	0.000375	-0.004513	-0.005726	
  382	    0	8.770618	11.278469	-2.950547	-1.147475	-0.889217	-0.930035	0.088361	0.112205	-0.029758	0.999963	-0.005737	-0.004446	-0.004650	
  383	    0	7.629157	6.862777	-5.484748	-1.739533	-0.688756	-0.884263	0.076782	0.067810	-0.055176	0.999946	-0.008698	-0.003444	-0.004421	
  384	    0	6.966329	4.485513	-5.799421	-1.891365	-0.412186	-1.056311	0.070017	0.043936	-0.058269	0.999939	-0.009457	-0.002061	-0.005281	
  385	    0	7.564923	3.063910	-5.257970	-1.884311	-0.337227	-1.264981	0.075928	0.029663	-0.052734	0.999933	-0.009421	-0.001686	-0.006325	
  386	    0	8.525209	2.289947	-5.956974	-1.934098	-0.445949	-1.365313	0.085536	0.021740	-0.059593	0.999927	-0.009670	-0.002230	-0.006826	
  387	    0	9.498633	1.691484	-7.321377	-1.699865	-0.483523	-1.403838	0.095276	0.015625	-0.073120	0.999936	-0.008499	-0.002418	-0.007019	
  388	    0	9.970009	-0.096123	-7.898783	-1.461819	-0.362594	-1.461628	0.099830	-0.002267	-0.078794	0.999945	-0.007309	-0.001813	-0.007308	
  389	    0	10.050146	-2.197203	-6.631108	-1.421382	-0.217251	-1.496151	0.100403	-0.023193	-0.066040	0.999946	-0.007107	-0.001086	-0.007481	
  390	    0	10.140616	-3.622193	-4.716547	-1.425388	-0.228695	-1.508740	0.101181	-0.037320	-0.046786	0.999945	-0.007127	-0.001143	-0.007544	
  391	    0	9.581644	-3.700143	-3.512235	-1.246474	-0.331884	-1.557949	0.095581	-0.037964	-0.034729	0.999949	-0.006232	-0.001659	-0.007790	
  392	    0	9.067823	-2.768250	-3.199097	-1.037615	-0.377089	-1.657323	0.090504	-0.028598	-0.031673	0.999950	-0.005188	-0.001885	-0.008286	
  393	    0	8.870869	-1.551708	-3.098666	-0.915351	-0.341039	-1.715116	0.088623	-0.016418	-0.030762	0.999950	-0.004577	-0.001705	-0.008575	
  394	    0	8.760731	-0.466733	-2.845595	-0.910202	-0.272374	-1.754027	0.087600	-0.005565	-0.028313	0.999949	-0.004551	-0.001362	-0.008770	
  395	    0	8.546011	0.296114	-2.541582	-1.006907	-0.229649	-1.773865	0.085510	0.002075	-0.025330	0.999947	-0.005034	-0.001148	-0.008869	
  396	    0	8.534942	0.697089	-2.282664	-1.168082	-0.177578	-1.777492	0.085426	0.006079	-0.022788	0.999943	-0.005840	-0.000888	-0.008887	
  397	    0	8.776571	0.617150	-2.309222	-1.320484	-0.131228	-1.754033	0.087830	0.005249	-0.023071	0.999939	-0.006602	-0.000656	-0.008770	
  398	    0	9.018020	0.078395	-2.745701	-1.422912	-0.090410	-1.734961	0.090194	-0.000194	-0.027417	0.999936	-0.007114	-0.000452	-0.008675	
  399	    0	9.032945	-0.708792	-3.212851	-1.408226	-0.067140	-1.780739	0.090271	-0.008118	-0.032043	0.999935	-0.007041	-0.000336	-0.008904	
  400	    0	9.115640	-1.193114	-3.308046	-1.361686	-0.044251	-1.841967	0.091047	-0.012995	-0.032974	0.999934	-0.006808	-0.000221	-0.009210	
  401	    0	9.156535	-1.387383	-3.099495	-1.395448	-0.020409	-1.889082	0.091431	-0.014954	-0.030884	0.999930	-0.006977	-0.000102	-0.009445	
  402	    0	9.260223	-1.407469	-2.990398	-1.449048	-0.020791	-1.915406	0.092463	-0.015177	-0.029787	0.999928	-0.007245	-0.000104	-0.009577	
  403	    0	9.210116	-1.171867	-2.634137	-1.429021	-0.015831	-1.979877	0.091980	-0.012817	-0.026245	0.999925	-0.007145	-0.000079	-0.009899	
  404	    0	9.068213	-0.810188	-2.340473	-1.351008	0.020600	-2.003719	0.090591	-0.009168	-0.023355	0.999927	-0.006755	0.000103	-0.010018	
  405	    0	8.927990	-0.302597	-2.103588	-1.158167	0.095560	-1.973005	0.089233	-0.004028	-0.021057	0.999934	-0.005791	0.000478	-0.009865	
  406	    0	9.035217	-0.255970	-1.499354	-0.923746	0.138285	-1.877628	0.090312	-0.003477	-0.015041	0.999945	-0.004619	0.000691	-0.009388	
  407	    0	9.128756	-1.020444	-1.231767	-0.854315	0.125887	-1.732663	0.091187	-0.011047	-0.012329	0.999952	-0.004272	0.000629	-0.008663	
  408	    0	9.053289	-1.791433	-1.446036	-0.805866	0.025559	-1.610396	0.090383	-0.018701	-0.014398	0.999959	-0.004029	0.000128	-0.008052	
  409	    0	9.349247	-2.187857	-1.364477	-0.733766	-0.027466	-1.532764	0.093323	-0.022644	-0.013550	0.999964	-0.003669	-0.000137	-0.007664	
  410	    0	9.727828	-2.246249	-0.991311	-0.570303	-0.001907	-1.509301	0.097105	-0.023224	-0.009847	0.999967	-0.002851	-0.000010	-0.007546	
  411	    0	9.611172	-2.140892	-0.903589	-0.385288	-0.044823	-1.519791	0.095947	-0.022156	-0.008972	0.999969	-0.001926	-0.000224	-0.007599	
  412	    0	9.359085	-2.180370	-1.052924	-0.291064	-0.105477	-1.522461	0.093427	-0.022531	-0.010448	0.999969	-0.001455	-0.000527	-0.007612	
  413	    0	9.478073	-2.472813	-1.311988	-0.274661	-0.179102	-1.490798	0.094604	-0.025452	-0.013000	0.999970	-0.001373	-0.000896	-0.007454	
  414	    0	9.716311	-3.099562	-1.525716	-0.304606	-0.235941	-1.445974	0.096953	-0.031720	-0.015095	0.999971	-0.001523	-0.001180	-0.007230	
  415	    0	9.631824	-3.879355	-1.710694	-0.341609	-0.276949	-1.387799	0.096069	-0.039490	-0.016907	0.999973	-0.001708	-0.001385	-0.006939	
  416	    0	9.443997	-4.561671	-2.247037	-0.319102	-0.264742	-1.355946	0.094157	-0.046291	-0.022272	0.999974	-0.001595	-0.001324	-0.006780	
  417	    0	9.465790	-5.148102	-2.808165	-0.207330	-0.285342	-1.300059	0.094360	-0.052124	-0.027893	0.999977	-0.001037	-0.001427	-0.006500	
  418	    0	9.647034	-5.460692	-2.812801	-0.094987	-0.257494	-1.235398	0.096167	-0.055215	-0.027978	0.999980	-0.000475	-0.001287	-0.006177	
  419	    0	9.884120	-5.464548	-2.755982	0.046540	-0.216485	-1.087957	0.098572	-0.055176	-0.027466	0.999984	0.000233	-0.001082	-0.005440	
  420	    0	10.142734	-5.279157	-2.792270	0.130272	-0.104142	-0.792887	0.101232	-0.053175	-0.027905	0.999991	0.000651	-0.000521	-0.003964	
  421	    0	10.187601	-5.154117	-2.947068	0.086975	0.094032	-0.450898	0.101746	-0.051758	-0.029541	0.999997	0.000435	0.000470	-0.002254	
  422	    0	9.812638	-5.169120	-4.085341	-0.042534	0.324059	-0.038338	0.098050	-0.051719	-0.041001	0.999998	-0.000213	0.001620	-0.000192	
  423	    0	9.837474	-6.267952	-5.494381	-0.275994	0.399018	0.395203	0.098389	-0.062561	-0.055054	0.999994	-0.001380	0.001995	0.001976	
  424	    0	11.689203	-10.025230	-5.103084	-0.520328	0.314142	0.980383	0.117302	-0.099811	-0.050955	0.999983	-0.002602	0.001571	0.004902	
  425	    0	13.891205	-14.031796	-2.401456	-1.407656	0.843259	1.722758	0.140015	-0.139282	-0.023621	0.999928	-0.007038	0.004216	0.008614	
  426	    0	14.159989	-13.609517	6.134578	-2.628292	1.665024	2.153334	0.143562	-0.133745	0.061924	0.999821	-0.013141	0.008325	0.010766	
  427	    0	13.525032	-11.305476	6.936154	-2.299630	1.556676	2.431626	0.137146	-0.110596	0.069580	0.999829	-0.011497	0.007783	0.012157	
  428	    0	12.733886	-11.130820	5.208564	-1.675492	1.180131	2.623488	0.129088	-0.109185	0.052248	0.999861	-0.008377	0.005900	0.013117	
  429	    0	12.839369	-5.321503	2.941678	-0.697923	0.846129	2.670381	0.129211	-0.051392	0.029053	0.999895	-0.003489	0.004230	0.013351	
  430	    0	13.484325	0.440246	-1.284240	1.063957	0.590536	2.664471	0.134729	0.006268	-0.013210	0.999892	0.005320	0.002953	0.013322	
  431	    0	15.200512	1.687708	-4.815312	2.456238	0.548586	2.797101	0.151611	0.019592	-0.048340	0.999823	0.012280	0.002743	0.013985	
  432	    0	17.699068	3.759899	-5.514444	2.686495	0.641104	2.989975	0.176218	0.040978	-0.055175	0.999792	0.013432	0.003205	0.014949	
  433	    0	19.970426	6.731959	-5.402096	2.131026	0.559461	3.230491	0.198425	0.071106	-0.053833	0.999808	0.010654	0.002797	0.016151	
  434	    0	20.907401	5.223836	-7.057990	0.549729	0.481442	3.618637	0.207911	0.056202	-0.070930	0.999829	0.002748	0.002407	0.018092	
  435	    0	19.112726	1.816793	-6.675476	-0.848443	0.567854	3.776028	0.190552	0.021484	-0.067383	0.999808	-0.004242	0.002839	0.018879	
  436	    0	18.932045	0.126144	-5.276229	-1.544674	0.483927	3.657585	0.189132	0.004312	-0.053246	0.999800	-0.007723	0.002419	0.018287	
  437	    0	19.720380	-0.035551	-4.279214	-1.277237	0.415255	3.550170	0.197083	0.002869	-0.043213	0.999820	-0.006386	0.002076	0.017750	
  438	    0	18.992364	1.759129	-4.025289	-0.233853	0.402853	3.490819	0.189497	0.020854	-0.040658	0.999845	-0.001169	0.002014	0.017453	
  439	    0	17.277589	3.200677	-3.879667	0.666843	0.369472	3.433404	0.172119	0.035095	-0.039001	0.999845	0.003334	0.001847	0.017166	
  440	    0	15.514208	4.188898	-3.770722	1.342846	0.309961	3.320682	0.154357	0.044709	-0.037653	0.999838	0.006714	0.001550	0.016603	
  441	    0	13.596085	4.485846	-3.240209	1.813799	0.183116	3.177057	0.135193	0.047302	-0.032104	0.999832	0.009068	0.000916	0.015884	
  442	    0	11.754205	4.361513	-2.892755	1.937595	-0.215543	3.139102	0.116866	0.045730	-0.028365	0.999829	0.009687	-0.001078	0.015695	
  443	    0	11.097896	3.711077	-3.079882	1.935688	-0.607907	3.107631	0.110474	0.039124	-0.030090	0.999827	0.009678	-0.003039	0.015537	
  444	    0	10.954143	3.856980	-3.509534	2.107549	-0.760312	2.927946	0.109089	0.040533	-0.034260	0.999829	0.010537	-0.003801	0.014639	
  445	    0	10.594620	4.144749	-3.927724	2.392905	-0.825548	2.697145	0.105530	0.043335	-0.038330	0.999828	0.011964	-0.004128	0.013485	
  446	    0	9.472578	4.852265	-4.438926	2.509636	-0.902797	2.450314	0.094315	0.050228	-0.043340	0.999836	0.012547	-0.004514	0.012251	
  447	    0	8.081046	6.459875	-4.041252	2.456786	-0.900122	2.221026	0.080261	0.065979	-0.039246	0.999852	0.012283	-0.004500	0.011105	
  448	    0	7.023712	8.035345	-2.732688	2.256298	-0.947992	2.030649	0.069540	0.081361	-0.026082	0.999873	0.011281	-0.004740	0.010153	
  449	    0	6.543941	8.935489	-2.364702	1.932588	-0.977166	1.763973	0.064758	0.090149	-0.022461	0.999902	0.009663	-0.004886	0.008820	
  450	    0	5.640107	8.790233	-2.464988	1.450570	-0.931760	1.486810	0.055857	0.088493	-0.023748	0.999935	0.007253	-0.004659	0.007434	
  451	    0	4.370864	8.599345	-2.369606	0.885975	-0.836955	1.234452	0.043274	0.086365	-0.023132	0.999962	0.004430	-0.004185	0.006172	
  452	    0	3.235365	8.513666	-1.170401	0.572209	-0.765044	1.000412	0.031971	0.085330	-0.011337	0.999975	0.002861	-0.003825	0.005002	
  453	    0	2.584134	8.340135	0.116039	0.691990	-0.598720	0.777440	0.025513	0.083496	0.001526	0.999982	0.003460	-0.002994	0.003887	
  454	    0	2.278245	7.583847	0.719715	0.894170	-0.392916	0.577739	0.022549	0.075871	0.007581	0.999984	0.004471	-0.001965	0.002889	
  455	    0	2.359460	7.137552	0.419283	0.642397	-0.284386	0.422670	0.023438	0.071411	0.004456	0.999991	0.003212	-0.001422	0.002113	
  456	    0	2.754385	6.688197	0.250298	-0.007820	-0.313568	0.264168	0.027452	0.066918	0.002543	0.999997	-0.000039	-0.001568	0.001321	
  457	    0	3.809702	5.840061	0.268640	-0.417901	-0.315857	0.023651	0.038086	0.058411	0.002625	0.999996	-0.002090	-0.001579	0.000118	
  458	    0	4.451606	3.896968	1.198375	-0.306320	-0.272751	-0.213814	0.044541	0.038940	0.011985	0.999997	-0.001532	-0.001364	-0.001069	
  459	    0	4.755269	1.353849	1.574659	-0.450135	-0.386620	-0.358582	0.047546	0.013489	0.015808	0.999993	-0.002251	-0.001933	-0.001793	
  460	    0	5.712965	-1.666661	1.249223	-0.697902	-0.537112	-0.481226	0.057055	-0.016760	0.012704	0.999986	-0.003489	-0.002686	-0.002406	
  461	    0	7.470826	-5.422017	0.368110	-0.641445	-0.627139	-0.632480	0.074524	-0.054443	0.004089	0.999985	-0.003207	-0.003136	-0.003162	
  462	    0	8.840676	-9.247552	-1.166920	-0.544551	-0.584605	-0.715831	0.088108	-0.092822	-0.011159	0.999985	-0.002723	-0.002923	-0.003579	
  463	    0	9.608013	-11.762889	-2.912277	-0.459100	-0.345613	-0.724032	0.095703	-0.118042	-0.028687	0.999989	-0.002295	-0.001728	-0.003620	
  464	    0	10.741274	-13.758957	-3.961270	-0.155068	-0.204468	-0.645830	0.107008	-0.137966	-0.039396	0.999993	-0.000775	-0.001022	-0.003229	
  465	    0	11.588003	-15.605583	-5.098612	0.304604	-0.343323	-0.469972	0.115601	-0.156250	-0.051025	0.999994	0.001523	-0.001717	-0.002350	
  466	    0	11.312171	-16.288352	-6.630910	0.508500	-0.429154	-0.294114	0.113025	-0.162881	-0.066481	0.999993	0.002542	-0.002146	-0.001471	
  467	    0	10.352059	-14.188915	-6.343246	0.389290	-0.330353	-0.154877	0.103516	-0.141846	-0.063538	0.999996	0.001946	-0.001652	-0.000774	
  468	    0	9.699931	-10.519099	-4.718794	0.438118	-0.168228	0.023842	0.097052	-0.105076	-0.047337	0.999997	0.002191	-0.000841	0.000119	
  469	    0	9.283534	-7.366465	-3.512594	0.553132	0.021553	0.173950	0.092896	-0.073486	-0.035339	0.999995	0.002766	0.000108	0.000870	
  470	    0	9.235949	-3.994489	-3.710677	0.535584	0.183487	0.104714	0.092346	-0.039797	-0.037298	0.999995	0.002678	0.000917	0.000524	
  471	    0	11.451846	2.887277	-5.980779	0.507546	0.032806	-0.376893	0.114563	0.028809	-0.059753	0.999994	0.002538	0.000164	-0.001884	
  472	    0	14.104910	10.512934	-6.802735	0.063324	-0.008202	-0.922397	0.141535	0.104499	-0.067988	0.999989	0.000317	-0.000041	-0.004612	
  473	    0	12.653745	8.747536	-1.458266	-0.682835	0.501445	-0.901037	0.126892	0.086853	-0.015198	0.999980	-0.003414	0.002507	-0.004505	
  474	    0	13.300808	-2.313396	3.051862	-0.801091	0.669101	-0.429346	0.133060	-0.023298	0.030167	0.999984	-0.004005	0.003345	-0.002147	
  475	    0	15.766480	-12.606935	1.667296	-0.259972	0.066376	-0.219727	0.157532	-0.126221	0.016785	0.999998	-0.001300	0.000332	-0.001099	
  476	    0	16.837038	-14.819149	-3.244611	1.214037	0.012589	-0.645070	0.167890	-0.148533	-0.033358	0.999976	0.006070	0.000063	-0.003225	
  477	    0	15.374746	-9.575194	-2.975757	2.529415	0.202948	-1.078831	0.153198	-0.096191	-0.031128	0.999905	0.012647	0.001015	-0.005394	
  478	    0	13.802591	-0.716391	-0.136704	2.979218	0.133711	-1.272448	0.137976	-0.008019	-0.001575	0.999868	0.014895	0.000669	-0.006362	
  479	    0	12.446531	5.808478	-0.408341	3.052093	-0.246441	-1.419898	0.124878	0.057251	-0.003052	0.999857	0.015260	-0.001232	-0.007099	
  480	    0	10.727461	12.037378	-0.869868	1.975112	-0.589768	-1.438942	0.108160	0.119674	-0.007196	0.999921	0.009875	-0.002949	-0.007195	
  481	    0	9.837418	12.530850	-0.713271	0.151063	-0.779541	-1.251232	0.099182	0.124695	-0.006653	0.999972	0.000755	-0.003898	-0.006256	
  482	    0	8.557355	10.384561	-2.677449	-0.884256	-0.782402	-1.036845	0.086215	0.103281	-0.026896	0.999969	-0.004421	-0.003912	-0.005184	
  483	    0	7.300761	7.183474	-4.875785	-1.481461	-0.749981	-0.998703	0.073547	0.071106	-0.049011	0.999952	-0.007407	-0.003750	-0.004993	
  484	    0	6.409034	4.299491	-6.088802	-1.834716	-0.570309	-1.097702	0.064497	0.042082	-0.061093	0.999938	-0.009173	-0.002851	-0.005488	
  485	    0	6.579967	2.744926	-5.672083	-1.896520	-0.458537	-1.277190	0.066101	0.026489	-0.056824	0.999931	-0.009482	-0.002293	-0.006386	
  486	    0	7.953464	2.067965	-5.667073	-1.966336	-0.523962	-1.428259	0.079825	0.019553	-0.056658	0.999922	-0.009831	-0.002620	-0.007141	
  487	    0	9.423311	1.828547	-6.595364	-1.827857	-0.541700	-1.515235	0.094543	0.016968	-0.065857	0.999926	-0.009139	-0.002708	-0.007576	
  488	    0	9.879116	0.959501	-7.127525	-1.585804	-0.387010	-1.614034	0.098999	0.008232	-0.071153	0.999933	-0.007929	-0.001935	-0.008070	
  489	    0	10.057586	-0.742061	-6.268948	-1.509126	-0.252348	-1.660954	0.100586	-0.008728	-0.062500	0.999936	-0.007545	-0.001262	-0.008305	
  490	    0	10.350399	-2.128925	-4.599976	-1.422721	-0.229459	-1.716840	0.103367	-0.022503	-0.045724	0.999937	-0.007113	-0.001147	-0.008584	
  491	    0	9.932350	-2.773248	-3.309638	-1.244951	-0.289160	-1.757084	0.099121	-0.028809	-0.032776	0.999941	-0.006225	-0.001446	-0.008785	
  492	    0	9.309088	-2.689354	-2.822601	-1.064511	-0.363929	-1.788554	0.092896	-0.027874	-0.027910	0.999944	-0.005322	-0.001820	-0.008943	
  493	    0	9.106285	-1.843706	-2.931329	-0.919168	-0.379951	-1.842532	0.090942	-0.019409	-0.029053	0.999945	-0.004596	-0.001900	-0.009212	
  494	    0	8.905012	-0.639633	-2.838793	-0.952358	-0.376327	-1.908340	0.089036	-0.007380	-0.028187	0.999941	-0.004762	-0.001882	-0.009542	
  495	    0	8.572827	0.440480	-2.814983	-1.160265	-0.364693	-1.921123	0.085815	0.003418	-0.028015	0.999935	-0.005801	-0.001823	-0.009605	
  496	    0	8.586712	1.155811	-2.900538	-1.391062	-0.300987	-1.913116	0.086015	0.010534	-0.028952	0.999928	-0.006955	-0.001505	-0.009565	
  497	    0	8.906766	1.469219	-3.081214	-1.528969	-0.215727	-1.896715	0.089233	0.013611	-0.030823	0.999925	-0.007645	-0.001079	-0.009483	
  498	    0	9.202432	1.218676	-3.338268	-1.571504	-0.083735	-1.899767	0.092147	0.011049	-0.033434	0.999924	-0.007857	-0.000419	-0.009499	
  499	    0	9.220660	0.280748	-3.452437	-1.623578	0.010872	-1.906636	0.092224	0.001648	-0.034546	0.999921	-0.008118	0.000054	-0.009533	
  500	    0	9.121235	-0.925596	-3.331582	-1.708650	0.064279	-1.936394	0.091105	-0.010423	-0.033259	0.999916	-0.008543	0.000321	-0.009682	
  501	    0	9.141235	-2.090514	-3.269139	-1.798874	0.077822	-1.964627	0.091187	-0.022095	-0.032532	0.999910	-0.008994	0.000389	-0.009823	
  502	    0	9.137090	-2.815241	-2.741427	-1.708079	0.094035	-1.978549	0.091072	-0.029287	-0.027210	0.999914	-0.008540	0.000470	-0.009892	
  503	    0	8.966025	-2.922500	-2.415768	-1.470984	0.110057	-1.948596	0.089355	-0.030273	-0.023987	0.999925	-0.007355	0.000550	-0.009743	
  504	    0	8.814270	-2.692209	-2.546827	-1.182771	0.111773	-1.864090	0.087872	-0.027892	-0.025354	0.999938	-0.005914	0.000559	-0.009320	
  505	    0	8.970257	-2.458512	-2.216944	-0.885024	0.081827	-1.716640	0.089478	-0.025452	-0.022095	0.999953	-0.004425	0.000409	-0.008583	
  506	    0	9.248742	-2.811246	-1.810725	-0.718889	0.014687	-1.569767	0.092261	-0.028902	-0.018011	0.999962	-0.003594	0.000073	-0.007849	
  507	    0	9.107264	-3.407763	-1.821986	-0.559050	0.009155	-1.455703	0.090820	-0.034790	-0.018127	0.999969	-0.002795	0.000046	-0.007278	
  508	    0	8.857536	-3.348541	-1.813815	-0.366214	-0.013161	-1.407063	0.088338	-0.034141	-0.018070	0.999973	-0.001831	-0.000066	-0.007035	
  509	    0	8.991332	-2.686474	-1.805383	-0.194361	-0.048829	-1.435865	0.089722	-0.027527	-0.018005	0.999973	-0.000972	-0.000244	-0.007179	
  510	    0	9.335579	-2.070839	-1.671493	-0.033188	-0.045395	-1.474203	0.093204	-0.021399	-0.016690	0.999972	-0.000166	-0.000227	-0.007371	
  511	    0	9.503038	-1.637742	-1.541621	0.014687	-0.077058	-1.503005	0.094910	-0.017090	-0.015381	0.999971	0.000073	-0.000385	-0.007515	
  512	    0	9.644835	-1.407495	-1.703342	0.032044	-0.117303	-1.492514	0.096350	-0.014791	-0.016979	0.999971	0.000160	-0.000587	-0.007463	
  513	    0	9.986428	-1.921234	-1.238614	-0.224879	-0.192263	-1.467909	0.099731	-0.019958	-0.012268	0.999971	-0.001124	-0.000961	-0.007339	
  514	    0	10.364213	-3.111855	-0.794479	-0.436405	-0.185014	-1.389325	0.103430	-0.031855	-0.007780	0.999972	-0.002182	-0.000925	-0.006947	
  515	    0	10.192315	-3.694390	-1.156866	-0.491147	-0.244143	-1.349652	0.101685	-0.037659	-0.011353	0.999973	-0.002456	-0.001221	-0.006748	
  516	    0	9.951509	-4.322187	-1.917675	-0.501446	-0.225451	-1.312458	0.099250	-0.043921	-0.018955	0.999974	-0.002507	-0.001127	-0.006562	
  517	    0	9.701492	-4.639782	-2.580507	-0.389674	-0.163270	-1.260385	0.096741	-0.047058	-0.025635	0.999977	-0.001948	-0.000816	-0.006302	
  518	    0	9.717635	-4.890196	-2.746807	-0.248338	-0.155641	-1.203354	0.096901	-0.049520	-0.027331	0.999980	-0.001242	-0.000778	-0.006017	
  519	    0	9.722580	-4.824775	-2.455060	-0.037956	-0.136567	-1.060491	0.096985	-0.048767	-0.024475	0.999985	-0.000190	-0.000683	-0.005302	
  520	    0	9.761862	-4.508969	-2.370071	0.193406	-0.070381	-0.825694	0.097440	-0.045469	-0.023710	0.999990	0.000967	-0.000352	-0.004128	
  521	    0	9.801166	-4.409970	-2.306629	0.284577	0.006294	-0.499726	0.097900	-0.044312	-0.023132	0.999995	0.001423	0.000031	-0.002499	
  522	    0	9.639968	-4.447602	-2.471935	0.190353	0.143433	-0.123215	0.096354	-0.044512	-0.024831	0.999999	0.000952	0.000717	-0.000616	
  523	    0	9.605304	-4.719259	-3.998106	-0.045776	0.270271	0.299072	0.096069	-0.047058	-0.040100	0.999997	-0.000229	0.001351	0.001495	
  524	    0	10.860781	-6.411095	-5.456403	-0.357057	0.287820	0.793651	0.108783	-0.063777	-0.054606	0.999989	-0.001785	0.001439	0.003968	
  525	    0	12.956620	-10.399269	-3.988889	-0.963415	0.528724	1.404590	0.130188	-0.103271	-0.039734	0.999960	-0.004817	0.002644	0.007023	
  526	    0	13.708042	-13.181317	1.628211	-1.582767	0.977737	2.009455	0.138475	-0.130296	0.016643	0.999906	-0.007914	0.004889	0.010047	
  527	    0	14.506320	-14.280044	5.886259	-2.041548	1.583187	2.562092	0.147339	-0.140320	0.059143	0.999834	-0.010207	0.007915	0.012810	
  528	    0	13.514715	-11.473758	6.742570	-1.656434	1.760009	2.752458	0.137296	-0.112301	0.067161	0.999832	-0.008282	0.008800	0.013762	
  529	    0	12.358418	-7.581210	4.608836	-0.992438	1.389374	2.783327	0.124939	-0.073853	0.045593	0.999866	-0.004962	0.006947	0.013916	
  530	    0	12.786056	-3.462638	0.888040	0.155264	0.836974	2.801995	0.128365	-0.032837	0.008318	0.999892	0.000776	0.004185	0.014009	
  531	    0	13.730125	0.399258	-1.241489	1.551881	0.379387	2.667344	0.137207	0.005920	-0.012634	0.999879	0.007759	0.001897	0.013336	
  532	    0	16.479196	3.115880	-3.541704	2.340636	0.156411	2.761229	0.164310	0.033842	-0.035160	0.999835	0.011703	0.000782	0.013805	
  533	    0	20.490012	6.767080	-6.147451	2.535608	0.263232	3.085533	0.203735	0.071594	-0.060852	0.999800	0.012677	0.001316	0.015427	
  534	    0	22.464349	7.751648	-7.525548	1.625161	0.493652	3.438779	0.223074	0.081972	-0.075153	0.999816	0.008125	0.002468	0.017193	
  535	    0	20.309427	3.852682	-7.777549	-0.016786	0.583112	3.792042	0.202087	0.042358	-0.078369	0.999816	-0.000084	0.002915	0.018959	
  536	    0	18.262691	1.501680	-6.709216	-1.480016	0.556603	3.786162	0.182117	0.017968	-0.067725	0.999789	-0.007400	0.002783	0.018929	
  537	    0	19.193265	0.842268	-4.928053	-2.034145	0.372532	3.645592	0.191650	0.011414	-0.049744	0.999780	-0.010170	0.001863	0.018227	
  538	    0	19.550908	1.318604	-4.271555	-1.257783	0.386071	3.603393	0.195149	0.016434	-0.043189	0.999816	-0.006289	0.001930	0.018016	
  539	    0	17.839774	2.276589	-4.231620	-0.060275	0.450349	3.579906	0.177856	0.025940	-0.042725	0.999837	-0.000301	0.002252	0.017899	
  540	    0	15.796805	2.497658	-3.599265	0.750774	0.461032	3.528789	0.157410	0.027893	-0.036255	0.999834	0.003754	0.002305	0.017643	
  541	    0	14.125553	3.250670	-2.931772	1.343803	0.347157	3.397369	0.140623	0.035096	-0.029332	0.999830	0.006719	0.001736	0.016986	
  542	    0	12.476300	4.054720	-2.692830	1.773553	0.039294	3.234284	0.124078	0.042794	-0.026580	0.999829	0.008867	0.000196	0.016171	
  543	    0	11.048502	4.243513	-2.886789	2.000734	-0.421167	3.114499	0.109863	0.044434	-0.028198	0.999826	0.010003	-0.002106	0.015572	
  544	    0	10.315997	4.084192	-3.187141	2.149327	-0.723882	3.003679	0.102641	0.042723	-0.031047	0.999823	0.010746	-0.003619	0.015018	
  545	    0	10.237436	4.549267	-3.705345	2.389860	-0.829365	2.813889	0.101868	0.047363	-0.036072	0.999821	0.011949	-0.004147	0.014069	
  546	    0	9.733206	4.971362	-4.259653	2.624476	-0.877241	2.546460	0.096868	0.051498	-0.041503	0.999823	0.013122	-0.004386	0.012732	
  547	    0	8.595286	5.617318	-4.540860	2.633047	-0.945143	2.284365	0.085510	0.057739	-0.044250	0.999837	0.013165	-0.004725	0.011421	
  548	    0	7.412682	7.152224	-3.752192	2.485010	-0.960014	2.041722	0.073565	0.072731	-0.036269	0.999859	0.012424	-0.004800	0.010208	
  549	    0	6.489069	8.395374	-2.830630	2.250758	-0.980987	1.786873	0.064270	0.084839	-0.027039	0.999885	0.011253	-0.004905	0.008934	
  550	    0	5.757602	9.410521	-2.414898	1.907785	-0.985365	1.514097	0.056975	0.094761	-0.022965	0.999913	0.009539	-0.004927	0.007570	
  551	    0	4.756652	9.200021	-2.684038	1.336121	-0.942247	1.237509	0.047119	0.092468	-0.026001	0.999947	0.006680	-0.004711	0.006187	
  552	    0	3.840515	8.997821	-1.969306	0.719649	-0.862129	0.959024	0.038056	0.090231	-0.019204	0.999972	0.003598	-0.004311	0.004795	
  553	    0	2.929158	9.009566	-0.463283	0.570873	-0.708012	0.699619	0.028992	0.090210	-0.004272	0.999983	0.002854	-0.003540	0.003498	
  554	    0	2.338863	8.498665	0.595148	0.704768	-0.511362	0.491717	0.023164	0.085022	0.006310	0.999987	0.003524	-0.002557	0.002459	
  555	    0	2.168484	8.099340	0.945622	0.662996	-0.378991	0.299073	0.021545	0.080994	0.009766	0.999991	0.003315	-0.001895	0.001495	
  556	    0	2.252664	7.692605	0.507665	0.234795	-0.322724	0.131798	0.022468	0.076935	0.005203	0.999997	0.001174	-0.001614	0.000659	
  557	    0	3.164207	6.666896	-0.163538	-0.369072	-0.312043	-0.097656	0.031677	0.066650	-0.001709	0.999996	-0.001845	-0.001560	-0.000488	
  558	    0	4.037112	4.973590	0.903904	-0.488091	-0.250435	-0.343896	0.040445	0.049688	0.008968	0.999994	-0.002440	-0.001252	-0.001719	
  559	    0	4.512713	2.392975	1.319900	-0.623323	-0.261498	-0.469972	0.045166	0.023865	0.013184	0.999991	-0.003117	-0.001307	-0.002350	
  560	    0	5.379621	-0.594033	0.921710	-1.027495	-0.350573	-0.518611	0.053764	-0.006032	0.009342	0.999982	-0.005137	-0.001753	-0.002593	
  561	    0	7.150949	-4.723898	0.599357	-1.021392	-0.485233	-0.608830	0.071350	-0.047424	0.006409	0.999979	-0.005107	-0.002426	-0.003044	
  562	    0	9.536350	-9.375135	-0.231600	-0.799183	-0.442507	-0.672535	0.095052	-0.094079	-0.001730	0.999984	-0.003996	-0.002213	-0.003363	
  563	    0	11.131600	-13.323521	-2.166081	-0.713351	-0.119591	-0.640872	0.110901	-0.133667	-0.021118	0.999988	-0.003567	-0.000598	-0.003204	
  564	    0	12.184552	-15.903581	-4.233934	-0.632860	-0.033379	-0.570490	0.121398	-0.159515	-0.041815	0.999990	-0.003164	-0.000167	-0.002852	
  565	    0	12.524181	-17.923840	-5.778807	-0.004387	-0.267029	-0.423432	0.124939	-0.179504	-0.057617	0.999996	-0.000022	-0.001335	-0.002117	
  566	    0	11.623640	-18.342909	-7.203941	0.506211	-0.386811	-0.274659	0.116124	-0.183406	-0.072279	0.999993	0.002531	-0.001934	-0.001373	
  567	    0	10.731836	-15.690886	-6.482969	0.568582	-0.281525	-0.140381	0.107300	-0.156799	-0.065125	0.999994	0.002843	-0.001408	-0.000702	
  568	    0	10.094093	-11.198901	-4.668843	0.640107	-0.065804	0.035095	0.100976	-0.111821	-0.047013	0.999994	0.003201	-0.000329	0.000175	
  569	    0	9.139203	-7.243462	-3.860318	0.663950	0.212861	0.221253	0.091431	-0.072205	-0.038940	0.999992	0.003320	0.001064	0.001106	
  570	    0	8.490224	-3.220407	-3.869992	0.650789	0.406266	0.174714	0.084851	-0.032003	-0.038977	0.999991	0.003254	0.002031	0.000874	
  571	    0	10.328623	3.335737	-5.235748	0.665476	0.235749	-0.281525	0.103271	0.033386	-0.052368	0.999992	0.003327	0.001179	-0.001408	
  572	    0	12.759905	11.196468	-6.447136	0.367929	0.122834	-0.807956	0.128011	0.111567	-0.064344	0.999990	0.001840	0.000614	-0.004040	
  573	    0	11.836159	9.808460	-2.110577	-0.596622	0.455668	-0.820164	0.118713	0.097534	-0.021667	0.999984	-0.002983	0.002278	-0.004101	
  574	    0	12.136271	-0.796205	1.640781	-1.034744	0.632672	-0.417903	0.121397	-0.008132	0.016066	0.999979	-0.005174	0.003163	-0.002090	
  575	    0	14.554516	-11.489993	1.282067	-0.624658	0.078583	-0.180054	0.145447	-0.114990	0.013123	0.999994	-0.003123	0.000393	-0.000900	
  576	    0	16.432973	-15.638523	-3.509656	0.871281	-0.091362	-0.511935	0.163945	-0.156651	-0.035704	0.999987	0.004356	-0.000457	-0.002560	
  577	    0	15.291485	-10.249737	-2.658547	2.362315	0.122837	-0.959804	0.152405	-0.102905	-0.027893	0.999918	0.011811	0.000614	-0.004799	
  578	    0	13.278689	-0.587802	0.905568	2.935340	0.023080	-1.128052	0.132751	-0.006759	0.008945	0.999876	0.014676	0.000115	-0.005640	
  579	    0	12.390760	6.128875	0.248827	3.153381	-0.446150	-1.209318	0.124268	0.060486	0.003723	0.999854	0.015766	-0.002231	-0.006046	
  580	    0	11.179657	13.335518	-0.292601	2.030997	-0.795957	-1.206239	0.112605	0.132695	-0.001129	0.999922	0.010155	-0.003980	-0.006031	
  581	    0	9.708884	14.478209	-1.137051	-0.002098	-0.914773	-1.138316	0.097961	0.144226	-0.010925	0.999973	-0.000010	-0.004574	-0.005692	
  582	    0	8.613963	11.463230	-3.939609	-1.226822	-0.822078	-0.957501	0.086849	0.113975	-0.039741	0.999961	-0.006134	-0.004110	-0.004787	
  583	    0	7.829591	6.872723	-6.323438	-1.702719	-0.548563	-0.958268	0.078796	0.067810	-0.063599	0.999949	-0.008513	-0.002743	-0.004791	
  584	    0	7.330954	3.623586	-6.381190	-1.796757	-0.274473	-1.127646	0.073598	0.035247	-0.064031	0.999943	-0.008984	-0.001372	-0.005638	
  585	    0	7.803065	2.192774	-5.846108	-1.626617	-0.259213	-1.322199	0.078247	0.020935	-0.058533	0.999944	-0.008133	-0.001296	-0.006611	
  586	    0	8.844136	1.790606	-6.207778	-1.598771	-0.374611	-1.441603	0.088681	0.016771	-0.062049	0.999940	-0.007994	-0.001873	-0.007208	
  587	    0	9.595148	1.261919	-6.976761	-1.377703	-0.432595	-1.509885	0.096191	0.011414	-0.069641	0.999945	-0.006888	-0.002163	-0.007549	
  588	    0	9.766225	-0.391236	-7.078527	-1.230833	-0.361640	-1.586179	0.097753	-0.005122	-0.070580	0.999948	-0.006154	-0.001808	-0.007931	
  589	    0	10.097130	-2.064744	-6.102120	-1.223014	-0.317198	-1.647216	0.100891	-0.021851	-0.060730	0.999946	-0.006115	-0.001586	-0.008236	
  590	    0	10.277898	-2.832269	-4.370420	-1.211761	-0.322157	-1.711687	0.102600	-0.029465	-0.043363	0.999943	-0.006059	-0.001611	-0.008558	
  591	    0	9.766330	-2.704759	-3.108497	-1.100179	-0.350005	-1.760897	0.097473	-0.028076	-0.030762	0.999944	-0.005501	-0.001750	-0.008804	
  592	    0	9.058045	-2.000994	-2.645820	-0.950830	-0.370032	-1.806482	0.090443	-0.020952	-0.026193	0.999946	-0.004754	-0.001850	-0.009032	
  593	    0	8.848374	-0.931215	-2.802872	-0.897233	-0.343901	-1.846347	0.088440	-0.010254	-0.027832	0.999946	-0.004486	-0.001719	-0.009232	
  594	    0	8.710483	0.073278	-2.783792	-1.000805	-0.281721	-1.864469	0.087145	-0.000218	-0.027716	0.999943	-0.005004	-0.001409	-0.009322	
  595	    0	8.454915	0.864308	-2.617631	-1.215388	-0.240903	-1.876108	0.084656	0.007690	-0.026123	0.999936	-0.006077	-0.001204	-0.009380	
  596	    0	8.473733	1.283231	-2.576759	-1.438937	-0.202756	-1.864477	0.084877	0.011856	-0.025769	0.999929	-0.007195	-0.001014	-0.009322	
  597	    0	8.745630	1.257880	-2.809846	-1.602023	-0.128940	-1.868486	0.087585	0.011536	-0.028137	0.999924	-0.008010	-0.000645	-0.009342	
  598	    0	8.965197	0.675250	-3.133222	-1.636166	-0.061418	-1.868296	0.089718	0.005658	-0.031354	0.999923	-0.008181	-0.000307	-0.009341	
  599	    0	9.030567	-0.345054	-3.373903	-1.643987	-0.028992	-1.882984	0.090271	-0.004578	-0.033691	0.999922	-0.008220	-0.000145	-0.009415	
  600	    0	9.103767	-1.270610	-3.358893	-1.643415	-0.005150	-1.922849	0.090909	-0.013856	-0.033476	0.999920	-0.008217	-0.000026	-0.009614	
  601	    0	9.221206	-1.623857	-2.949115	-1.719524	0.028230	-1.962336	0.092041	-0.017395	-0.029358	0.999914	-0.008597	0.000141	-0.009811	
  602	    0	9.426007	-1.923007	-2.503123	-1.731160	0.047304	-1.980839	0.094056	-0.020378	-0.024880	0.999913	-0.008656	0.000237	-0.009904	
  603	    0	9.323752	-2.056775	-2.228868	-1.592298	0.078776	-1.982933	0.093018	-0.021667	-0.022156	0.999919	-0.007961	0.000394	-0.009914	
  604	    0	8.988845	-1.739612	-2.061370	-1.307899	0.154880	-1.954315	0.089696	-0.018408	-0.020565	0.999930	-0.006539	0.000774	-0.009771	
  605	    0	8.785010	-1.320146	-1.738788	-0.983256	0.170902	-1.850925	0.087708	-0.014099	-0.017395	0.999945	-0.004916	0.000854	-0.009254	
  606	    0	9.106771	-1.575288	-1.191193	-0.770962	0.153735	-1.706148	0.090919	-0.016575	-0.011919	0.999955	-0.003855	0.000769	-0.008531	
  607	    0	9.108980	-2.538076	-1.228825	-0.646790	0.139620	-1.544971	0.090881	-0.026123	-0.012268	0.999964	-0.003234	0.000698	-0.007725	
  608	    0	8.757945	-2.973451	-1.533896	-0.506978	0.035286	-1.471344	0.087355	-0.030416	-0.015278	0.999969	-0.002535	0.000176	-0.007357	
  609	    0	8.864890	-2.881138	-1.739542	-0.312045	-0.035668	-1.449598	0.088440	-0.029480	-0.017334	0.999972	-0.001560	-0.000178	-0.007248	
  610	    0	9.138308	-2.803641	-1.756486	-0.150300	-0.051499	-1.465048	0.091179	-0.028718	-0.017520	0.999972	-0.000751	-0.000257	-0.007325	
  611	    0	9.095508	-2.728687	-1.725368	0.012970	-0.095941	-1.471724	0.090759	-0.027954	-0.017212	0.999972	0.000065	-0.000480	-0.007359	
  612	    0	9.039429	-2.555136	-1.955500	0.092126	-0.163652	-1.468100	0.090219	-0.026205	-0.019493	0.999972	0.000461	-0.000818	-0.007340	
  613	    0	9.497392	-2.855639	-1.963539	0.015450	-0.224306	-1.435865	0.094788	-0.029236	-0.019531	0.999973	0.000077	-0.001122	-0.007179	
  614	    0	10.130755	-3.598368	-1.907051	-0.146104	-0.288394	-1.393139	0.101081	-0.036702	-0.018898	0.999974	-0.000731	-0.001442	-0.006966	
  615	    0	10.250948	-4.298506	-1.647517	-0.231745	-0.251009	-1.362621	0.102234	-0.043701	-0.016296	0.999975	-0.001159	-0.001255	-0.006813	
  616	    0	10.036717	-4.261446	-2.187217	-0.210764	-0.222780	-1.381123	0.100094	-0.043329	-0.021715	0.999974	-0.001054	-0.001114	-0.006906	
  617	    0	9.897887	-4.444663	-2.889210	-0.214388	-0.195123	-1.393902	0.098694	-0.045166	-0.028748	0.999974	-0.001072	-0.000976	-0.006969	
  618	    0	9.883747	-4.799287	-2.825065	-0.174333	-0.157930	-1.346026	0.098534	-0.048681	-0.028131	0.999976	-0.000872	-0.000790	-0.006730	
  619	    0	9.767702	-4.702984	-2.612169	-0.016785	-0.114251	-1.180274	0.097412	-0.047607	-0.026062	0.999982	-0.000084	-0.000571	-0.005901	
  620	    0	9.856270	-4.217769	-2.714965	0.181199	-0.059700	-0.907329	0.098378	-0.042600	-0.027159	0.999989	0.000906	-0.000299	-0.004537	
  621	    0	9.959851	-4.010703	-3.089579	0.184632	0.023842	-0.534058	0.099487	-0.040344	-0.030945	0.999995	0.000923	0.000119	-0.002670	
  622	    0	9.983435	-4.126918	-3.841595	-0.021744	0.125504	-0.150490	0.099779	-0.041348	-0.038474	0.999999	-0.000109	0.000628	-0.000752	
  623	    0	10.892838	-4.861463	-4.780263	-0.245667	0.199318	0.276184	0.108948	-0.048523	-0.047852	0.999997	-0.001228	0.000997	0.001381	
  624	    0	12.466712	-7.433056	-5.347479	-0.514986	0.283624	0.838283	0.124902	-0.073945	-0.053461	0.999987	-0.002575	0.001418	0.004191	
  625	    0	13.997402	-10.074942	-3.336112	-0.878727	0.663003	1.398486	0.140564	-0.099915	-0.033386	0.999960	-0.004394	0.003315	0.006992	
  626	    0	14.517481	-12.885704	1.653337	-1.375806	0.959994	1.849986	0.146438	-0.127392	0.016712	0.999922	-0.006879	0.004800	0.009250	
  627	    0	14.987458	-14.772226	5.104640	-1.828850	1.391856	2.388873	0.151978	-0.145447	0.051331	0.999862	-0.009144	0.006959	0.011944	
  628	    0	14.197760	-12.014994	6.697783	-1.403113	1.645167	2.618343	0.144079	-0.117805	0.066630	0.999855	-0.007015	0.008225	0.013091	
  629	    0	12.939245	-7.159185	5.374408	-0.643183	1.335386	2.638345	0.130676	-0.069702	0.053101	0.999885	-0.003216	0.006677	0.013191	
  630	    0	13.237560	-2.890937	1.956215	0.334941	0.761438	2.634323	0.132814	-0.027194	0.019011	0.999904	0.001675	0.003807	0.013171	
  631	    0	14.003244	0.824589	-1.064975	1.615206	0.329030	2.571206	0.139893	0.010132	-0.010803	0.999883	0.008076	0.001645	0.012856	
  632	    0	16.328594	3.244885	-2.969929	2.233428	0.207912	2.679961	0.162798	0.034963	-0.029488	0.999846	0.011167	0.001040	0.013399	
  633	    0	19.694768	7.522856	-4.583156	2.337023	0.245109	2.972590	0.195740	0.078674	-0.045166	0.999820	0.011684	0.001225	0.014862	
  634	    0	20.911173	8.917495	-6.145851	1.518910	0.373671	3.400620	0.207436	0.093177	-0.061150	0.999825	0.007594	0.001868	0.017002	
  635	    0	19.034387	4.754685	-7.239024	-0.003815	0.511391	3.799671	0.189209	0.051147	-0.072876	0.999816	-0.000019	0.002557	0.018997	
  636	    0	17.606872	2.032865	-6.099426	-1.329323	0.596660	3.810002	0.175461	0.023267	-0.061666	0.999791	-0.006646	0.002983	0.019049	
  637	    0	18.249715	0.986590	-4.093226	-1.941632	0.434144	3.677636	0.182190	0.012817	-0.041443	0.999781	-0.009707	0.002171	0.018387	
  638	    0	18.470874	1.206612	-2.998114	-1.322065	0.354980	3.609309	0.184400	0.015196	-0.030402	0.999813	-0.006610	0.001775	0.018045	
  639	    0	16.986561	1.911060	-2.851154	-0.285164	0.386831	3.567698	0.169434	0.022095	-0.028870	0.999838	-0.001426	0.001934	0.017838	
  640	    0	15.359355	2.326764	-2.663017	0.567084	0.386831	3.474989	0.153106	0.026007	-0.026855	0.999843	0.002835	0.001934	0.017374	
  641	    0	13.667899	3.030157	-2.279371	1.230877	0.337237	3.334986	0.136108	0.032715	-0.022827	0.999840	0.006154	0.001686	0.016674	
  642	    0	11.782599	3.656587	-2.249327	1.642888	0.037195	3.198033	0.117215	0.038627	-0.022203	0.999838	0.008214	0.000186	0.015989	
  643	    0	10.572870	3.860662	-2.590032	1.874072	-0.374624	3.076340	0.105164	0.040466	-0.025330	0.999836	0.009370	-0.001873	0.015381	
  644	    0	9.980339	3.931617	-2.881464	2.076454	-0.612865	2.923364	0.099298	0.041064	-0.028090	0.999834	0.010382	-0.003064	0.014616	
  645	    0	9.788205	4.250940	-3.499575	2.356854	-0.742954	2.737582	0.097412	0.044250	-0.034119	0.999829	0.011784	-0.003715	0.013687	
  646	    0	9.147917	4.799144	-4.088505	2.545307	-0.771756	2.500673	0.091021	0.049644	-0.039908	0.999833	0.012726	-0.003859	0.012503	
  647	    0	7.990699	5.880190	-4.367882	2.492649	-0.832981	2.272911	0.079407	0.060242	-0.042603	0.999848	0.012463	-0.004165	0.011364	
  648	    0	6.932283	7.201381	-3.578174	2.320388	-0.846136	2.030841	0.068732	0.073120	-0.034646	0.999871	0.011601	-0.004230	0.010154	
  649	    0	6.067670	8.315550	-2.985123	1.998205	-0.887137	1.785338	0.060059	0.083984	-0.028748	0.999900	0.009991	-0.004436	0.008926	
  650	    0	5.432154	8.715413	-2.764333	1.581991	-0.872441	1.502644	0.053782	0.087773	-0.026715	0.999930	0.007910	-0.004362	0.007513	
  651	    0	4.715698	8.440859	-2.929222	1.002515	-0.772677	1.217667	0.046753	0.084839	-0.028687	0.999961	0.005013	-0.003863	0.006088	
  652	    0	3.845149	8.335418	-1.911251	0.506214	-0.675015	0.966460	0.038112	0.083587	-0.018772	0.999979	0.002531	-0.003375	0.004832	
  653	    0	3.014044	8.264165	-0.456599	0.508120	-0.556758	0.740818	0.029846	0.082764	-0.004272	0.999986	0.002541	-0.002784	0.003704	
  654	    0	2.595601	7.768844	0.074731	0.621417	-0.466539	0.575449	0.025730	0.077760	0.001049	0.999988	0.003107	-0.002333	0.002877	
  655	    0	2.651504	7.148412	0.132300	0.604250	-0.362207	0.405885	0.026367	0.071533	0.001587	0.999991	0.003021	-0.001811	0.002029	
  656	    0	2.940007	6.926985	-0.462698	0.258446	-0.304413	0.254441	0.029319	0.069313	-0.004493	0.999997	0.001292	-0.001522	0.001272	
  657	    0	3.564527	5.886149	-1.522726	-0.523950	-0.345612	0.092316	0.035645	0.058838	-0.015320	0.999994	-0.002620	-0.001728	0.000462	
  658	    0	4.168220	4.512879	-0.431400	-0.805285	-0.338365	-0.102616	0.041713	0.045090	-0.004425	0.999990	-0.004026	-0.001692	-0.000513	
  659	    0	4.441604	1.945017	0.384090	-0.785830	-0.362970	-0.252534	0.044434	0.019409	0.003845	0.999990	-0.003929	-0.001815	-0.001263	
  660	    0	5.437792	-1.441355	-0.087395	-1.144607	-0.412372	-0.329211	0.054356	-0.014507	-0.000679	0.999980	-0.005723	-0.002062	-0.001646	
  661	    0	7.364823	-5.254852	-0.551964	-1.141938	-0.415805	-0.424197	0.073547	-0.052734	-0.005066	0.999979	-0.005710	-0.002079	-0.002121	
  662	    0	9.708404	-9.493712	-1.488687	-0.756839	-0.319673	-0.551989	0.096845	-0.095260	-0.014372	0.999988	-0.003784	-0.001598	-0.002760	
  663	    0	11.620032	-12.794638	-2.719892	-0.344086	0.103951	-0.627901	0.115784	-0.128357	-0.027039	0.999993	-0.001720	0.000520	-0.003139	
  664	    0	13.000720	-15.721252	-3.354187	0.089646	0.473596	-0.689699	0.129384	-0.157644	-0.033919	0.999990	0.000448	0.002368	-0.003448	
  665	    0	13.273391	-18.112047	-3.359190	0.636485	0.385286	-0.581362	0.132141	-0.181396	-0.034424	0.999989	0.003182	0.001926	-0.002907	
  666	    0	11.412174	-18.570062	-4.343254	0.796321	-0.024605	-0.350190	0.113802	-0.185725	-0.044158	0.999990	0.003982	-0.000123	-0.001751	
  667	    0	9.846362	-15.340280	-5.433343	0.859836	-0.247765	-0.186158	0.098389	-0.153259	-0.054871	0.999990	0.004299	-0.001239	-0.000931	
  668	    0	9.430535	-10.636468	-5.463601	0.799753	-0.156403	0.020981	0.094359	-0.106135	-0.054987	0.999991	0.003999	-0.000782	0.000105	
  669	    0	9.130461	-5.859088	-4.989666	0.756266	0.116730	0.113678	0.091309	-0.058350	-0.050171	0.999992	0.003781	0.000584	0.000568	
  670	    0	9.568629	-1.120378	-5.068961	0.736429	0.213814	-0.075913	0.095628	-0.011053	-0.050833	0.999992	0.003682	0.001069	-0.000380	
  671	    0	12.479322	6.626524	-6.542078	0.784305	0.136757	-0.575259	0.124939	0.066162	-0.065247	0.999988	0.003922	0.000684	-0.002876	
  672	    0	12.959496	10.737170	-5.747473	0.225449	0.199700	-0.782015	0.129956	0.106929	-0.057484	0.999990	0.001127	0.000998	-0.003910	
  673	    0	11.224106	5.892364	-0.985020	-0.562098	0.642398	-0.536349	0.112366	0.058594	-0.010376	0.999987	-0.002810	0.003212	-0.002682	
  674	    0	12.484989	-5.012595	1.958974	-0.886539	0.403978	-0.194169	0.124841	-0.050160	0.019560	0.999988	-0.004433	0.002020	-0.000971	
  675	    0	14.428574	-11.879417	-0.771406	-0.291252	-0.131226	-0.211334	0.144165	-0.118958	-0.007446	0.999998	-0.001456	-0.000656	-0.001057	
  676	    0	15.823698	-12.066691	-3.132292	1.162537	-0.040055	-0.621991	0.157867	-0.120974	-0.031994	0.999978	0.005813	-0.000200	-0.003110	
  677	    0	14.324539	-4.988426	-0.192925	2.086876	0.152591	-0.946829	0.143005	-0.050537	-0.002563	0.999933	0.010434	0.000763	-0.004734	
  678	    0	12.938667	2.555745	0.987695	2.606861	-0.176436	-1.119461	0.129518	0.024700	0.010317	0.999899	0.013034	-0.000882	-0.005597	
  679	    0	11.796895	9.484295	-0.057478	2.440916	-0.572987	-1.322218	0.118591	0.094055	0.000916	0.999899	0.012204	-0.002865	-0.006611	
  680	    0	10.768651	13.935943	-0.088218	0.950636	-0.811588	-1.316852	0.108602	0.138647	0.000217	0.999958	0.004753	-0.004058	-0.006584	
  681	    0	9.603554	12.513882	-1.749193	-0.490384	-0.833901	-1.210034	0.096863	0.124512	-0.017395	0.999969	-0.002452	-0.004169	-0.006050	
  682	    0	8.777994	8.616927	-4.710160	-1.114096	-0.713548	-1.111998	0.088425	0.085416	-0.047264	0.999962	-0.005570	-0.003568	-0.005560	
  683	    0	7.944502	5.074705	-6.279491	-1.272410	-0.468451	-1.206987	0.079895	0.049866	-0.062927	0.999958	-0.006362	-0.002342	-0.006035	
  684	    0	7.983371	3.596030	-5.870581	-1.170938	-0.329976	-1.427862	0.080183	0.035045	-0.058781	0.999955	-0.005855	-0.001650	-0.007139	
  685	    0	8.676458	2.831629	-5.524362	-1.216719	-0.402076	-1.603727	0.087097	0.027283	-0.055237	0.999947	-0.006083	-0.002010	-0.008018	
  686	    0	9.534146	2.577917	-6.060073	-1.232933	-0.479135	-1.656373	0.095694	0.024614	-0.060526	0.999944	-0.006165	-0.002396	-0.008282	
  687	    0	9.702142	1.378536	-6.613620	-1.158927	-0.478181	-1.706727	0.097290	0.012573	-0.065979	0.999944	-0.005795	-0.002391	-0.008533	
  688	    0	9.576300	-0.381936	-6.643126	-1.178955	-0.413140	-1.742396	0.095860	-0.005045	-0.066206	0.999942	-0.005895	-0.002066	-0.008712	
  689	    0	9.944973	-1.868007	-5.308525	-1.321438	-0.324065	-1.746404	0.099365	-0.019897	-0.052795	0.999938	-0.006607	-0.001620	-0.008732	
  690	    0	10.048889	-2.686346	-3.652480	-1.352911	-0.332839	-1.758231	0.100307	-0.027991	-0.036171	0.999937	-0.006764	-0.001664	-0.008791	
  691	    0	9.453145	-2.412422	-2.888543	-1.211381	-0.361641	-1.797522	0.094360	-0.025146	-0.028564	0.999939	-0.006057	-0.001808	-0.008987	
  692	    0	8.970953	-1.665030	-2.601080	-1.081488	-0.358016	-1.839292	0.089597	-0.017614	-0.025757	0.999941	-0.005407	-0.001790	-0.009196	
  693	    0	8.707980	-0.836877	-2.655410	-1.135277	-0.311858	-1.882973	0.087036	-0.009338	-0.026367	0.999938	-0.005676	-0.001559	-0.009415	
  694	    0	8.582486	-0.115161	-2.851099	-1.307708	-0.276572	-1.898808	0.085847	-0.002152	-0.028380	0.999932	-0.006538	-0.001383	-0.009494	
  695	    0	8.543644	0.498237	-2.863230	-1.468503	-0.232702	-1.883743	0.085510	0.003967	-0.028564	0.999928	-0.007342	-0.001163	-0.009418	
  696	    0	8.681582	0.831429	-2.996238	-1.584856	-0.149540	-1.866578	0.086909	0.007266	-0.029958	0.999925	-0.007924	-0.000748	-0.009333	
  697	    0	8.971202	0.743403	-3.042556	-1.645703	-0.053979	-1.862383	0.089783	0.006348	-0.030457	0.999923	-0.008228	-0.000270	-0.009312	
  698	    0	9.156072	0.094720	-3.082199	-1.704643	0.020791	-1.863720	0.091559	-0.000169	-0.030833	0.999920	-0.008523	0.000104	-0.009318	
  699	    0	9.135835	-1.004540	-2.991381	-1.731920	0.056650	-1.895957	0.091248	-0.011169	-0.029846	0.999917	-0.008659	0.000283	-0.009480	
  700	    0	9.072199	-1.750049	-2.795367	-1.722956	0.046922	-1.944597	0.090538	-0.018621	-0.027818	0.999915	-0.008615	0.000235	-0.009723	
  701	    0	9.337280	-2.244124	-2.555556	-1.628920	0.051309	-1.954704	0.093140	-0.023560	-0.025391	0.999919	-0.008144	0.000257	-0.009773	
  702	    0	9.348253	-2.193044	-2.181701	-1.404986	0.106051	-1.917121	0.093254	-0.022978	-0.021708	0.999928	-0.007025	0.000530	-0.009585	
  703	    0	9.179333	-1.722570	-2.218921	-1.091787	0.139811	-1.836430	0.091614	-0.018188	-0.022156	0.999942	-0.005459	0.000699	-0.009182	
  704	    0	9.324660	-1.474039	-1.902681	-0.775539	0.141718	-1.693750	0.093103	-0.015603	-0.019033	0.999956	-0.003878	0.000709	-0.008469	
  705	    0	9.531934	-1.959016	-1.582372	-0.649841	0.104524	-1.563282	0.095154	-0.020386	-0.015808	0.999964	-0.003249	0.000523	-0.007816	
  706	    0	9.143065	-2.442894	-1.488620	-0.580412	0.065804	-1.491944	0.091240	-0.025153	-0.014844	0.999968	-0.002902	0.000329	-0.007460	
  707	    0	8.764059	-2.311654	-1.713019	-0.430111	0.023651	-1.486221	0.087463	-0.023804	-0.017090	0.999969	-0.002151	0.000118	-0.007431	
  708	    0	8.839398	-2.148199	-1.905003	-0.367550	-0.024033	-1.479545	0.088234	-0.022170	-0.018999	0.999970	-0.001838	-0.000120	-0.007398	
  709	    0	9.148506	-2.365655	-1.755565	-0.311091	-0.002289	-1.464857	0.091309	-0.024353	-0.017517	0.999971	-0.001555	-0.000011	-0.007324	
  710	    0	9.141629	-2.319664	-1.499545	-0.211527	0.002861	-1.481070	0.091241	-0.023889	-0.014972	0.999971	-0.001058	0.000014	-0.007405	
  711	    0	9.357589	-2.640528	-1.396654	-0.177766	-0.057030	-1.459516	0.093384	-0.027100	-0.013916	0.999972	-0.000889	-0.000285	-0.007298	
  712	    0	9.688269	-3.426367	-1.015623	-0.199320	-0.111009	-1.404774	0.096644	-0.034953	-0.010068	0.999974	-0.000997	-0.000555	-0.007024	
  713	    0	9.990040	-4.308039	-0.597228	-0.239565	-0.121881	-1.353465	0.099609	-0.043762	-0.005859	0.999976	-0.001198	-0.000609	-0.006767	
  714	    0	9.958239	-4.954760	-0.661171	-0.261690	-0.156022	-1.339160	0.099253	-0.050221	-0.006469	0.999976	-0.001308	-0.000780	-0.006696	
  715	    0	9.519262	-5.324702	-1.231524	-0.315096	-0.178338	-1.322184	0.094849	-0.053894	-0.012146	0.999976	-0.001575	-0.000892	-0.006611	
  716	    0	9.213601	-5.613428	-2.193069	-0.287821	-0.177766	-1.311694	0.091784	-0.056768	-0.021768	0.999976	-0.001439	-0.000889	-0.006558	
  717	    0	9.194314	-5.597430	-2.712234	-0.160218	-0.217249	-1.272592	0.091614	-0.056580	-0.026978	0.999978	-0.000801	-0.001086	-0.006363	
  718	    0	9.467327	-5.422876	-2.549966	0.091935	-0.178910	-1.090628	0.094398	-0.054732	-0.025440	0.999984	0.000460	-0.000895	-0.005453	
  719	    0	9.899288	-4.719297	-2.499501	0.386049	-0.125695	-0.812533	0.098816	-0.047546	-0.025024	0.999990	0.001930	-0.000628	-0.004063	
  720	    0	10.271677	-4.309026	-2.568650	0.485040	-0.024414	-0.479508	0.102616	-0.043274	-0.025779	0.999993	0.002425	-0.000122	-0.002398	
  721	    0	10.086828	-4.469705	-3.636966	0.346565	0.102997	-0.086975	0.100830	-0.044678	-0.036499	0.999998	0.001733	0.000515	-0.000435	
  722	    0	10.351779	-5.042332	-4.923287	0.046349	0.186730	0.307083	0.103549	-0.050253	-0.049341	0.999998	0.000232	0.000934	0.001535	
  723	    0	11.895594	-7.707295	-5.763605	-0.331880	0.284768	0.853733	0.119202	-0.076660	-0.057678	0.999988	-0.001659	0.001424	0.004269	
  724	    0	13.666704	-10.558053	-4.272458	-0.729570	0.670251	1.464863	0.137293	-0.104733	-0.042801	0.999961	-0.003648	0.003351	0.007324	
  725	    0	14.880973	-13.565496	1.011520	-1.327553	1.089700	1.994381	0.150208	-0.134094	0.010193	0.999913	-0.006638	0.005448	0.009972	
  726	    0	15.155871	-14.375951	5.255603	-1.900771	1.660052	2.464804	0.153748	-0.141374	0.052637	0.999844	-0.009503	0.008300	0.012323	
  727	    0	13.583775	-10.884492	6.478098	-1.393193	1.658136	2.577331	0.137756	-0.106628	0.064392	0.999858	-0.006966	0.008290	0.012886	
  728	    0	12.661891	-6.128932	5.045635	-0.790625	1.215026	2.611830	0.127707	-0.059428	0.049920	0.999888	-0.003953	0.006075	0.013059	
  729	    0	13.443560	-1.857068	1.441321	0.312815	0.607509	2.595598	0.134705	-0.016846	0.013977	0.999909	0.001564	0.003037	0.012978	
  730	    0	14.291997	1.571784	-1.587962	1.771235	0.097660	2.547176	0.142695	0.017676	-0.015799	0.999879	0.008856	0.000488	0.012735	
  731	    0	17.156241	4.276949	-4.513068	2.459855	-0.029566	2.727662	0.170959	0.045654	-0.044556	0.999831	0.012299	-0.000148	0.013638	
  732	    0	21.649125	8.471177	-6.069776	2.352480	0.206770	3.071405	0.215087	0.088730	-0.059893	0.999812	0.011762	0.001034	0.015356	
  733	    0	22.259441	8.946378	-6.466230	1.431359	0.352689	3.454030	0.220886	0.093750	-0.064392	0.999824	0.007156	0.001763	0.017269	
  734	    0	19.247866	3.812064	-7.040129	-0.181972	0.357078	3.813977	0.191580	0.041716	-0.070781	0.999816	-0.000910	0.001785	0.019069	
  735	    0	17.924688	1.688511	-6.166045	-1.442056	0.377109	3.798176	0.178772	0.019836	-0.062134	0.999791	-0.007210	0.001885	0.018990	
  736	    0	18.695264	1.354049	-4.620173	-1.779681	0.301191	3.674764	0.186597	0.016558	-0.046621	0.999790	-0.008898	0.001506	0.018373	
  737	    0	18.827155	1.619224	-3.608712	-1.019920	0.403619	3.619600	0.187866	0.019409	-0.036560	0.999821	-0.005099	0.002018	0.018097	
  738	    0	17.086073	2.183176	-2.651751	-0.110442	0.461413	3.608331	0.170368	0.024894	-0.026924	0.999834	-0.000552	0.002307	0.018041	
  739	    0	14.839940	2.865769	-1.722754	0.518064	0.415252	3.524206	0.147827	0.031311	-0.017456	0.999839	0.002590	0.002076	0.017620	
  740	    0	13.331359	3.884897	-1.305095	1.129590	0.242818	3.311708	0.132629	0.041122	-0.012984	0.999846	0.005648	0.001214	0.016558	
  741	    0	11.489012	4.735499	-1.523974	1.602255	-0.032617	3.112952	0.114136	0.049255	-0.014832	0.999846	0.008011	-0.000163	0.015564	
  742	    0	9.783534	4.747754	-1.836155	1.832294	-0.464273	2.975236	0.097155	0.049090	-0.017691	0.999845	0.009161	-0.002321	0.014875	
  743	    0	9.080632	4.250008	-2.244774	1.983175	-0.771372	2.849729	0.090271	0.044006	-0.021667	0.999842	0.009915	-0.003857	0.014248	
  744	    0	9.077080	4.205341	-2.767089	2.263953	-0.857971	2.644299	0.090318	0.043556	-0.026795	0.999839	0.011319	-0.004290	0.013221	
  745	    0	8.657927	4.392940	-3.206276	2.502001	-0.865219	2.378208	0.086182	0.045349	-0.031128	0.999842	0.012509	-0.004326	0.011890	
  746	    0	7.586408	4.998010	-3.512646	2.543384	-0.928925	2.117643	0.075486	0.051219	-0.034129	0.999852	0.012716	-0.004644	0.010588	
  747	    0	6.426831	6.587312	-3.081310	2.398020	-0.911560	1.875384	0.063782	0.066833	-0.029724	0.999873	0.011990	-0.004558	0.009377	
  748	    0	5.531238	7.693280	-2.413417	2.116463	-0.908118	1.603751	0.054798	0.077621	-0.023066	0.999901	0.010582	-0.004540	0.008018	
  749	    0	4.868324	8.251330	-2.086910	1.680793	-0.886365	1.340515	0.048218	0.083008	-0.019958	0.999932	0.008404	-0.004432	0.006702	
  750	    0	4.167576	8.021782	-2.019805	1.189439	-0.835430	1.078239	0.041325	0.080559	-0.019547	0.999959	0.005947	-0.004177	0.005391	
  751	    0	3.420208	7.677490	-1.407570	0.731664	-0.720029	0.822455	0.033936	0.076965	-0.013672	0.999978	0.003658	-0.003600	0.004112	
  752	    0	2.849842	7.561344	-0.048892	0.690845	-0.575831	0.596240	0.028274	0.075699	-0.000146	0.999985	0.003454	-0.002879	0.002981	
  753	    0	2.464326	6.985998	0.718853	0.740817	-0.488855	0.429537	0.024475	0.069885	0.007507	0.999988	0.003704	-0.002444	0.002148	
  754	    0	2.695301	6.242733	0.689389	0.639917	-0.473596	0.261880	0.026855	0.062440	0.007157	0.999990	0.003200	-0.002368	0.001309	
  755	    0	3.390787	5.955872	0.219064	0.393677	-0.427819	0.095368	0.033875	0.059570	0.002380	0.999995	0.001968	-0.002139	0.000477	
  756	    0	4.196890	5.519783	-0.687186	-0.073052	-0.407791	-0.120354	0.042016	0.055170	-0.006806	0.999997	-0.000365	-0.002039	-0.000602	
  757	    0	4.903073	4.485704	-0.784046	-0.569154	-0.384332	-0.390626	0.049133	0.044739	-0.007874	0.999991	-0.002846	-0.001922	-0.001953	
  758	    0	5.268542	2.868523	-0.612037	-0.860600	-0.370790	-0.603679	0.052783	0.028500	-0.006145	0.999984	-0.004303	-0.001854	-0.003018	
  759	    0	5.836438	0.749562	-1.334763	-1.419655	-0.321201	-0.681312	0.058411	0.007202	-0.013306	0.999968	-0.007098	-0.001606	-0.003407	
  760	    0	7.176084	-1.749287	-1.787608	-1.762989	-0.218967	-0.645075	0.071723	-0.017880	-0.017641	0.999955	-0.008815	-0.001095	-0.003225	
  761	    0	9.440987	-5.502372	-1.408640	-1.393141	-0.062371	-0.636298	0.094238	-0.055420	-0.013672	0.999970	-0.006966	-0.000312	-0.003181	
  762	    0	11.883640	-10.467149	-1.156743	-0.878338	0.239373	-0.570300	0.118524	-0.105060	-0.011249	0.999985	-0.004392	0.001197	-0.002851	
  763	    0	12.962349	-15.586085	-1.973085	-0.732997	0.292970	-0.491335	0.129211	-0.156250	-0.019348	0.999989	-0.003665	0.001465	-0.002457	
  764	    0	13.068773	-19.591057	-3.328880	-0.289345	0.061035	-0.474930	0.130212	-0.196268	-0.033045	0.999995	-0.001447	0.000305	-0.002375	
  765	    0	12.210768	-21.065390	-5.749923	0.531770	-0.124932	-0.417329	0.121704	-0.210754	-0.057983	0.999993	0.002659	-0.000625	-0.002087	
  766	    0	11.224620	-17.933310	-6.502131	1.139838	-0.147630	-0.336840	0.111993	-0.179148	-0.065960	0.999982	0.005699	-0.000738	-0.001684	
  767	    0	10.730932	-12.381889	-5.144482	1.311693	-0.018311	-0.220491	0.107178	-0.123596	-0.052246	0.999977	0.006558	-0.000092	-0.001102	
  768	    0	9.921806	-7.485147	-4.321477	1.078420	0.206948	-0.049591	0.099154	-0.074641	-0.043720	0.999985	0.005392	0.001035	-0.000248	
  769	    0	9.944735	-2.633144	-4.848727	0.917057	0.321390	-0.029755	0.099365	-0.026123	-0.048767	0.999988	0.004585	0.001607	-0.000149	
  770	    0	12.188999	4.647915	-6.889335	0.845722	0.211717	-0.403978	0.121911	0.046524	-0.068826	0.999988	0.004229	0.001059	-0.002020	
  771	    0	12.806343	10.447813	-5.315730	0.088501	0.459482	-0.681307	0.128296	0.104065	-0.053406	0.999991	0.000443	0.002297	-0.003407	
  772	    0	10.638141	7.871937	0.387472	-0.658801	0.611689	-0.453569	0.106570	0.078489	0.003290	0.999987	-0.003294	0.003058	-0.002268	
  773	    0	12.921078	-2.736115	0.554506	-0.798800	0.060463	-0.007629	0.129211	-0.027344	0.005615	0.999991	-0.003994	0.000302	-0.000038	
  774	    0	15.281549	-10.764092	-1.665244	-0.374413	0.006294	-0.049782	0.152788	-0.107710	-0.016456	0.999998	-0.001872	0.000031	-0.000249	
  775	    0	16.252351	-11.688463	-1.695288	0.810245	0.261117	-0.460054	0.162231	-0.117188	-0.017639	0.999988	0.004051	0.001306	-0.002300	
  776	    0	14.508009	-5.532785	1.247250	1.932752	0.323874	-0.775542	0.144883	-0.056005	0.011699	0.999944	0.009664	0.001619	-0.003878	
  777	    0	12.594631	0.968441	2.503552	2.243861	-0.111201	-0.973535	0.125977	0.008789	0.025208	0.999925	0.011219	-0.000556	-0.004868	
  778	    0	11.266631	7.087473	-0.304359	2.243868	-0.563447	-1.183162	0.113090	0.070232	-0.001935	0.999915	0.011219	-0.002817	-0.005916	
  779	    0	10.152048	12.682609	-0.883010	1.030746	-0.836766	-1.268023	0.102356	0.126221	-0.007751	0.999957	0.005154	-0.004184	-0.006340	
  780	    0	8.824792	13.001756	-2.067171	-0.455098	-0.878343	-1.241125	0.089143	0.129419	-0.020576	0.999968	-0.002275	-0.004392	-0.006206	
