// Start Time: Unknown
// Update Rate: 100.0Hz
// Filter Profile: human (34.3)
// Firmware Version: 2.1.4
PacketCounter	SampleTimeFine	Acc_X	Acc_Y	Acc_Z	Gyr_X	Gyr_Y	Gyr_Z	VelInc_X	VelInc_Y	VelInc_Z	OriInc_q0	OriInc_q1	OriInc_q2	OriInc_q3	
53737	    0	25.194812	-33.993946	-20.732618	-0.724612	-0.849926	1.430531	0.255249	-0.338867	-0.205017	0.999958	-0.003623	-0.004250	0.007153	
53738	    0	15.535762	5.087934	3.386284	0.425536	1.484892	1.045051	0.155335	0.051620	0.032819	0.999956	0.002128	0.007424	0.005225	
53739	    0	3.917646	45.333917	2.843414	-0.560764	0.010109	1.046759	0.036804	0.453613	0.027161	0.999982	-0.002804	0.000051	0.005234	
53740	    0	-7.127613	44.969699	-10.721560	-1.713207	-0.568971	0.716984	-0.072573	0.448497	-0.111266	0.999952	-0.008566	-0.002845	0.003585	
53741	    0	6.727234	16.909454	-14.966360	-3.393529	0.073246	-0.417348	0.067566	0.166382	-0.152527	0.999853	-0.016967	0.000366	-0.002087	
53742	    0	16.394084	-1.013424	-11.781378	-3.275468	0.343722	-1.245372	0.163663	-0.013084	-0.117897	0.999845	-0.016376	0.001719	-0.006227	
53743	    0	11.895570	-1.394450	-11.334090	-1.669157	0.112917	-1.544986	0.118774	-0.015808	-0.113281	0.999935	-0.008346	0.000565	-0.007725	
53744	    0	10.837853	0.142446	-9.991985	-0.601778	-0.302892	-1.875527	0.108535	0.000107	-0.099757	0.999949	-0.003009	-0.001514	-0.009377	
53745	    0	12.047564	4.213856	-9.519899	-0.457581	-0.432595	-2.002753	0.121094	0.040710	-0.095032	0.999945	-0.002288	-0.002163	-0.010014	
53746	    0	14.115954	6.340866	-9.164870	-0.738922	-0.492106	-2.036137	0.142018	0.061627	-0.091530	0.999938	-0.003695	-0.002460	-0.010180	
53747	    0	17.304074	1.331660	-9.510873	-0.732438	-0.491153	-2.147723	0.173401	0.011108	-0.094727	0.999932	-0.003662	-0.002456	-0.010738	
53748	    0	17.510728	-0.155473	-11.016584	-0.648132	-0.551427	-2.214865	0.175376	-0.003852	-0.109673	0.999929	-0.003241	-0.002757	-0.011074	
53749	    0	13.579572	7.103211	-12.448873	-0.576607	-0.528731	-2.405612	0.136963	0.069031	-0.124329	0.999920	-0.002883	-0.002644	-0.012028	
53750	    0	12.179347	10.441018	-11.413267	-0.746370	-0.389684	-2.648630	0.123381	0.102357	-0.114278	0.999903	-0.003732	-0.001948	-0.013243	
53751	    0	14.879785	6.377591	-9.319487	-0.955808	-0.225839	-2.826033	0.149780	0.061218	-0.093323	0.999887	-0.004779	-0.001129	-0.014130	
53752	    0	18.068729	0.889817	-7.814497	-0.928533	-0.109295	-2.894132	0.180830	0.005919	-0.078078	0.999884	-0.004642	-0.000546	-0.014470	
53753	    0	18.995684	-1.670850	-4.599566	-0.734737	-0.030328	-2.861127	0.189697	-0.019592	-0.045898	0.999890	-0.003674	-0.000152	-0.014305	
53754	    0	18.252441	-3.544459	-1.554228	-0.664352	0.012780	-2.784633	0.182006	-0.038033	-0.015430	0.999897	-0.003322	0.000064	-0.013923	
53755	    0	18.152516	-4.480827	1.138700	-0.638600	-0.000572	-2.659690	0.180908	-0.047180	0.011536	0.999906	-0.003193	-0.000003	-0.013298	
53756	    0	17.976048	-5.929427	2.419138	-0.711843	0.040628	-2.511287	0.179003	-0.061459	0.024371	0.999914	-0.003559	0.000203	-0.012556	
53757	    0	16.209910	-6.652531	3.981528	-0.708789	0.095561	-2.369750	0.161316	-0.068298	0.039978	0.999923	-0.003544	0.000478	-0.011848	
53758	    0	14.892577	-7.326553	4.779153	-0.819417	0.128558	-2.243477	0.148124	-0.074734	0.048000	0.999928	-0.004097	0.000643	-0.011217	
53759	    0	13.894873	-8.033599	4.190438	-1.042010	0.219732	-2.149252	0.138123	-0.081604	0.042175	0.999928	-0.005210	0.001099	-0.010746	
53760	    0	12.333250	-7.440128	2.820996	-1.145008	0.393305	-2.053500	0.122617	-0.075500	0.028399	0.999928	-0.005725	0.001966	-0.010267	
53761	    0	10.339297	-7.519097	2.222143	-1.252013	0.574698	-1.940201	0.102722	-0.076050	0.022400	0.999928	-0.006260	0.002873	-0.009701	
53762	    0	7.820886	-11.066204	1.643094	-1.575701	0.679606	-1.803445	0.077265	-0.111229	0.017042	0.999922	-0.007878	0.003398	-0.009017	
53763	    0	5.412308	-15.932471	0.157151	-1.779030	0.688952	-1.597636	0.052856	-0.159729	0.002808	0.999922	-0.008895	0.003445	-0.007988	
53764	    0	3.299229	-19.482448	-0.643256	-1.605256	0.683035	-1.298358	0.031708	-0.195077	-0.004977	0.999941	-0.008026	0.003415	-0.006492	
53765	    0	1.837565	-21.700141	-0.393223	-1.029978	0.614363	-0.950632	0.017334	-0.217102	-0.002869	0.999970	-0.005150	0.003072	-0.004753	
53766	    0	0.651837	-21.330084	0.339920	-0.007439	0.639917	-0.527002	0.005967	-0.213317	0.003387	0.999990	-0.000037	0.003200	-0.002635	
53767	    0	0.217416	-18.550220	0.849894	1.126870	0.679212	-0.069428	0.002136	-0.185547	0.007446	0.999978	0.005634	0.003396	-0.000347	
53768	    0	1.169756	-14.666557	0.823231	1.892886	0.744070	0.324827	0.011963	-0.146715	0.006800	0.999947	0.009464	0.003720	0.001624	
53769	    0	1.219058	-10.594835	1.764222	1.978534	0.846880	0.586713	0.012573	-0.106079	0.016541	0.999937	0.009892	0.004234	0.002934	
53770	    0	1.237513	-6.171300	3.794635	1.318759	1.009383	0.797474	0.012812	-0.061911	0.037475	0.999957	0.006594	0.005047	0.003987	
53771	    0	2.279304	-2.074604	6.035962	0.438886	1.155103	1.093305	0.023254	-0.020752	0.060181	0.999966	0.002194	0.005775	0.005466	
53772	    0	3.826869	-0.615096	6.511945	-0.179675	1.326200	1.406692	0.038741	-0.005821	0.064869	0.999952	-0.000898	0.006631	0.007033	
53773	    0	5.401351	-1.434860	5.097119	-0.417337	1.480325	1.651799	0.054504	-0.013794	0.050598	0.999936	-0.002087	0.007401	0.008259	
53774	    0	7.914809	-2.111697	2.786096	-0.722331	1.484908	1.826714	0.079540	-0.020292	0.027346	0.999924	-0.003612	0.007424	0.009133	
53775	    0	15.147455	-2.325919	-1.475708	-0.925282	1.281013	2.113404	0.151611	-0.021729	-0.015625	0.999912	-0.004626	0.006405	0.010567	
53776	    0	22.289017	-3.481906	-5.645768	-0.606364	1.121172	2.302618	0.222952	-0.032426	-0.057607	0.999913	-0.003032	0.005606	0.011513	
53777	    0	22.282286	-5.624224	-6.108915	-0.057222	1.114879	2.449873	0.223145	-0.053528	-0.062317	0.999909	-0.000286	0.005574	0.012249	
53778	    0	20.495669	-7.619901	-4.080510	0.622200	1.287126	2.608968	0.205657	-0.073389	-0.042358	0.999888	0.003111	0.006435	0.013044	
53779	    0	18.868008	-4.631614	-1.256077	1.030207	1.449652	2.821481	0.189209	-0.043579	-0.014160	0.999861	0.005151	0.007248	0.014107	
53780	    0	19.753621	-0.579987	0.381801	1.068167	1.313655	2.971222	0.197613	-0.002880	0.002500	0.999853	0.005341	0.006568	0.014855	
53781	    0	21.202596	2.825181	-0.183498	0.670082	1.072742	3.054949	0.211548	0.031494	-0.002869	0.999863	0.003350	0.005363	0.015274	
53782	    0	22.420379	4.525481	-2.022855	-0.057795	0.871886	3.047117	0.223389	0.048656	-0.021217	0.999874	-0.000289	0.004359	0.015235	
53783	    0	25.218732	4.296500	-2.821144	-0.453777	0.683622	3.013733	0.251404	0.046692	-0.029175	0.999878	-0.002269	0.003418	0.015068	
53784	    0	26.039642	3.204031	-2.298284	-0.343528	0.586343	3.080114	0.259793	0.036004	-0.023805	0.999875	-0.001718	0.002932	0.015400	
53785	    0	24.123280	2.354187	-1.312599	0.003815	0.554871	3.155653	0.240784	0.027344	-0.013794	0.999871	0.000019	0.002774	0.015778	
53786	    0	22.501511	1.887742	-0.622619	0.329603	0.499746	3.071720	0.224673	0.022341	-0.006753	0.999877	0.001648	0.002499	0.015358	
53787	    0	21.021249	1.964836	-0.173613	0.657678	0.448815	2.846631	0.209900	0.022644	-0.002136	0.999890	0.003288	0.002244	0.014233	
53788	    0	19.406562	3.308496	-0.185017	0.975260	0.404371	2.612200	0.193607	0.035625	-0.002072	0.999900	0.004876	0.002022	0.013061	
53789	    0	17.020516	5.182089	-0.458442	1.272051	0.390637	2.407913	0.169556	0.053894	-0.004578	0.999905	0.006360	0.001953	0.012039	
53790	    0	14.323671	6.919189	-0.547585	1.527451	0.354015	2.206107	0.142452	0.070807	-0.005192	0.999907	0.007637	0.001770	0.011030	
53791	    0	12.015335	8.306827	-0.656067	1.610800	0.263221	1.958519	0.119324	0.084290	-0.006042	0.999918	0.008054	0.001316	0.009792	
53792	    0	10.280001	9.624206	-1.408624	1.348140	0.058175	1.654847	0.101995	0.097180	-0.013463	0.999943	0.006741	0.000291	0.008274	
53793	    0	8.792708	10.893839	-2.248011	0.910197	-0.161554	1.326766	0.087219	0.109619	-0.021912	0.999967	0.004551	-0.000808	0.006634	
53794	    0	6.876057	11.494991	-3.361476	0.393679	-0.345232	1.077658	0.068197	0.115384	-0.033270	0.999982	0.001968	-0.001726	0.005388	
53795	    0	4.799768	11.309457	-4.168616	-0.078583	-0.438501	0.850681	0.047607	0.113281	-0.041626	0.999988	-0.000393	-0.002192	0.004253	
53796	    0	2.127030	11.746075	-3.620158	-0.285531	-0.523378	0.548936	0.021043	0.117467	-0.036314	0.999991	-0.001428	-0.002617	0.002745	
53797	    0	0.915004	12.783001	-2.955100	-0.608637	-0.712588	0.157929	0.009155	0.127747	-0.029907	0.999989	-0.003043	-0.003563	0.000790	
53798	    0	0.665874	12.473586	-2.800265	-1.195539	-1.052105	-0.319484	0.007008	0.124555	-0.028711	0.999967	-0.005978	-0.005260	-0.001597	
53799	    0	-0.336007	12.487672	-3.845853	-2.204967	-1.634079	-0.566120	-0.002686	0.124451	-0.039856	0.999902	-0.011024	-0.008170	-0.002831	
53800	    0	-0.667405	12.425678	-5.084266	-2.180954	-2.189919	-0.715286	-0.005664	0.123713	-0.052259	0.999874	-0.010904	-0.010949	-0.003576	
53801	    0	-0.519392	9.285611	-5.962666	-0.938257	-2.610105	-0.695062	-0.004089	0.092590	-0.060120	0.999897	-0.004691	-0.013050	-0.003475	
53802	    0	0.575713	1.022461	-4.079229	0.542852	-2.891649	-0.592445	0.006376	0.010317	-0.040675	0.999887	0.002714	-0.014458	-0.002962	
53803	    0	1.797436	-7.552159	-2.299712	1.225526	-2.951944	-0.660735	0.018066	-0.075439	-0.023193	0.999866	0.006127	-0.014759	-0.003304	
53804	    0	3.258727	-12.964126	-0.251527	1.210631	-2.214499	-0.936155	0.032011	-0.129775	-0.002944	0.999909	0.006053	-0.011072	-0.004681	
53805	    0	4.585494	-16.647130	4.645321	1.097315	-1.058976	-1.192493	0.044617	-0.166992	0.045776	0.999952	0.005486	-0.005295	-0.005962	
53806	    0	6.702708	-22.121213	4.758514	1.148428	-0.201991	-1.213660	0.065635	-0.221882	0.046379	0.999964	0.005742	-0.001010	-0.006068	
53807	    0	8.013512	-20.546502	2.161396	1.715115	0.031472	-0.888838	0.079224	-0.205994	0.019836	0.999953	0.008575	0.000157	-0.004444	
53808	    0	5.312266	-10.655566	2.071722	1.754403	-0.068856	-0.314335	0.052948	-0.106815	0.019799	0.999960	0.008772	-0.000344	-0.001572	
53809	    0	1.867243	-3.251766	3.547662	0.274659	-0.315667	0.370789	0.018677	-0.032532	0.035461	0.999995	0.001373	-0.001578	0.001854	
53810	    0	-1.333972	-2.295514	8.584057	-1.947059	-0.276952	0.863283	-0.013362	-0.022176	0.086040	0.999942	-0.009735	-0.001385	0.004316	
53811	    0	10.588603	-7.351480	4.377734	-3.093911	-2.227730	0.575292	0.105591	-0.072510	0.046082	0.999814	-0.015469	-0.011138	0.002876	
53812	    0	30.628981	-0.824006	5.137848	-0.131608	-0.408748	-1.336490	0.306120	-0.010252	0.052011	0.999975	-0.000658	-0.002044	-0.006682	
53813	    0	27.219771	-21.041838	1.202846	2.129596	-0.341804	0.151828	0.272339	-0.210327	0.010254	0.999941	0.010648	-0.001709	0.000759	
53814	    0	19.188346	-12.316881	-1.908911	-1.096552	-0.082971	1.592661	0.192864	-0.121737	-0.018339	0.999952	-0.005483	-0.000415	0.007963	
53815	    0	6.268151	16.356496	-3.993300	-0.452998	0.523379	0.913244	0.061829	0.163757	-0.040466	0.999983	-0.002265	0.002617	0.004566	
53816	    0	-0.222391	38.092361	-3.876947	-0.642588	0.173569	0.626566	-0.003451	0.380787	-0.039990	0.999990	-0.003213	0.000868	0.003133	
53817	    0	0.051110	34.525976	-10.995781	-2.142948	-0.354011	-0.012970	0.000732	0.344055	-0.113647	0.999941	-0.010715	-0.001770	-0.000065	
53818	    0	9.580109	13.253238	-16.683875	-2.481152	0.067141	-0.951032	0.096367	0.129992	-0.168494	0.999911	-0.012405	0.000336	-0.004755	
53819	    0	15.858152	-0.249055	-12.502241	-2.051603	0.257309	-1.630449	0.158386	-0.005066	-0.125183	0.999913	-0.010258	0.001287	-0.008152	
53820	    0	12.551254	0.506572	-10.504548	-0.737013	-0.004006	-1.923214	0.125553	0.003471	-0.105058	0.999947	-0.003685	-0.000020	-0.009616	
53821	    0	11.584036	3.217111	-8.623449	-0.135615	-0.232701	-2.116434	0.116272	0.030884	-0.086121	0.999943	-0.000678	-0.001163	-0.010582	
53822	    0	12.335711	4.874128	-7.200996	-0.158885	-0.364882	-2.057304	0.123981	0.047411	-0.071822	0.999945	-0.000794	-0.001824	-0.010286	
53823	    0	15.063067	4.522310	-7.892595	-0.494395	-0.396546	-2.080577	0.151245	0.043457	-0.078735	0.999940	-0.002472	-0.001983	-0.010403	
53824	    0	16.507505	1.828216	-8.586253	-0.639737	-0.299269	-2.042238	0.165377	0.016320	-0.085670	0.999941	-0.003199	-0.001496	-0.010211	
53825	    0	14.693484	2.786350	-9.775750	-0.703254	-0.264745	-2.063793	0.147339	0.026001	-0.097656	0.999939	-0.003516	-0.001324	-0.010319	
53826	    0	12.142574	7.738899	-10.524183	-0.798626	-0.243956	-2.220397	0.122400	0.075613	-0.105397	0.999929	-0.003993	-0.001220	-0.011102	
53827	    0	12.404527	8.544549	-9.754507	-1.061088	-0.145726	-2.391121	0.125122	0.083435	-0.097900	0.999914	-0.005305	-0.000729	-0.011955	
53828	    0	15.254808	4.269590	-8.092772	-1.328515	-0.024415	-2.587028	0.153089	0.040179	-0.081182	0.999894	-0.006642	-0.000122	-0.012935	
53829	    0	17.752469	-0.834569	-6.708321	-1.268814	0.066569	-2.634524	0.177368	-0.011108	-0.067078	0.999892	-0.006344	0.000333	-0.013172	
53830	    0	17.322152	-2.770168	-4.416498	-0.985368	0.049974	-2.614488	0.172827	-0.030180	-0.044064	0.999902	-0.004927	0.000250	-0.013072	
53831	    0	16.518614	-2.748296	-2.590620	-0.696586	0.015450	-2.682581	0.164795	-0.029785	-0.025818	0.999904	-0.003483	0.000077	-0.013412	
53832	    0	16.024595	-2.611944	-1.269856	-0.534456	0.018883	-2.669417	0.159877	-0.028289	-0.012640	0.999907	-0.002672	0.000094	-0.013347	
53833	    0	15.508858	-3.981268	-0.024632	-0.393689	0.023080	-2.658924	0.154541	-0.041870	-0.000183	0.999909	-0.001968	0.000115	-0.013294	
53834	    0	14.711575	-5.601692	0.959790	-0.243194	0.060083	-2.633362	0.146364	-0.057936	0.009624	0.999912	-0.001216	0.000300	-0.013166	
53835	    0	13.813553	-6.108528	2.032178	-0.171666	0.073435	-2.613905	0.137329	-0.062866	0.020325	0.999913	-0.000858	0.000367	-0.013069	
53836	    0	13.277266	-6.925423	2.394843	-0.323304	0.066378	-2.547334	0.131885	-0.070899	0.024018	0.999917	-0.001616	0.000332	-0.012736	
53837	    0	11.732809	-7.727229	2.307383	-0.587288	0.083926	-2.414766	0.116394	-0.078613	0.023254	0.999922	-0.002936	0.000420	-0.012074	
53838	    0	10.008844	-9.399782	2.640919	-0.697915	0.125697	-2.251868	0.099039	-0.095024	0.026677	0.999929	-0.003489	0.000628	-0.011259	
53839	    0	7.924829	-13.304254	3.405341	-0.940724	0.189404	-2.006572	0.077942	-0.133667	0.034607	0.999938	-0.004704	0.000947	-0.010033	
53840	    0	5.367926	-16.597921	2.477497	-1.129361	0.326925	-1.703483	0.052305	-0.166286	0.025627	0.999946	-0.005647	0.001635	-0.008517	
53841	    0	3.676677	-19.155247	2.740826	-0.982678	0.502974	-1.308457	0.035583	-0.191650	0.028259	0.999963	-0.004913	0.002515	-0.006542	
53842	    0	2.908277	-21.456306	3.588616	-0.695042	0.642399	-0.825697	0.028314	-0.214555	0.036540	0.999980	-0.003475	0.003212	-0.004128	
53843	    0	2.339518	-20.823588	3.762293	-0.124360	0.805857	-0.339509	0.023193	-0.208252	0.037659	0.999990	-0.000622	0.004029	-0.001698	
53844	    0	1.684674	-17.989187	3.898298	0.532534	0.919537	0.135422	0.017146	-0.179983	0.038425	0.999985	0.002663	0.004598	0.000677	
53845	    0	1.647352	-14.816035	3.524590	0.835616	0.955971	0.607305	0.017090	-0.148254	0.034546	0.999975	0.004178	0.004780	0.003036	
53846	    0	1.326101	-11.847744	3.490237	0.635917	1.034175	0.996600	0.014030	-0.118519	0.034454	0.999969	0.003180	0.005171	0.004983	
53847	    0	1.489744	-7.563876	4.289676	0.379186	1.167503	1.264207	0.015625	-0.075623	0.042664	0.999961	0.001896	0.005837	0.006321	
53848	    0	2.816305	-4.323952	4.813225	0.063325	1.320861	1.519992	0.028808	-0.043037	0.047930	0.999949	0.000317	0.006604	0.007600	
53849	    0	4.774390	-3.030269	3.020981	-0.272375	1.429207	1.729621	0.048218	-0.029846	0.029907	0.999936	-0.001362	0.007146	0.008648	
53850	    0	7.873359	-3.782686	-0.807568	-0.571455	1.316864	1.866384	0.079027	-0.037114	-0.008489	0.999930	-0.002857	0.006584	0.009332	
53851	    0	16.446290	-5.276611	-5.521303	-0.423251	1.051357	2.183588	0.164734	-0.051086	-0.055969	0.999924	-0.002116	0.005257	0.010918	
53852	    0	25.028723	-5.316861	-8.287430	0.430501	1.000623	2.361364	0.250471	-0.050032	-0.084237	0.999915	0.002152	0.005003	0.011806	
53853	    0	24.813312	-5.722431	-7.110828	1.223991	1.104014	2.473541	0.248413	-0.053711	-0.072815	0.999889	0.006120	0.005520	0.012367	
53854	    0	21.400216	-6.286486	-3.901921	1.727950	1.356762	2.596599	0.214518	-0.059733	-0.040998	0.999855	0.008639	0.006783	0.012982	
53855	    0	18.014182	-2.425567	0.284305	1.932642	1.557444	2.888663	0.180481	-0.021667	0.001221	0.999818	0.009663	0.007787	0.014442	
53856	    0	17.936841	0.547264	2.324555	1.845666	1.460930	3.084567	0.179421	0.008033	0.022001	0.999811	0.009228	0.007304	0.015422	
53857	    0	18.895415	3.687096	1.075804	1.134549	1.220957	3.096931	0.188416	0.039734	0.009827	0.999845	0.005672	0.006104	0.015484	
53858	    0	20.306768	5.993490	-1.216057	0.256167	0.974121	2.904434	0.202106	0.062891	-0.013067	0.999882	0.001281	0.004870	0.014522	
53859	    0	22.153584	6.200863	-2.862158	-0.491160	0.745419	2.831372	0.220520	0.065063	-0.029602	0.999889	-0.002456	0.003727	0.014156	
53860	    0	22.817477	4.548594	-3.385089	-0.793870	0.560974	2.937243	0.227379	0.048693	-0.034678	0.999880	-0.003969	0.002805	0.014686	
53861	    0	22.232993	1.911110	-3.338215	-0.611141	0.439663	3.109874	0.221924	0.022461	-0.033936	0.999871	-0.003056	0.002198	0.015549	
53862	    0	21.326561	-0.392905	-3.093648	-0.147063	0.374810	3.167096	0.213234	-0.000575	-0.031335	0.999872	-0.000735	0.001874	0.015835	
53863	    0	20.257391	-1.279201	-2.486607	0.482960	0.311483	3.047302	0.202698	-0.009644	-0.025208	0.999879	0.002415	0.001557	0.015236	
53864	    0	19.465791	-0.216866	-2.224182	1.200341	0.184257	2.783119	0.194641	0.000674	-0.022423	0.999885	0.006001	0.000921	0.013915	
53865	    0	18.177625	1.773301	-2.846395	1.749679	0.096134	2.513221	0.181519	0.020264	-0.028381	0.999882	0.008748	0.000481	0.012566	
53866	    0	16.263831	4.143461	-3.153790	2.054296	0.084690	2.293487	0.162133	0.043617	-0.031166	0.999881	0.010271	0.000423	0.011467	
53867	    0	14.367817	6.307500	-2.948645	2.190673	0.036622	2.076800	0.143005	0.064880	-0.028809	0.999886	0.010953	0.000183	0.010384	
53868	    0	12.248561	8.239470	-3.099030	1.902446	-0.081828	1.870783	0.121718	0.083825	-0.030148	0.999910	0.009512	-0.000409	0.009354	
53869	    0	10.130192	9.716536	-2.949747	1.445990	-0.205235	1.648745	0.100525	0.098206	-0.028687	0.999939	0.007230	-0.001026	0.008244	
53870	    0	7.987284	10.482951	-3.446347	0.888072	-0.327305	1.382462	0.079201	0.105530	-0.033866	0.999965	0.004440	-0.001637	0.006912	
53871	    0	5.695820	11.325180	-4.091101	0.394633	-0.348666	1.114662	0.056396	0.113647	-0.040588	0.999981	0.001973	-0.001743	0.005573	
53872	    0	3.936775	10.959268	-3.644821	0.203705	-0.319482	0.769999	0.039003	0.109780	-0.036274	0.999990	0.001019	-0.001597	0.003850	
53873	    0	2.361823	9.855728	-2.599681	0.262452	-0.420952	0.353242	0.023499	0.098633	-0.025818	0.999995	0.001312	-0.002105	0.001766	
53874	    0	2.007410	10.789264	-2.427128	0.158501	-0.742914	-0.139046	0.020239	0.107898	-0.024111	0.999992	0.000793	-0.003715	-0.000695	
53875	    0	1.509402	11.705510	-2.357443	-0.121880	-1.121528	-0.473025	0.015503	0.117004	-0.023560	0.999981	-0.000609	-0.005608	-0.002365	
53876	    0	0.725111	11.549840	-2.357848	-0.943390	-1.645497	-0.592432	0.007790	0.115363	-0.024060	0.999950	-0.004717	-0.008227	-0.002962	
53877	    0	-0.686038	11.438723	-2.249613	-1.308480	-2.220792	-0.663014	-0.006226	0.114258	-0.023315	0.999911	-0.006542	-0.011104	-0.003315	
53878	    0	-1.198331	7.777638	-2.671287	-0.524727	-2.562219	-0.653477	-0.011384	0.077744	-0.027065	0.999908	-0.002624	-0.012811	-0.003267	
53879	    0	0.802341	0.054592	-0.742806	0.822665	-2.512437	-0.664541	0.008118	0.000549	-0.007324	0.999907	0.004113	-0.012562	-0.003323	
53880	    0	2.607080	-7.701658	1.631556	1.372566	-2.086889	-0.688763	0.025637	-0.077216	0.016055	0.999916	0.006863	-0.010434	-0.003444	
53881	    0	3.323781	-12.660358	2.707972	0.853170	-1.557183	-0.687419	0.032593	-0.126831	0.026794	0.999954	0.004266	-0.007786	-0.003437	
53882	    0	3.893318	-15.583353	2.221461	-0.170137	-1.292812	-0.567822	0.038345	-0.155924	0.022596	0.999974	-0.000851	-0.006464	-0.002839	
53883	    0	4.785561	-16.483201	-0.276515	-0.885020	-1.369301	-0.318149	0.047607	-0.164917	-0.001709	0.999965	-0.004425	-0.006846	-0.001591	
53884	    0	5.457890	-13.583959	-0.144303	-1.242082	-1.318568	0.084878	0.054641	-0.135820	-0.000239	0.999958	-0.006210	-0.006593	0.000424	
53885	    0	3.314710	-8.083244	0.401854	-1.545741	-1.076335	0.653087	0.033386	-0.080688	0.004822	0.999949	-0.007729	-0.005382	0.003265	
53886	    0	-0.676934	-4.018919	5.086944	-2.555747	-0.885995	1.083412	-0.006781	-0.039572	0.051348	0.999893	-0.012778	-0.004430	0.005417	
53887	    0	-1.998822	-5.859518	-5.039863	-3.505774	-2.062377	1.043778	-0.019165	-0.059570	-0.049561	0.999779	-0.017528	-0.010311	0.005219	
53888	    0	5.711876	10.527235	2.904758	-2.041476	-0.105288	-0.762955	0.057506	0.105343	0.028003	0.999940	-0.010207	-0.000526	-0.003815	
53889	    0	36.245764	9.960940	15.889388	4.262391	-0.862207	-2.176881	0.362793	0.092224	0.162476	0.999704	0.021310	-0.004311	-0.010883	
53890	    0	34.262076	-38.143410	5.504266	2.510155	-1.179925	-0.562877	0.341230	-0.383063	0.052258	0.999900	0.012550	-0.005899	-0.002814	
53891	    0	23.941821	-29.199534	-19.319828	-0.015068	-0.101472	1.332865	0.241455	-0.290405	-0.193054	0.999977	-0.000075	-0.000507	0.006664	
53892	    0	15.452758	7.512882	13.034354	0.580602	1.222813	0.645262	0.155079	0.075252	0.129615	0.999971	0.002903	0.006114	0.003226	
53893	    0	1.910819	51.974544	3.381140	-0.494196	-0.054932	0.796512	0.017029	0.519897	0.032532	0.999989	-0.002471	-0.000275	0.003983	
53894	    0	-5.408194	44.701279	-11.180046	-1.924929	-0.524911	0.213627	-0.054257	0.445850	-0.116238	0.999949	-0.009624	-0.002625	0.001068	
53895	    0	8.664565	14.459542	-15.139075	-3.510479	0.087934	-0.985009	0.087280	0.141479	-0.153931	0.999833	-0.017551	0.000440	-0.004925	
53896	    0	15.557806	-2.664110	-13.126867	-3.334994	0.309961	-1.463018	0.155164	-0.029963	-0.131028	0.999832	-0.016674	0.001550	-0.007315	
53897	    0	10.507730	-0.915457	-12.839261	-1.785895	0.110629	-1.654857	0.104919	-0.011169	-0.128357	0.999926	-0.008929	0.000553	-0.008274	
53898	    0	9.946592	0.323511	-11.235609	-0.707449	-0.217251	-2.039759	0.099611	0.001822	-0.112256	0.999941	-0.003537	-0.001086	-0.010199	
53899	    0	12.575023	1.454301	-10.639940	-0.509463	-0.272375	-2.116436	0.126038	0.012939	-0.106262	0.999939	-0.002547	-0.001362	-0.010582	
53900	    0	14.337183	2.126946	-9.172766	-0.783936	-0.187115	-2.043002	0.143662	0.019444	-0.091672	0.999939	-0.003920	-0.000936	-0.010215	
53901	    0	16.542246	-1.043510	-8.879784	-0.629247	-0.240331	-2.100415	0.165405	-0.012451	-0.088562	0.999939	-0.003146	-0.001202	-0.010502	
53902	    0	15.245267	0.721452	-11.096851	-0.531207	-0.294310	-2.110142	0.152678	0.005310	-0.110760	0.999939	-0.002656	-0.001472	-0.010550	
53903	    0	12.001473	6.895761	-11.276672	-0.490581	-0.232511	-2.253774	0.120911	0.067322	-0.112793	0.999932	-0.002453	-0.001163	-0.011269	
53904	    0	11.953624	7.862057	-9.884794	-0.658054	-0.111965	-2.533794	0.120572	0.076772	-0.099035	0.999914	-0.003290	-0.000560	-0.012669	
53905	    0	14.709598	4.248649	-7.081517	-0.839261	-0.004387	-2.667323	0.147644	0.040222	-0.070984	0.999902	-0.004196	-0.000022	-0.013336	
53906	    0	17.538985	-0.629337	-5.192373	-0.863676	-0.030137	-2.684873	0.175290	-0.008871	-0.051863	0.999900	-0.004318	-0.000151	-0.013424	
53907	    0	17.242490	-2.178073	-3.342068	-0.762200	-0.007439	-2.626882	0.172119	-0.024170	-0.033325	0.999906	-0.003811	-0.000037	-0.013134	
53908	    0	16.417758	-1.356629	-0.853521	-0.636883	0.029374	-2.586060	0.163982	-0.015715	-0.008512	0.999911	-0.003184	0.000147	-0.012930	
53909	    0	16.864792	-2.352650	0.785428	-0.686665	0.078776	-2.535321	0.168335	-0.025635	0.007874	0.999913	-0.003433	0.000394	-0.012676	
53910	    0	16.104711	-4.426238	2.286394	-0.696392	0.118450	-2.452535	0.160502	-0.046153	0.022927	0.999918	-0.003482	0.000592	-0.012262	
53911	    0	14.800981	-5.173486	3.168409	-0.637643	0.154881	-2.401032	0.147400	-0.053406	0.031738	0.999922	-0.003188	0.000774	-0.012005	
53912	    0	13.928388	-5.382204	4.094985	-0.736637	0.234419	-2.342474	0.138690	-0.055298	0.040989	0.999924	-0.003683	0.001172	-0.011712	
53913	    0	13.013843	-7.121526	4.358867	-1.002528	0.289352	-2.240810	0.129395	-0.072449	0.043762	0.999923	-0.005013	0.001447	-0.011204	
53914	    0	11.567201	-9.079111	3.327361	-1.222641	0.338372	-2.084212	0.114776	-0.091785	0.033638	0.999925	-0.006113	0.001692	-0.010421	
53915	    0	8.596990	-12.012324	3.111545	-1.468696	0.329026	-1.963093	0.084839	-0.120728	0.031860	0.999923	-0.007343	0.001645	-0.009815	
53916	    0	5.777493	-16.655671	2.281350	-1.797152	0.348482	-1.746415	0.056360	-0.166840	0.024213	0.999920	-0.008986	0.001742	-0.008732	
53917	    0	3.378274	-21.090264	1.197262	-1.867719	0.534261	-1.335175	0.032410	-0.210999	0.013855	0.999930	-0.009338	0.002671	-0.006676	
53918	    0	1.689868	-23.109879	1.750878	-1.415654	0.799572	-0.867856	0.015970	-0.231038	0.019079	0.999957	-0.007078	0.003998	-0.004339	
53919	    0	0.750446	-23.371005	2.987705	-0.526240	0.962072	-0.331118	0.007263	-0.233643	0.030457	0.999983	-0.002631	0.004810	-0.001656	
53920	    0	0.303032	-22.180982	2.407848	0.433733	0.974469	0.202180	0.003370	-0.221858	0.023582	0.999985	0.002169	0.004872	0.001011	
53921	    0	1.018746	-17.582204	2.055415	1.171317	1.013196	0.655373	0.010864	-0.175903	0.019470	0.999964	0.005857	0.005066	0.003277	
53922	    0	1.902802	-11.690009	3.016685	1.208133	1.157397	0.950637	0.019755	-0.116986	0.029347	0.999953	0.006041	0.005787	0.004753	
53923	    0	3.386720	-6.121447	4.578414	0.679027	1.324674	1.233692	0.034546	-0.061157	0.045349	0.999953	0.003395	0.006623	0.006168	
53924	    0	4.319025	-3.101199	4.733510	0.224690	1.392961	1.457812	0.043743	-0.030747	0.046997	0.999949	0.001123	0.006965	0.007289	
53925	    0	5.276371	-3.139537	2.139212	-0.241093	1.404789	1.602967	0.053162	-0.030945	0.021057	0.999942	-0.001205	0.007024	0.008015	
53926	    0	10.069978	-4.248569	-1.659870	-0.534069	1.237133	1.809159	0.100974	-0.041618	-0.017111	0.999936	-0.002670	0.006186	0.009046	
53927	    0	19.062235	-4.727410	-5.298339	-0.218206	1.135471	2.079822	0.190796	-0.045349	-0.054016	0.999928	-0.001091	0.005677	0.010399	
53928	    0	24.945376	-4.306900	-6.321734	0.484480	1.152261	2.221358	0.249540	-0.040142	-0.064754	0.999918	0.002422	0.005761	0.011106	
53929	    0	23.387788	-5.098235	-4.978942	1.296281	1.254509	2.340783	0.234131	-0.047913	-0.051575	0.999890	0.006481	0.006272	0.011703	
53930	    0	19.473536	-3.719408	-2.287722	1.763620	1.449274	2.535943	0.195010	-0.034511	-0.024602	0.999854	0.008818	0.007246	0.012679	
53931	    0	19.117687	-0.367106	0.361847	1.869309	1.468170	2.844401	0.191223	-0.000977	0.002197	0.999827	0.009346	0.007340	0.014221	
53932	    0	21.672483	2.731396	1.094682	1.554193	1.264832	3.031134	0.216343	0.030516	0.009807	0.999834	0.007771	0.006324	0.015155	
53933	    0	22.339962	5.529747	-0.298360	0.788341	1.031539	2.945836	0.222534	0.058594	-0.003906	0.999870	0.003942	0.005157	0.014729	
53934	    0	23.023079	7.675073	-2.269227	-0.054552	0.859482	2.795510	0.229028	0.079951	-0.023700	0.999892	-0.000273	0.004297	0.013977	
53935	    0	23.952142	7.328691	-3.197490	-0.708606	0.702693	2.820692	0.238342	0.076538	-0.033081	0.999887	-0.003543	0.003513	0.014103	
53936	    0	23.000869	4.763565	-2.990080	-0.942843	0.568796	3.035868	0.229165	0.050975	-0.030788	0.999869	-0.004714	0.002844	0.015179	
53937	    0	21.431115	1.808262	-2.551648	-0.675804	0.445577	3.202965	0.213928	0.021423	-0.026062	0.999863	-0.003379	0.002228	0.016014	
53938	    0	19.767106	-0.019806	-1.936981	-0.074199	0.343146	3.147448	0.197608	0.002905	-0.019710	0.999874	-0.000371	0.001716	0.015737	
53939	    0	18.370562	0.042305	-1.354776	0.753049	0.277148	2.872574	0.183655	0.003113	-0.013794	0.999888	0.003765	0.001386	0.014362	
53940	    0	16.922936	1.683321	-1.253923	1.566181	0.210960	2.499862	0.168987	0.019045	-0.012574	0.999890	0.007831	0.001055	0.012499	
53941	    0	15.037000	3.573404	-1.807173	2.140890	0.113110	2.146994	0.149963	0.037537	-0.017761	0.999885	0.010704	0.000566	0.010735	
53942	    0	13.195666	5.622388	-2.658809	2.368444	-0.007057	1.841233	0.131431	0.057745	-0.025906	0.999887	0.011842	-0.000035	0.009206	
53943	    0	11.394167	7.943382	-3.293370	2.316359	-0.145535	1.551869	0.113342	0.080688	-0.031921	0.999902	0.011581	-0.000728	0.007759	
53944	    0	9.465464	9.706513	-3.686940	1.996279	-0.286681	1.286156	0.094078	0.098032	-0.035759	0.999928	0.009981	-0.001433	0.006431	
53945	    0	7.436382	10.686894	-3.999540	1.524376	-0.475128	1.013199	0.073914	0.107544	-0.039001	0.999955	0.007622	-0.002376	0.005066	
53946	    0	5.161870	11.361570	-4.794512	0.870139	-0.669484	0.740057	0.051356	0.114013	-0.047277	0.999978	0.004351	-0.003347	0.003700	
53947	    0	2.816082	12.582609	-5.716246	0.080872	-0.745204	0.472261	0.028076	0.125916	-0.057007	0.999990	0.000404	-0.003726	0.002361	
53948	    0	1.254427	12.320178	-4.965146	-0.329018	-0.617982	0.157738	0.012601	0.123130	-0.049815	0.999993	-0.001645	-0.003090	0.000789	
53949	    0	0.336655	11.102267	-3.977735	-0.598909	-0.543787	-0.116730	0.003540	0.110901	-0.040100	0.999991	-0.002995	-0.002719	-0.000584	
53950	    0	1.092488	10.208290	-3.219364	-0.981338	-0.666623	-0.519756	0.011298	0.101894	-0.032657	0.999979	-0.004907	-0.003333	-0.002599	
53951	    0	0.688705	10.650583	-2.923321	-1.440260	-0.847638	-0.814831	0.007446	0.106262	-0.029968	0.999956	-0.007201	-0.004238	-0.004074	
53952	    0	-0.910940	10.700603	-1.897179	-1.806495	-1.463354	-0.769062	-0.008554	0.106862	-0.020001	0.999925	-0.009032	-0.007317	-0.003845	
53953	    0	-2.619982	10.001781	-0.784164	-1.291696	-2.323031	-0.566881	-0.025818	0.100037	-0.008789	0.999907	-0.006458	-0.011615	-0.002834	
53954	    0	-2.356890	4.336003	-0.067491	0.303471	-3.086025	-0.367752	-0.023476	0.043405	-0.000972	0.999878	0.001517	-0.015429	-0.001839	
53955	    0	1.436671	-7.276782	2.065598	2.046333	-3.295153	-0.318166	0.013916	-0.072998	0.020142	0.999810	0.010231	-0.016475	-0.001591	
53956	    0	5.781050	-18.058986	3.786388	2.987291	-2.488106	-0.565756	0.056844	-0.181297	0.035871	0.999806	0.014935	-0.012440	-0.002829	
53957	    0	6.023661	-23.864054	2.977025	1.958512	-1.145008	-0.727861	0.059204	-0.239136	0.027771	0.999928	0.009792	-0.005725	-0.003639	
53958	    0	7.041250	-24.038901	-3.239695	0.850111	-0.138284	-0.861936	0.069399	-0.240549	-0.033371	0.999981	0.004251	-0.000691	-0.004310	
53959	    0	5.093052	-16.590706	-1.017039	0.710300	0.654033	-0.579074	0.050415	-0.166016	-0.010925	0.999984	0.003551	0.003270	-0.002895	
53960	    0	1.881268	-8.304996	5.210605	-0.554467	-0.128937	0.093842	0.018818	-0.082896	0.052348	0.999995	-0.002772	-0.000645	0.000469	
53961	    0	-1.402688	-1.504957	8.719722	-2.750309	-0.739316	0.942266	-0.014282	-0.013916	0.087341	0.999887	-0.013751	-0.003696	0.004711	
53962	    0	1.182613	-2.583264	1.770751	-2.715658	-2.470358	1.064365	0.011740	-0.025525	0.018201	0.999817	-0.013577	-0.012351	0.005322	
53963	    0	24.716002	5.536940	4.340303	0.241854	-0.286677	-1.248941	0.247437	0.053772	0.043823	0.999978	0.001209	-0.001433	-0.006245	
53964	    0	33.229519	-19.574288	0.750886	4.526557	0.016595	-1.314094	0.330999	-0.198023	0.003016	0.999722	0.022631	0.000083	-0.006570	
53965	    0	27.458814	-37.859305	-5.625156	-0.258639	-0.690276	1.326764	0.277283	-0.376831	-0.054810	0.999970	-0.001293	-0.003451	0.006634	
53966	    0	12.349875	3.197145	-2.160499	0.389101	0.750737	0.853353	0.123279	0.032540	-0.022005	0.999982	0.001945	0.003754	0.004267	
53967	    0	0.961975	41.769407	-2.075970	-0.021362	0.203133	0.767519	0.007996	0.417725	-0.020813	0.999991	-0.000107	0.001016	0.003838	
53968	    0	-5.595651	43.472218	-6.445189	-1.070219	-0.293733	0.252916	-0.056409	0.434298	-0.066859	0.999984	-0.005351	-0.001469	0.001265	
53969	    0	4.128901	21.761772	-14.774680	-2.327785	-0.276000	-0.572218	0.042114	0.215759	-0.150208	0.999927	-0.011639	-0.001380	-0.002861	
53970	    0	14.571322	1.044289	-13.351791	-2.652267	0.084880	-1.378111	0.145716	0.007667	-0.133694	0.999887	-0.013261	0.000424	-0.006890	
53971	    0	12.191097	0.709671	-11.780791	-1.297021	0.020790	-1.676972	0.121948	0.005310	-0.117859	0.999944	-0.006485	0.000104	-0.008385	
53972	    0	11.232283	3.579351	-10.088070	-0.401886	-0.359733	-2.122158	0.112874	0.034395	-0.100748	0.999940	-0.002009	-0.001799	-0.010611	
53973	    0	12.122395	5.147874	-8.754770	-0.170902	-0.510227	-2.226306	0.122009	0.050049	-0.087280	0.999934	-0.000854	-0.002551	-0.011131	
53974	    0	14.255194	5.188148	-8.921258	-0.498783	-0.599493	-2.161837	0.143367	0.050113	-0.088910	0.999933	-0.002494	-0.002997	-0.010809	
53975	    0	16.630336	3.178150	-8.878022	-0.659958	-0.528538	-2.191212	0.166870	0.029663	-0.088440	0.999930	-0.003300	-0.002643	-0.010956	
53976	    0	16.730562	0.883277	-9.834677	-0.552953	-0.552762	-2.217153	0.167659	0.006704	-0.097904	0.999930	-0.002765	-0.002764	-0.011086	
53977	    0	13.642965	5.563508	-10.741229	-0.374612	-0.491154	-2.336940	0.137329	0.053833	-0.107178	0.999927	-0.001873	-0.002456	-0.011684	
53978	    0	12.291727	9.413722	-10.089722	-0.446713	-0.389873	-2.502701	0.124277	0.092362	-0.100863	0.999917	-0.002234	-0.001949	-0.012513	
53979	    0	13.999646	7.314328	-8.348186	-0.672171	-0.235565	-2.670373	0.141052	0.070984	-0.083557	0.999904	-0.003361	-0.001178	-0.013351	
53980	    0	17.276041	1.659242	-6.199086	-0.758959	-0.151448	-2.711004	0.173009	0.014013	-0.061916	0.999900	-0.003795	-0.000757	-0.013555	
53981	    0	18.184747	-1.564895	-4.032162	-0.725578	-0.107387	-2.634512	0.181641	-0.018188	-0.040161	0.999906	-0.003628	-0.000537	-0.013172	
53982	    0	16.870001	-0.492661	-1.552969	-0.574701	-0.147824	-2.606279	0.168628	-0.007169	-0.015387	0.999910	-0.002873	-0.000739	-0.013031	
53983	    0	16.520160	-0.166354	0.122060	-0.537888	-0.137905	-2.571943	0.165161	-0.003784	0.001343	0.999913	-0.002689	-0.000690	-0.012859	
53984	    0	16.148415	-1.676580	0.913146	-0.683613	-0.143246	-2.483818	0.161253	-0.018738	0.009309	0.999916	-0.003418	-0.000716	-0.012419	
53985	    0	15.410451	-3.780825	1.559786	-0.713940	-0.092318	-2.418582	0.153625	-0.039612	0.015808	0.999920	-0.003570	-0.000462	-0.012093	
53986	    0	14.384045	-4.876714	1.937920	-0.750180	-0.015068	-2.383676	0.143245	-0.050404	0.019577	0.999922	-0.003751	-0.000075	-0.011918	
53987	    0	13.305879	-5.249055	2.606725	-0.939775	0.018311	-2.301848	0.132446	-0.053894	0.026306	0.999922	-0.004699	0.000092	-0.011509	
53988	    0	12.325164	-5.480866	1.909937	-1.203568	0.087168	-2.179202	0.122654	-0.056031	0.019381	0.999922	-0.006018	0.000436	-0.010896	
53989	    0	10.889386	-6.684880	1.075749	-1.423682	0.126842	-2.030234	0.108215	-0.067871	0.011169	0.999923	-0.007118	0.000634	-0.010151	
53990	    0	9.521747	-11.271047	0.382710	-1.686903	0.146870	-1.847506	0.094174	-0.113546	0.004713	0.999921	-0.008434	0.000734	-0.009237	
53991	    0	7.724850	-15.949977	-0.393174	-1.820992	0.230414	-1.647228	0.075928	-0.160156	-0.002563	0.999924	-0.009105	0.001152	-0.008236	
53992	    0	5.758124	-19.079991	0.588073	-1.433207	0.403411	-1.424242	0.056234	-0.191155	0.007135	0.999947	-0.007166	0.002017	-0.007121	
53993	    0	3.852744	-21.199777	2.844997	-0.783546	0.560956	-1.126109	0.037415	-0.212097	0.029175	0.999972	-0.003918	0.002805	-0.005630	
53994	    0	2.323413	-21.984427	3.302987	0.018311	0.597384	-0.766757	0.022490	-0.219934	0.032942	0.999988	0.000092	0.002987	-0.003834	
53995	    0	0.877910	-19.835882	2.866039	0.808720	0.601390	-0.321199	0.008545	-0.198486	0.027832	0.999986	0.004044	0.003007	-0.001606	
53996	    0	0.792214	-15.952157	3.238019	1.156625	0.662427	0.141908	0.008141	-0.159699	0.031430	0.999977	0.005783	0.003312	0.000710	
53997	    0	1.443081	-12.182259	3.837335	0.577739	0.777440	0.614933	0.014954	-0.121887	0.037964	0.999983	0.002889	0.003887	0.003075	
53998	    0	1.681002	-7.953095	4.998062	0.131417	0.871474	1.025589	0.017435	-0.079475	0.049853	0.999977	0.000657	0.004357	0.005128	
53999	    0	2.825558	-5.238882	6.056919	-0.026703	1.054586	1.363390	0.028931	-0.052185	0.060425	0.999963	-0.000134	0.005273	0.006817	
54000	    0	4.547450	-3.529922	4.970980	-0.424774	1.269936	1.594763	0.046068	-0.034828	0.049493	0.999946	-0.002124	0.006350	0.007974	
54001	    0	7.855710	-3.587598	0.848160	-0.841351	1.301604	1.738778	0.078918	-0.035156	0.008118	0.999931	-0.004207	0.006508	0.008694	
54002	    0	15.559127	-5.102372	-4.214265	-0.670069	1.229319	2.107486	0.155856	-0.049525	-0.042933	0.999920	-0.003350	0.006146	0.010537	
54003	    0	22.258114	-4.984749	-6.315403	0.161939	1.296272	2.294226	0.222717	-0.047241	-0.064636	0.999912	0.000810	0.006481	0.011471	
54004	    0	23.943306	-5.024194	-5.320779	0.932727	1.348734	2.413263	0.239647	-0.047097	-0.055048	0.999893	0.004663	0.006743	0.012066	
54005	    0	21.222534	-4.744091	-2.823022	1.384032	1.454416	2.523913	0.212585	-0.044556	-0.030090	0.999869	0.006920	0.007272	0.012619	
54006	    0	17.594577	-2.092062	0.297096	1.456142	1.568681	2.705899	0.176223	-0.018552	0.001449	0.999850	0.007280	0.007843	0.013529	
54007	    0	16.547852	1.464141	2.214079	1.095825	1.490856	2.880237	0.165405	0.016907	0.020996	0.999853	0.005479	0.007454	0.014400	
54008	    0	17.318098	4.526201	1.169298	0.327696	1.261383	2.919131	0.172565	0.047766	0.010680	0.999872	0.001638	0.006307	0.014595	
54009	    0	18.822903	5.655960	-1.464812	-0.505849	1.014177	2.860373	0.187317	0.059204	-0.015747	0.999881	-0.002529	0.005071	0.014301	
54010	    0	21.789750	4.702316	-3.281788	-1.012079	0.784714	2.806012	0.217079	0.049903	-0.033918	0.999881	-0.005060	0.003923	0.014030	
54011	    0	23.305577	3.040037	-3.853968	-1.129196	0.554107	2.861139	0.232483	0.033508	-0.039368	0.999877	-0.005646	0.002770	0.014305	
54012	    0	22.179114	1.372640	-3.711660	-0.893439	0.385873	2.990464	0.221482	0.016872	-0.037615	0.999876	-0.004467	0.001929	0.014952	
54013	    0	20.958710	-0.127264	-3.503560	-0.450916	0.229845	3.096135	0.209534	0.001892	-0.035278	0.999877	-0.002254	0.001149	0.015480	
54014	    0	20.173138	-1.313207	-3.155303	0.102810	0.112729	3.071143	0.201883	-0.010016	-0.031672	0.999882	0.000514	0.000564	0.015355	
54015	    0	19.510487	-1.618391	-2.582974	0.709560	-0.001335	2.916827	0.195312	-0.013245	-0.025879	0.999887	0.003548	-0.000007	0.014584	
54016	    0	18.481312	-0.407019	-2.716903	1.333479	-0.077060	2.722272	0.184855	-0.001373	-0.027113	0.999885	0.006667	-0.000385	0.013611	
54017	    0	16.828761	1.446810	-2.613514	1.930318	-0.047876	2.529251	0.168091	0.016846	-0.025940	0.999873	0.009651	-0.000239	0.012646	
54018	    0	14.882466	3.763482	-2.444552	2.247717	-0.079349	2.320200	0.148382	0.039629	-0.023949	0.999869	0.011238	-0.000397	0.011600	
54019	    0	12.820568	6.195227	-2.676932	2.292154	-0.167091	2.106561	0.127563	0.063599	-0.025940	0.999878	0.011460	-0.000835	0.010532	
54020	    0	10.931698	7.901768	-2.973260	2.181510	-0.245293	1.858394	0.108610	0.080346	-0.028728	0.999896	0.010907	-0.001226	0.009292	
54021	    0	9.286241	8.514121	-3.079124	2.026424	-0.295075	1.590773	0.092224	0.086182	-0.029785	0.999915	0.010132	-0.001475	0.007954	
54022	    0	7.487170	9.040504	-3.661789	1.838723	-0.340278	1.258114	0.074361	0.091205	-0.035655	0.999936	0.009193	-0.001701	0.006290	
54023	    0	5.525985	10.347111	-4.234747	1.665523	-0.366026	0.896468	0.054871	0.104065	-0.041382	0.999953	0.008327	-0.001830	0.004482	
54024	    0	3.993137	11.564002	-4.281061	1.372541	-0.369838	0.511747	0.039713	0.116032	-0.041942	0.999971	0.006863	-0.001849	0.002559	
54025	    0	2.973798	12.072267	-4.143656	0.802615	-0.390436	0.155640	0.029724	0.120911	-0.040894	0.999990	0.004013	-0.001952	0.000778	
54026	    0	2.680641	13.222022	-2.822110	0.297547	-0.458527	-0.125504	0.026954	0.132245	-0.027963	0.999995	0.001488	-0.002293	-0.000628	
54027	    0	3.125010	12.842318	-1.084340	-0.011444	-0.690271	-0.417329	0.031555	0.128357	-0.010742	0.999991	-0.000057	-0.003451	-0.002087	
54028	    0	2.054756	11.367074	-1.239780	-0.990307	-1.254859	-0.518614	0.020922	0.113554	-0.012830	0.999964	-0.004951	-0.006274	-0.002593	
54029	    0	-0.520733	10.579457	-2.967413	-2.202686	-1.924775	-0.405899	-0.004700	0.105469	-0.030884	0.999890	-0.011013	-0.009624	-0.002029	
54030	    0	-2.774641	8.081985	-1.856174	-1.940806	-2.427581	-0.275242	-0.027401	0.080670	-0.019679	0.999878	-0.009704	-0.012137	-0.001376	
54031	    0	-1.585616	0.491096	1.818198	-0.170905	-2.912816	-0.218208	-0.016113	0.004944	0.017944	0.999892	-0.000854	-0.014564	-0.001091	
54032	    0	1.662047	-9.554644	5.215988	1.448319	-3.049615	-0.267995	0.015701	-0.095943	0.051710	0.999856	0.007241	-0.015247	-0.001340	
54033	    0	4.190990	-17.129103	4.940025	2.065550	-2.268309	-0.400559	0.041016	-0.171875	0.048096	0.999880	0.010327	-0.011341	-0.002003	
54034	    0	4.381435	-22.293705	0.412076	0.957691	-1.295296	-0.507361	0.043225	-0.223064	0.003334	0.999964	0.004788	-0.006476	-0.002537	
54035	    0	6.182010	-20.050771	-4.277497	0.007057	-0.384522	-0.377655	0.061523	-0.200623	-0.042664	0.999996	0.000035	-0.001923	-0.001888	
54036	    0	5.480418	-12.334445	-0.349393	0.015831	0.202179	0.054741	0.054834	-0.123329	-0.003559	0.999999	0.000079	0.001011	0.000274	
54037	    0	2.222397	-6.112831	5.696032	-0.959020	0.012398	0.566104	0.022400	-0.060791	0.057251	0.999984	-0.004795	0.000062	0.002831	
54038	    0	0.952700	-3.951795	6.202760	-2.696160	-1.489135	1.203592	0.009296	-0.038620	0.062622	0.999863	-0.013480	-0.007445	0.006018	
54039	    0	14.274158	-1.073367	10.967514	-2.629928	-0.084498	0.103000	0.142700	-0.009216	0.109863	0.999913	-0.013149	-0.000422	0.000515	
54040	    0	29.759897	-7.971132	5.665499	2.521218	-0.758959	-1.038967	0.296962	-0.081970	0.056759	0.999899	0.012606	-0.003795	-0.005195	
54041	    0	28.028122	-32.402003	-10.831179	-0.039482	-0.153351	1.001744	0.281982	-0.322632	-0.108032	0.999987	-0.000197	-0.000767	0.005009	
54042	    0	14.741599	0.977560	-2.985683	-0.312809	0.761041	1.462191	0.147224	0.010805	-0.030434	0.999965	-0.001564	0.003805	0.007311	
54043	    0	5.146227	27.569553	2.043617	0.245096	0.571445	1.067359	0.050049	0.275940	0.020630	0.999981	0.001225	0.002857	0.005337	
54044	    0	-5.122297	40.671471	-7.712218	-1.176843	-0.160028	0.613980	-0.052407	0.406092	-0.079555	0.999977	-0.005884	-0.000800	0.003070	
54045	    0	2.432647	29.274763	-11.498151	-2.203415	-0.269895	-0.119021	0.024658	0.291443	-0.118164	0.999938	-0.011017	-0.001349	-0.000595	
54046	    0	13.137067	8.106817	-12.969294	-2.642341	-0.006294	-1.110687	0.131816	0.078614	-0.130738	0.999897	-0.013211	-0.000031	-0.005553	
54047	    0	15.345633	-0.775728	-11.354677	-1.821181	0.002480	-1.589242	0.153381	-0.010010	-0.113464	0.999927	-0.009106	0.000012	-0.007946	
54048	    0	12.781402	-0.213405	-9.242435	-0.717174	-0.238995	-1.796179	0.127896	-0.003613	-0.092260	0.999952	-0.003586	-0.001195	-0.008981	
54049	    0	12.293893	3.845394	-8.355965	-0.378424	-0.416381	-1.924928	0.123474	0.037109	-0.083374	0.999949	-0.001892	-0.002082	-0.009624	
54050	    0	13.606804	6.401621	-8.052862	-0.483903	-0.470932	-1.902994	0.136857	0.062522	-0.080359	0.999949	-0.002419	-0.002355	-0.009515	
54051	    0	15.928542	5.642507	-8.831412	-0.858134	-0.444040	-2.006572	0.160034	0.054443	-0.088196	0.999937	-0.004291	-0.002220	-0.010033	
54052	    0	17.588777	1.654884	-9.703018	-1.013969	-0.473605	-2.043389	0.176270	0.014258	-0.096689	0.999931	-0.005070	-0.002368	-0.010217	
54053	    0	14.456492	4.122677	-10.910903	-1.070430	-0.516332	-2.095845	0.145264	0.039124	-0.108948	0.999927	-0.005352	-0.002582	-0.010479	
54054	    0	12.477503	7.578829	-11.026782	-1.101144	-0.504127	-2.315206	0.125915	0.073728	-0.110361	0.999914	-0.005506	-0.002521	-0.011576	
54055	    0	13.469956	5.445723	-9.913253	-1.164286	-0.472085	-2.595610	0.135620	0.052124	-0.099121	0.999896	-0.005821	-0.002360	-0.012978	
54056	    0	15.834927	1.343706	-8.774612	-1.023141	-0.374045	-2.815735	0.158677	0.010756	-0.087509	0.999886	-0.005116	-0.001870	-0.014078	
54057	    0	17.887560	-1.975366	-6.532326	-0.765829	-0.266276	-2.887071	0.178650	-0.022583	-0.065002	0.999887	-0.003829	-0.001331	-0.014435	
54058	    0	17.775871	-3.448884	-4.757955	-0.652527	-0.198562	-2.813628	0.177296	-0.037140	-0.047285	0.999895	-0.003263	-0.000993	-0.014068	
54059	    0	16.622995	-2.409917	-2.408849	-0.473610	-0.122837	-2.737515	0.165894	-0.026428	-0.023926	0.999903	-0.002368	-0.000614	-0.013687	
54060	    0	16.668427	-3.120537	-0.858135	-0.456824	-0.091556	-2.672468	0.166251	-0.033448	-0.008430	0.999907	-0.002284	-0.000458	-0.013362	
54061	    0	16.406240	-5.514927	0.569791	-0.472273	-0.034143	-2.586439	0.163330	-0.057251	0.005859	0.999913	-0.002361	-0.000171	-0.012932	
54062	    0	15.343709	-6.825681	2.034561	-0.321588	0.048829	-2.520438	0.152566	-0.070150	0.020420	0.999919	-0.001608	0.000244	-0.012602	
54063	    0	14.350480	-7.073377	3.538744	-0.230223	0.097659	-2.456727	0.142639	-0.072449	0.035400	0.999924	-0.001151	0.000488	-0.012283	
54064	    0	13.675798	-6.870541	3.369326	-0.377473	0.067140	-2.355059	0.135948	-0.070246	0.033779	0.999928	-0.001887	0.000336	-0.011775	
54065	    0	12.981145	-6.597099	2.410448	-0.624670	0.127414	-2.205706	0.129089	-0.067322	0.024231	0.999933	-0.003123	0.000637	-0.011028	
54066	    0	10.973299	-7.509983	2.200208	-1.018738	0.275237	-2.082300	0.108974	-0.076124	0.022238	0.999931	-0.005094	0.001376	-0.010411	
54067	    0	8.730855	-9.835811	2.511474	-1.459540	0.463307	-1.906633	0.086426	-0.098999	0.025635	0.999925	-0.007298	0.002316	-0.009533	
54068	    0	6.248154	-13.761968	2.458378	-1.770448	0.649088	-1.669928	0.061413	-0.137912	0.025603	0.999920	-0.008852	0.003245	-0.008349	
54069	    0	4.029135	-17.966537	2.830048	-1.682318	0.752465	-1.354247	0.039185	-0.179688	0.029663	0.999934	-0.008411	0.003762	-0.006771	
54070	    0	2.217663	-20.286519	2.451504	-1.164832	0.810061	-0.986493	0.021278	-0.202825	0.025609	0.999962	-0.005824	0.004050	-0.004932	
54071	    0	0.847383	-19.209845	2.682498	-0.324060	0.893407	-0.560000	0.008057	-0.192078	0.027100	0.999985	-0.001620	0.004467	-0.002800	
54072	    0	0.161203	-16.481982	3.134377	0.442697	0.881580	-0.082207	0.001681	-0.164889	0.030972	0.999988	0.002213	0.004408	-0.000411	
54073	    0	0.777030	-13.725649	3.540841	0.849348	0.872809	0.372317	0.008179	-0.137390	0.034790	0.999979	0.004247	0.004364	0.001862	
54074	    0	0.937994	-10.897518	3.825877	0.832374	0.904854	0.728423	0.009949	-0.109097	0.037761	0.999974	0.004162	0.004524	0.003642	
54075	    0	1.522136	-6.584608	5.087232	0.579268	1.067363	0.959787	0.015808	-0.065918	0.050598	0.999969	0.002896	0.005337	0.004799	
54076	    0	3.144487	-2.558768	6.186099	0.003815	1.321619	1.138320	0.031998	-0.025408	0.061650	0.999962	0.000019	0.006608	0.005692	
54077	    0	4.405715	-1.552572	5.890057	-0.507174	1.554900	1.355769	0.044617	-0.015076	0.058594	0.999943	-0.002536	0.007774	0.006779	
54078	    0	4.784482	-2.257718	3.484258	-0.803013	1.702159	1.509512	0.048307	-0.022075	0.034522	0.999927	-0.004015	0.008511	0.007547	
54079	    0	6.458785	-2.182857	0.637015	-1.213109	1.602410	1.702930	0.064819	-0.021240	0.005981	0.999913	-0.006065	0.008012	0.008514	
54080	    0	15.235508	-3.165742	-4.131717	-1.432656	1.244395	2.054091	0.152411	-0.030392	-0.042045	0.999902	-0.007163	0.006222	0.010270	
54081	    0	23.175306	-4.684835	-8.667311	-0.948361	1.025611	2.230136	0.231812	-0.044678	-0.087646	0.999913	-0.004742	0.005128	0.011150	
54082	    0	23.055717	-7.088067	-9.215263	-0.067522	0.950649	2.377957	0.230937	-0.068168	-0.093226	0.999917	-0.000338	0.004753	0.011889	
54083	    0	22.063492	-8.186174	-7.343266	0.780706	1.147503	2.620793	0.221252	-0.078674	-0.075012	0.999889	0.003903	0.005737	0.013103	
54084	    0	19.136868	-5.539987	-3.702106	1.361536	1.336930	2.974283	0.191907	-0.052289	-0.038666	0.999844	0.006807	0.006684	0.014871	
54085	    0	18.479361	-2.415352	-1.388457	1.690777	1.217917	3.212934	0.185059	-0.021057	-0.015198	0.999816	0.008453	0.006089	0.016064	
54086	    0	20.538595	0.924350	-1.478221	1.504411	0.942093	3.224364	0.205128	0.012668	-0.015662	0.999830	0.007522	0.004710	0.016121	
54087	    0	22.384410	3.908128	-3.313523	0.961539	0.676759	3.118278	0.223083	0.042725	-0.033691	0.999861	0.004807	0.003384	0.015591	
54088	    0	24.697560	5.867663	-4.054077	0.498601	0.477047	3.041391	0.245947	0.062524	-0.040976	0.999878	0.002493	0.002385	0.015206	
54089	    0	24.896885	5.188485	-3.139111	0.191697	0.370804	3.166333	0.248047	0.055847	-0.031799	0.999872	0.000958	0.001854	0.015831	
54090	    0	23.812159	3.477144	-2.305347	0.134093	0.290503	3.362434	0.237458	0.038783	-0.023374	0.999857	0.000670	0.001452	0.016811	
54091	    0	22.069505	1.375628	-1.633838	0.435850	0.270857	3.378460	0.220398	0.017517	-0.016602	0.999853	0.002179	0.001354	0.016891	
54092	    0	20.495572	0.644490	-0.812200	0.935786	0.264942	3.092329	0.204812	0.009651	-0.008353	0.999868	0.004679	0.001325	0.015461	
54093	    0	19.030857	2.020574	-0.853056	1.429041	0.244341	2.693281	0.190002	0.022827	-0.008606	0.999883	0.007145	0.001222	0.013466	
54094	    0	16.991050	4.114928	-1.092954	1.882433	0.245485	2.315035	0.169405	0.043214	-0.010737	0.999887	0.009412	0.001227	0.011575	
54095	    0	14.682104	6.149200	-1.496425	2.105215	0.218208	2.000498	0.146179	0.063110	-0.014465	0.999893	0.010526	0.001091	0.010002	
54096	    0	12.260027	8.313032	-1.896038	2.118367	0.118832	1.713424	0.121870	0.084372	-0.018144	0.999907	0.010592	0.000594	0.008567	
54097	    0	10.046246	10.286493	-2.062927	1.852650	-0.035096	1.419863	0.099731	0.103760	-0.019653	0.999931	0.009263	-0.000175	0.007099	
54098	    0	7.954101	11.588201	-2.610959	1.272598	-0.248340	1.112189	0.078926	0.116485	-0.025271	0.999963	0.006363	-0.001242	0.005561	
54099	    0	5.866509	12.399415	-3.657396	0.498393	-0.450899	0.836186	0.058228	0.124329	-0.036133	0.999985	0.002492	-0.002254	0.004181	
54100	    0	4.040761	12.467979	-4.022762	-0.079727	-0.530053	0.547601	0.040173	0.124774	-0.040171	0.999992	-0.000399	-0.002650	0.002738	
54101	    0	2.127691	11.366330	-4.127426	-0.508119	-0.555231	0.267030	0.021240	0.113586	-0.041504	0.999991	-0.002541	-0.002776	0.001335	
54102	    0	1.136586	11.227211	-4.139410	-0.995260	-0.647358	-0.066948	0.011539	0.112061	-0.041915	0.999982	-0.004976	-0.003237	-0.000335	
54103	    0	2.484696	11.800567	-3.081987	-1.300825	-0.733002	-0.521093	0.025269	0.117737	-0.031494	0.999969	-0.006504	-0.003665	-0.002605	
54104	    0	1.887696	10.116198	-2.148339	-1.982162	-0.925276	-0.808353	0.019387	0.100865	-0.022395	0.999931	-0.009911	-0.004626	-0.004042	
54105	    0	0.043055	8.335535	-1.494341	-2.826059	-1.557804	-0.871317	0.000916	0.083130	-0.016113	0.999860	-0.014130	-0.007789	-0.004356	
54106	    0	-1.597291	8.922557	-1.110173	-1.889885	-2.541083	-0.831069	-0.015452	0.089179	-0.012143	0.999866	-0.009449	-0.012705	-0.004155	
54107	    0	-0.851390	2.967038	-1.012527	0.479340	-3.331921	-0.704991	-0.008240	0.029724	-0.010193	0.999851	0.002397	-0.016659	-0.003525	
54108	    0	2.734354	-8.397877	-0.148819	2.626049	-3.330487	-0.704438	0.027080	-0.084049	-0.002139	0.999768	0.013129	-0.016651	-0.003522	
54109	    0	5.496936	-17.848666	-0.714039	3.030029	-2.531605	-0.846157	0.054321	-0.178589	-0.009155	0.999796	0.015149	-0.012657	-0.004230	
54110	    0	6.010141	-20.638439	-0.192675	2.031000	-1.292454	-0.819801	0.059275	-0.206597	-0.003639	0.999919	0.010155	-0.006462	-0.004099	
54111	    0	6.982868	-20.920622	-0.790857	1.270307	0.112344	-0.932322	0.068848	-0.209473	-0.009277	0.999969	0.006351	0.000562	-0.004662	
54112	    0	5.454271	-16.655077	1.426075	1.268404	0.802432	-0.965894	0.053791	-0.166897	0.012986	0.999960	0.006342	0.004012	-0.004829	
54113	    0	3.330559	-9.391269	5.998262	0.360299	0.360108	-0.576784	0.033142	-0.094116	0.059753	0.999992	0.001801	0.001801	-0.002884	
54114	    0	1.459543	-1.836904	5.275620	-1.185808	-0.675016	0.259211	0.014441	-0.018037	0.052913	0.999975	-0.005929	-0.003375	0.001296	
54115	    0	-2.910115	0.353954	4.361483	-2.043773	-0.817891	0.950645	-0.029297	0.003845	0.043457	0.999928	-0.010219	-0.004089	0.004753	
54116	    0	-3.862032	-4.119870	1.944600	-2.477210	-2.397669	1.130929	-0.038621	-0.041176	0.019493	0.999835	-0.012385	-0.011988	0.005654	
54117	    0	5.583525	3.550941	-6.206290	-2.024695	-0.791186	-0.756853	0.056213	0.034668	-0.062195	0.999933	-0.010123	-0.003956	-0.003784	
54118	    0	35.388066	12.456602	8.907635	4.498196	-0.492339	-2.236031	0.355003	0.118544	0.092661	0.999681	0.022489	-0.002461	-0.011179	
54119	    0	32.734062	-32.690188	11.156621	3.629521	-0.930651	-0.589025	0.325867	-0.329834	0.107117	0.999820	0.018147	-0.004653	-0.002945	
54120	    0	21.819805	-28.532840	-21.560106	-0.707254	-0.914967	1.282708	0.221005	-0.284675	-0.213587	0.999962	-0.003536	-0.004575	0.006413	
54121	    0	10.882562	9.515539	3.666506	-0.258447	0.864415	0.584414	0.108704	0.095520	0.036072	0.999985	-0.001292	0.004322	0.002922	
54122	    0	2.175015	46.661998	0.074659	-0.233460	-0.076676	0.643541	0.020248	0.466687	0.000210	0.999993	-0.001167	-0.000383	0.003218	
54123	    0	-4.410259	39.502429	-10.063838	-1.387800	-0.633818	0.115968	-0.044006	0.394287	-0.103516	0.999970	-0.006939	-0.003169	0.000580	
54124	    0	8.760500	11.678115	-14.147540	-2.967382	0.072864	-0.927963	0.088087	0.114257	-0.143215	0.999879	-0.014836	0.000364	-0.004640	
54125	    0	15.707176	-2.254352	-10.613501	-2.648836	0.182349	-1.450403	0.156799	-0.025085	-0.105957	0.999886	-0.013244	0.000912	-0.007252	
54126	    0	9.888254	2.712052	-11.372307	-1.423100	-0.041772	-1.589996	0.099113	0.025523	-0.113888	0.999943	-0.007115	-0.000209	-0.007950	
54127	    0	10.497088	5.665883	-10.527648	-0.689711	-0.346953	-2.008095	0.105713	0.055237	-0.105286	0.999942	-0.003448	-0.001735	-0.010040	
54128	    0	13.334709	6.174012	-10.549892	-0.657287	-0.514423	-2.145624	0.134268	0.059957	-0.105353	0.999933	-0.003286	-0.002572	-0.010728	
54129	    0	14.964033	5.154715	-11.037562	-0.971054	-0.518811	-2.095081	0.150452	0.049438	-0.110229	0.999929	-0.004855	-0.002594	-0.010475	
54130	    0	17.152496	0.654531	-10.029926	-0.745027	-0.447855	-2.149821	0.171803	0.004327	-0.099934	0.999932	-0.003725	-0.002239	-0.010749	
54131	    0	16.601529	0.161945	-11.393975	-0.388917	-0.425730	-2.270560	0.166260	-0.000488	-0.113586	0.999931	-0.001945	-0.002129	-0.011353	
54132	    0	13.473780	6.741260	-10.919158	-0.205045	-0.328072	-2.422966	0.135719	0.065660	-0.109037	0.999925	-0.001025	-0.001640	-0.012115	
54133	    0	13.089370	9.505661	-9.135088	-0.365458	-0.231749	-2.563549	0.132202	0.093201	-0.091370	0.999915	-0.001827	-0.001159	-0.012817	
54134	    0	16.265031	4.766919	-6.624211	-0.718330	-0.102237	-2.642142	0.163293	0.045277	-0.066324	0.999906	-0.003592	-0.000511	-0.013210	
54135	    0	18.002074	-0.652770	-4.587473	-0.879696	-0.069239	-2.560503	0.179932	-0.009033	-0.045776	0.999907	-0.004398	-0.000346	-0.012802	
54136	    0	17.076224	-0.964061	-2.156601	-0.750182	-0.119403	-2.513958	0.170635	-0.011867	-0.021422	0.999913	-0.003751	-0.000597	-0.012569	
54137	    0	17.078591	-0.913510	-0.274915	-0.707074	-0.102237	-2.515483	0.170654	-0.011292	-0.002625	0.999914	-0.003535	-0.000511	-0.012577	
54138	    0	16.557459	-2.379158	1.080765	-0.860239	-0.085452	-2.457879	0.165261	-0.025777	0.010986	0.999915	-0.004301	-0.000427	-0.012289	
54139	    0	15.890189	-3.676085	1.578709	-0.941302	-0.032044	-2.381199	0.158447	-0.038574	0.015991	0.999918	-0.004706	-0.000160	-0.011906	
54140	    0	14.707651	-5.018439	2.607592	-1.032476	0.048067	-2.346866	0.146482	-0.051770	0.026305	0.999917	-0.005162	0.000240	-0.011734	
54141	    0	13.406731	-6.183031	2.820820	-1.235043	0.046541	-2.270571	0.133362	-0.063171	0.028564	0.999916	-0.006175	0.000233	-0.011353	
54142	    0	11.846599	-7.533336	2.257745	-1.492734	0.107578	-2.160134	0.117657	-0.076436	0.023082	0.999913	-0.007463	0.000538	-0.010800	
54143	    0	10.107308	-9.195118	1.458547	-1.653337	0.182538	-2.005825	0.100159	-0.092834	0.015259	0.999915	-0.008266	0.000913	-0.010029	
54144	    0	8.465314	-11.710201	0.898611	-1.657719	0.268943	-1.821565	0.083595	-0.117787	0.009848	0.999923	-0.008288	0.001345	-0.009108	
54145	    0	6.599878	-15.549871	0.930984	-1.604307	0.376138	-1.616705	0.064758	-0.155945	0.010437	0.999933	-0.008021	0.001881	-0.008083	
54146	    0	4.738402	-19.182263	1.292009	-1.426149	0.504121	-1.332496	0.046140	-0.192035	0.014172	0.999949	-0.007131	0.002521	-0.006662	
54147	    0	3.514210	-20.830492	1.778004	-1.076519	0.595290	-0.976573	0.034180	-0.208374	0.018799	0.999969	-0.005383	0.002976	-0.004883	
54148	    0	2.790632	-20.758240	1.968235	-0.524142	0.643733	-0.595668	0.027352	-0.207612	0.020138	0.999987	-0.002621	0.003219	-0.002978	
54149	    0	1.840799	-18.860921	2.653858	0.238038	0.751688	-0.208283	0.018311	-0.188660	0.026245	0.999991	0.001190	0.003758	-0.001041	
54150	    0	1.123780	-15.914626	3.034573	0.905424	0.800138	0.209810	0.011524	-0.159269	0.029579	0.999981	0.004527	0.004001	0.001049	
54151	    0	1.235717	-12.372130	2.924629	1.109516	0.882730	0.637061	0.012878	-0.123840	0.028503	0.999969	0.005548	0.004414	0.003185	
54152	    0	1.353167	-8.827093	3.936533	0.768861	1.045239	0.988590	0.014173	-0.088352	0.038953	0.999967	0.003844	0.005226	0.004943	
54153	    0	1.607564	-5.322522	5.232510	0.155069	1.197067	1.261155	0.016724	-0.053162	0.052185	0.999962	0.000775	0.005985	0.006306	
54154	    0	2.496212	-3.086953	5.235129	-0.363738	1.330399	1.515034	0.025542	-0.030582	0.052238	0.999947	-0.001819	0.006652	0.007575	
54155	    0	4.540751	-3.008815	2.492801	-0.740640	1.396211	1.725808	0.045837	-0.029602	0.024719	0.999931	-0.003703	0.006981	0.008629	
54156	    0	9.533859	-3.798738	-1.560920	-0.962283	1.240573	1.986366	0.095612	-0.037115	-0.016022	0.999919	-0.004811	0.006203	0.009932	
54157	    0	20.144519	-5.037252	-5.582931	-0.581377	1.066811	2.360604	0.201721	-0.048157	-0.056763	0.999911	-0.002907	0.005334	0.011803	
54158	    0	27.257356	-4.341815	-7.781969	0.267800	0.983839	2.454448	0.272691	-0.039967	-0.079216	0.999911	0.001339	0.004919	0.012272	
54159	    0	24.128000	-5.203537	-5.985589	0.992619	1.075210	2.507107	0.241577	-0.048706	-0.061401	0.999894	0.004963	0.005376	0.012535	
54160	    0	20.410363	-5.025422	-2.982143	1.338829	1.300871	2.713708	0.204557	-0.047274	-0.031474	0.999864	0.006694	0.006504	0.013568	
54161	    0	17.936648	-1.632723	0.679523	1.449855	1.400833	3.005383	0.179626	-0.013672	0.005432	0.999836	0.007249	0.007004	0.015026	
54162	    0	18.598505	1.429923	1.570159	1.129017	1.237360	3.079191	0.185829	0.017076	0.014643	0.999846	0.005645	0.006186	0.015395	
54163	    0	19.731548	3.959837	-0.503109	0.342765	0.975842	3.041970	0.196655	0.042603	-0.005920	0.999870	0.001714	0.004879	0.015209	
54164	    0	21.665453	5.270221	-2.700462	-0.449579	0.764113	2.875055	0.215762	0.055746	-0.027953	0.999887	-0.002248	0.003820	0.014375	
54165	    0	23.636864	4.987530	-3.498473	-0.953711	0.556395	2.827562	0.235535	0.053040	-0.035889	0.999885	-0.004768	0.002782	0.014137	
54166	    0	23.508195	3.370263	-3.296621	-1.021809	0.431651	2.947166	0.234481	0.036990	-0.033656	0.999876	-0.005109	0.002158	0.014735	
54167	    0	22.277519	1.445466	-2.472268	-0.629451	0.388543	3.041964	0.222473	0.017761	-0.025208	0.999877	-0.003147	0.001943	0.015209	
54168	    0	20.912485	0.019633	-1.599983	-0.010682	0.344671	2.999420	0.209063	0.003331	-0.016360	0.999886	-0.000053	0.001723	0.014997	
54169	    0	19.824490	-0.217839	-0.573955	0.754574	0.242814	2.790930	0.198242	0.000610	-0.005981	0.999894	0.003773	0.001214	0.013954	
54170	    0	18.429234	0.854234	-0.477730	1.479773	0.086978	2.499096	0.184164	0.010880	-0.004783	0.999894	0.007399	0.000435	0.012495	
54171	    0	16.355794	2.499217	-1.248069	2.003553	-0.012780	2.204977	0.163269	0.026917	-0.012207	0.999888	0.010017	-0.000064	0.011024	
54172	    0	13.914632	4.542435	-2.213497	2.274216	-0.061800	1.922679	0.138706	0.047007	-0.021564	0.999888	0.011371	-0.000309	0.009613	
54173	    0	11.560928	6.958602	-2.998302	2.263715	-0.124935	1.636558	0.115051	0.070862	-0.029114	0.999902	0.011318	-0.000625	0.008183	
54174	    0	9.668550	9.243146	-3.317829	1.924559	-0.241476	1.316291	0.096112	0.093378	-0.032166	0.999930	0.009623	-0.001207	0.006581	
54175	    0	7.861190	10.739109	-3.389102	1.457425	-0.373845	1.018538	0.078125	0.108032	-0.032959	0.999958	0.007287	-0.001869	0.005093	
54176	    0	5.831961	11.183617	-3.947409	0.971039	-0.495152	0.826461	0.057953	0.112266	-0.038786	0.999976	0.004855	-0.002476	0.004132	
54177	    0	3.798817	10.925036	-4.486304	0.589945	-0.563815	0.608828	0.037781	0.109497	-0.044434	0.999987	0.002950	-0.002819	0.003044	
54178	    0	2.405588	10.251776	-4.149020	0.414659	-0.584032	0.313950	0.024015	0.102641	-0.041207	0.999991	0.002073	-0.002920	0.001570	
54179	    0	2.610521	10.635492	-3.280062	0.236702	-0.625612	-0.070954	0.026245	0.106384	-0.032593	0.999994	0.001184	-0.003128	-0.000355	
54180	    0	2.997777	11.047211	-2.175396	-0.197030	-0.724795	-0.448038	0.030304	0.110383	-0.021753	0.999990	-0.000985	-0.003624	-0.002240	
54181	    0	1.881534	10.295213	-1.152492	-0.935182	-1.093303	-0.554662	0.019165	0.102844	-0.011902	0.999969	-0.004676	-0.005466	-0.002773	
54182	    0	0.821941	8.440762	-1.425766	-1.201653	-1.725422	-0.567066	0.008584	0.084296	-0.014691	0.999940	-0.006008	-0.008627	-0.002835	
54183	    0	-0.639282	7.139570	-1.972983	-0.604264	-2.421444	-0.476850	-0.005981	0.071350	-0.020020	0.999919	-0.003021	-0.012107	-0.002384	
54184	    0	0.006619	1.649154	-0.669691	0.878557	-2.811344	-0.330556	0.000187	0.016521	-0.006622	0.999889	0.004393	-0.014056	-0.001653	
54185	    0	2.448409	-7.174396	2.551494	2.313554	-2.832191	-0.390647	0.023987	-0.072083	0.025024	0.999830	0.011567	-0.014160	-0.001953	
54186	    0	4.437685	-14.811746	2.617054	2.636468	-2.154267	-0.588637	0.043669	-0.148579	0.024687	0.999850	0.013182	-0.010771	-0.002943	
54187	    0	5.116170	-16.803154	2.843749	1.871719	-0.936145	-0.661482	0.050476	-0.168457	0.027100	0.999939	0.009358	-0.004681	-0.003307	
54188	    0	6.014459	-17.226877	0.417851	1.022727	0.022316	-0.666622	0.059570	-0.172486	0.003290	0.999981	0.005114	0.000112	-0.003333	
54189	    0	5.941767	-13.142953	1.611543	0.561716	0.614168	-0.398256	0.059204	-0.131592	0.015564	0.999989	0.002809	0.003071	-0.001991	
54190	    0	4.142331	-6.947671	5.529532	-0.351715	0.111771	0.140381	0.041503	-0.069350	0.055394	0.999997	-0.001759	0.000559	0.000702	
54191	    0	1.666266	0.208851	6.474294	-2.188163	-0.530828	0.866720	0.016479	0.002869	0.064758	0.999927	-0.010941	-0.002654	0.004333	
54192	    0	-1.317675	0.399748	5.680346	-3.669468	-1.897586	1.628819	-0.013752	0.004927	0.056590	0.999753	-0.018346	-0.009487	0.008143	
54193	    0	2.544436	1.519945	-2.111248	-4.278142	-0.550695	0.685937	0.025452	0.014832	-0.021362	0.999761	-0.021389	-0.002753	0.003429	
54194	    0	21.413039	8.863991	8.935683	1.217281	0.120164	-0.819023	0.214543	0.087216	0.089762	0.999972	0.006086	0.000601	-0.004095	
54195	    0	29.925986	-23.782435	4.028635	2.491074	-0.966483	-0.509659	0.298462	-0.239075	0.038757	0.999907	0.012455	-0.004832	-0.002548	
54196	    0	20.872208	-20.765215	-18.578186	-1.445804	-1.082827	1.522672	0.211298	-0.207380	-0.183143	0.999929	-0.007229	-0.005414	0.007613	
54197	    0	11.843624	16.239468	-4.745598	0.499729	0.740247	0.868231	0.117554	0.163025	-0.047485	0.999980	0.002499	0.003701	0.004341	
54198	    0	3.261937	35.759104	-3.393196	-0.412942	-0.145531	0.506783	0.031738	0.357601	-0.034647	0.999994	-0.002065	-0.000728	0.002534	
54199	    0	-0.446989	37.132569	-10.378046	-1.364911	-0.554471	0.018311	-0.004211	0.370605	-0.106323	0.999972	-0.006824	-0.002772	0.000092	
54200	    0	12.722028	15.747727	-13.208957	-2.085924	-0.163082	-1.023888	0.128128	0.155435	-0.133614	0.999931	-0.010429	-0.000815	-0.005119	
54201	    0	18.140832	1.080126	-10.252113	-2.009640	0.053598	-1.686908	0.181458	0.008240	-0.102661	0.999913	-0.010048	0.000268	-0.008434	
54202	    0	13.115804	3.056753	-9.779726	-1.087970	-0.177005	-1.709205	0.131496	0.028913	-0.097841	0.999948	-0.005440	-0.000885	-0.008546	
54203	    0	11.447443	4.606884	-8.631408	-0.577555	-0.351530	-1.882203	0.115051	0.044739	-0.086243	0.999949	-0.002888	-0.001758	-0.009411	
54204	    0	12.473707	5.758820	-9.819792	-0.784888	-0.526438	-1.854358	0.125520	0.056042	-0.098090	0.999946	-0.003924	-0.002632	-0.009272	
54205	    0	14.363501	4.936110	-11.013423	-0.978871	-0.448427	-1.940195	0.144348	0.047424	-0.110046	0.999938	-0.004894	-0.002242	-0.009701	
54206	    0	16.664027	-0.606342	-10.947388	-0.929471	-0.372895	-2.039381	0.166767	-0.008271	-0.109128	0.999935	-0.004647	-0.001864	-0.010197	
54207	    0	15.660744	0.392362	-13.003769	-0.855273	-0.444612	-2.038617	0.156921	0.001770	-0.129700	0.999936	-0.004276	-0.002223	-0.010193	
54208	    0	12.879516	5.881106	-14.283269	-0.805111	-0.482571	-2.217728	0.129777	0.056801	-0.142752	0.999927	-0.004025	-0.002413	-0.011088	
54209	    0	13.071548	5.581314	-13.331779	-0.890949	-0.394451	-2.482679	0.131653	0.053589	-0.133301	0.999910	-0.004455	-0.001972	-0.012413	
54210	    0	15.902803	1.411660	-11.419635	-0.764491	-0.287638	-2.727219	0.159361	0.011509	-0.114015	0.999898	-0.003822	-0.001438	-0.013636	
54211	    0	18.705760	-3.124893	-8.036598	-0.402084	-0.171477	-2.900037	0.186646	-0.034119	-0.080139	0.999892	-0.002010	-0.000857	-0.014500	
54212	    0	18.982364	-5.159106	-4.514889	-0.025559	-0.163084	-2.916249	0.189081	-0.054358	-0.044988	0.999893	-0.000128	-0.000815	-0.014581	
54213	    0	17.911902	-3.097322	-1.150288	0.275622	-0.150304	-2.921400	0.178650	-0.033569	-0.011414	0.999891	0.001378	-0.000751	-0.014606	
54214	    0	17.826262	-1.566207	1.718864	0.275049	-0.091556	-2.890879	0.178003	-0.018260	0.017246	0.999894	0.001375	-0.000458	-0.014454	
54215	    0	17.446147	-1.754463	3.575761	-0.005341	-0.009728	-2.771085	0.174194	-0.019958	0.035767	0.999904	-0.000027	-0.000049	-0.013855	
54216	    0	16.429304	-3.221589	5.133470	-0.260933	0.081828	-2.691542	0.163861	-0.034356	0.051311	0.999908	-0.001305	0.000409	-0.013457	
54217	    0	15.395814	-4.960363	5.498229	-0.564401	0.093844	-2.610857	0.153320	-0.051453	0.055054	0.999910	-0.002822	0.000469	-0.013054	
54218	    0	13.618534	-5.202761	4.590640	-0.941304	0.112346	-2.492597	0.135550	-0.053503	0.046080	0.999910	-0.004706	0.000562	-0.012463	
54219	    0	11.759476	-5.160859	3.554089	-1.374096	0.124554	-2.340007	0.117004	-0.052734	0.035828	0.999907	-0.006870	0.000623	-0.011700	
54220	    0	9.812988	-7.166769	3.144044	-1.973986	0.167090	-2.158242	0.097378	-0.072407	0.032071	0.999892	-0.009870	0.000835	-0.010791	
54221	    0	7.607642	-10.998953	2.565006	-2.429871	0.194558	-1.976857	0.075012	-0.110413	0.026917	0.999876	-0.012149	0.000973	-0.009884	
54222	    0	5.974209	-14.769041	2.449642	-2.634160	0.290692	-1.764372	0.058475	-0.147871	0.026358	0.999873	-0.013170	0.001453	-0.008821	
54223	    0	4.812628	-17.582270	2.844848	-2.554224	0.486010	-1.436668	0.046936	-0.175781	0.030579	0.999889	-0.012771	0.002430	-0.007183	
54224	    0	3.642653	-19.201294	2.038916	-2.063420	0.721567	-1.010156	0.035535	-0.191971	0.022241	0.999928	-0.010317	0.003608	-0.005051	
54225	    0	2.102664	-20.952166	0.842406	-1.067934	0.798805	-0.588232	0.020447	-0.209534	0.009460	0.999973	-0.005340	0.003994	-0.002941	
54226	    0	0.428513	-20.986100	-0.251454	0.339509	0.781253	-0.266267	0.003995	-0.209862	-0.002887	0.999990	0.001698	0.003906	-0.001331	
54227	    0	-0.557481	-17.844397	0.363333	1.498432	0.835620	0.078584	-0.005493	-0.178467	0.002319	0.999963	0.007492	0.004178	0.000393	
54228	    0	-0.451507	-12.357763	1.727702	1.732474	0.937668	0.394637	-0.004193	-0.123730	0.016226	0.999949	0.008662	0.004688	0.001973	
54229	    0	0.547465	-7.393684	3.508193	1.033985	1.079572	0.696572	0.005920	-0.074097	0.034668	0.999966	0.005170	0.005398	0.003483	
54230	    0	1.532340	-4.137900	4.571576	0.143816	1.270308	1.016437	0.015823	-0.041332	0.045587	0.999967	0.000719	0.006351	0.005082	
54231	    0	2.328119	-2.739588	4.687985	-0.325781	1.449800	1.345848	0.023804	-0.027161	0.046753	0.999949	-0.001629	0.007249	0.006729	
54232	    0	3.849760	-2.336612	4.966418	-0.353249	1.625669	1.581799	0.039083	-0.022971	0.049389	0.999933	-0.001766	0.008128	0.007909	
54233	    0	6.163952	-1.507240	3.632564	-0.415622	1.706739	1.718946	0.062073	-0.014465	0.035828	0.999924	-0.002078	0.008533	0.008595	
54234	    0	8.418484	-0.753408	1.093580	-0.817129	1.511803	1.778648	0.084327	-0.006742	0.010327	0.999923	-0.004086	0.007559	0.008893	
54235	    0	15.914659	-1.583180	-3.000989	-1.124602	1.127082	1.933339	0.159119	-0.014465	-0.030823	0.999921	-0.005623	0.005635	0.009666	
54236	    0	23.332710	-2.678716	-7.661226	-0.756663	0.918982	2.059604	0.233233	-0.024677	-0.077588	0.999928	-0.003783	0.004595	0.010298	
54237	    0	22.542172	-5.373574	-8.263863	-0.061800	1.099613	2.156120	0.225525	-0.051331	-0.083862	0.999927	-0.000309	0.005498	0.010780	
54238	    0	19.382922	-7.602940	-5.083702	0.705933	1.472712	2.287368	0.194298	-0.073626	-0.052529	0.999901	0.003530	0.007363	0.011436	
54239	    0	15.504308	-4.024269	-0.093060	1.315558	1.693803	2.523919	0.155518	-0.038269	-0.002502	0.999863	0.006577	0.008469	0.012619	
54240	    0	15.488356	-1.457298	1.966479	1.523091	1.500011	2.634366	0.155200	-0.012673	0.018400	0.999856	0.007615	0.007500	0.013171	
54241	    0	16.684758	0.663949	0.213459	1.189471	1.080557	2.662003	0.166748	0.008850	0.001282	0.999879	0.005947	0.005403	0.013309	
54242	    0	19.961998	2.185862	-2.333684	0.584429	0.729774	2.521591	0.199236	0.024442	-0.023995	0.999909	0.002922	0.003649	0.012608	
54243	    0	23.609510	3.136804	-3.284641	0.193983	0.537124	2.461308	0.235596	0.034302	-0.033447	0.999920	0.000970	0.002686	0.012306	
54244	    0	25.417451	3.125279	-3.261625	0.299081	0.402653	2.596359	0.253674	0.034597	-0.033077	0.999912	0.001495	0.002013	0.012981	
54245	    0	24.573463	2.107409	-3.189369	0.669311	0.334942	2.732941	0.245361	0.024536	-0.032227	0.999899	0.003346	0.001675	0.013664	
54246	    0	23.632714	0.335398	-2.719088	1.234673	0.321782	2.713114	0.236207	0.006728	-0.027536	0.999887	0.006173	0.001609	0.013565	
54247	    0	23.356526	-0.054406	-2.104288	1.843338	0.233660	2.546034	0.233521	0.002625	-0.021301	0.999875	0.009216	0.001168	0.012730	
54248	    0	22.303570	1.985180	-2.389390	2.301512	0.160415	2.369989	0.222758	0.022767	-0.023822	0.999863	0.011507	0.000802	0.011849	
54249	    0	20.115009	4.818704	-2.439643	2.551585	0.165566	2.278249	0.200562	0.050781	-0.023926	0.999853	0.012757	0.000828	0.011391	
54250	    0	17.767230	7.099726	-2.251372	2.548719	0.142295	2.188213	0.176864	0.073215	-0.021716	0.999858	0.012743	0.000711	0.010941	
54251	    0	15.516321	8.796063	-2.523576	2.380660	0.074008	2.058496	0.154236	0.089844	-0.024231	0.999876	0.011903	0.000370	0.010292	
54252	    0	13.427462	10.456793	-2.833113	1.921521	-0.010872	1.887188	0.133280	0.106094	-0.027309	0.999908	0.009607	-0.000054	0.009436	
54253	    0	11.383885	11.769009	-2.798318	1.370266	-0.127223	1.692233	0.112854	0.118835	-0.027100	0.999940	0.006851	-0.000636	0.008461	
54254	    0	9.280146	13.303264	-2.998363	0.624282	-0.300029	1.500910	0.091844	0.133817	-0.029428	0.999966	0.003121	-0.001500	0.007504	
54255	    0	7.536983	13.651256	-2.732682	-0.068665	-0.406459	1.228341	0.074585	0.136963	-0.027222	0.999978	-0.000343	-0.002032	0.006142	
54256	    0	5.322306	11.383194	-1.445521	-0.267030	-0.493815	0.915150	0.052737	0.114055	-0.014477	0.999985	-0.001335	-0.002469	0.004576	
54257	    0	3.167735	10.628539	-1.810918	-0.588038	-0.705722	0.580600	0.031433	0.106323	-0.018311	0.999985	-0.002940	-0.003529	0.002903	
54258	    0	1.331224	11.593332	-2.050176	-1.102266	-0.922211	0.226976	0.013277	0.115833	-0.021079	0.999973	-0.005511	-0.004611	0.001135	
54259	    0	0.059442	12.121649	-1.791715	-1.965945	-1.079582	0.039674	0.000671	0.121033	-0.019104	0.999937	-0.009830	-0.005398	0.000198	
54260	    0	-0.237861	10.012551	0.053948	-1.945347	-1.187160	-0.164608	-0.002295	0.100126	-0.000448	0.999934	-0.009727	-0.005936	-0.000823	
54261	    0	0.493428	4.840036	1.876197	-0.750741	-1.452463	-0.347141	0.004883	0.048462	0.018616	0.999965	-0.003754	-0.007262	-0.001736	
54262	    0	0.669235	-2.677863	0.276072	0.096132	-2.060738	-0.435837	0.006605	-0.026794	0.002816	0.999944	0.000481	-0.010303	-0.002179	
54263	    0	0.015362	-6.341301	-1.966341	-0.021363	-2.605322	-0.329599	0.000305	-0.063416	-0.019653	0.999913	-0.000107	-0.013026	-0.001648	
54264	    0	-0.375325	-6.670263	-2.343301	-0.166135	-2.755062	-0.222595	-0.003505	-0.066718	-0.023427	0.999904	-0.000831	-0.013775	-0.001113	
54265	    0	-0.091400	-6.898727	-1.828462	-0.486007	-2.657972	-0.173956	-0.000732	-0.069031	-0.018127	0.999907	-0.002430	-0.013289	-0.000870	
54266	    0	1.633537	-9.565498	-2.392910	-1.325276	-2.698237	0.009346	0.016655	-0.095809	-0.023071	0.999887	-0.006626	-0.013491	0.000047	
54267	    0	4.961774	-13.488357	-1.858093	-1.176486	-2.309292	0.155644	0.049927	-0.134949	-0.017212	0.999915	-0.005882	-0.011546	0.000778	
54268	    0	7.296880	-14.968572	0.002876	0.213243	-1.104552	0.198556	0.073116	-0.149613	0.000273	0.999983	0.001066	-0.005523	0.000993	
54269	    0	5.444635	-10.221099	0.402915	1.358997	0.142671	0.228121	0.054565	-0.102173	0.003296	0.999975	0.006795	0.000713	0.001141	
54270	    0	1.546066	-3.374397	0.627414	1.671055	1.021783	0.282483	0.015539	-0.033772	0.005913	0.999950	0.008355	0.005109	0.001412	
54271	    0	-1.437673	-1.272854	1.311165	0.753215	-0.027466	0.551607	-0.014343	-0.012817	0.013062	0.999989	0.003766	-0.000137	0.002758	
54272	    0	0.026825	-0.249797	-2.356114	-1.565760	-0.088883	0.418477	0.000284	-0.002682	-0.023540	0.999967	-0.007829	-0.000444	0.002092	
54273	    0	2.014797	19.039158	12.697715	-1.357856	0.093080	-0.827035	0.020996	0.191162	0.125671	0.999968	-0.006789	0.000465	-0.004135	
54274	    0	29.168605	15.563971	17.581556	1.953760	-1.261752	-1.526882	0.291731	0.151673	0.179151	0.999903	0.009768	-0.006309	-0.007634	
54275	    0	29.889714	-29.617792	-4.461243	0.853176	-2.030990	-0.672927	0.298340	-0.296997	-0.042847	0.999933	0.004266	-0.010155	-0.003365	
54276	    0	23.438671	-19.953115	-29.753926	-0.589758	-0.646788	1.221859	0.236563	-0.198965	-0.296189	0.999971	-0.002949	-0.003234	0.006109	
54277	    0	14.371032	13.571751	9.010653	-0.231934	0.231362	0.740053	0.143311	0.136353	0.089783	0.999991	-0.001160	0.001157	0.003700	
54278	    0	1.443717	36.623789	-7.245974	-1.571293	-0.551231	0.424009	0.013866	0.365684	-0.075295	0.999963	-0.007856	-0.002756	0.002120	
54279	    0	3.100119	30.638128	-11.236504	-1.428998	-0.308040	-0.167848	0.031433	0.305542	-0.114502	0.999972	-0.007145	-0.001540	-0.000839	
54280	    0	15.237694	7.335879	-12.969455	-2.460556	0.003243	-1.185073	0.152800	0.070851	-0.130579	0.999907	-0.012302	0.000016	-0.005925	
54281	    0	12.758081	6.451197	-11.765102	-2.107867	0.048829	-1.390876	0.127991	0.062378	-0.118347	0.999920	-0.010539	0.000244	-0.006954	
54282	    0	9.758099	9.638569	-9.609439	-1.321245	-0.089838	-1.670106	0.098421	0.094929	-0.096681	0.999943	-0.006606	-0.000449	-0.008350	
54283	    0	12.093803	5.310274	-9.998939	-1.300079	-0.276763	-1.948593	0.121582	0.051270	-0.100159	0.999930	-0.006500	-0.001384	-0.009743	
54284	    0	13.387241	4.659695	-10.846616	-1.388581	-0.381669	-1.804583	0.134488	0.044632	-0.108524	0.999933	-0.006943	-0.001908	-0.009023	
54285	    0	14.368582	3.556189	-11.032248	-1.340515	-0.277526	-1.909681	0.144165	0.033447	-0.110352	0.999930	-0.006702	-0.001388	-0.009548	
54286	    0	16.439238	-1.456310	-10.526481	-1.195555	-0.177769	-2.058460	0.164320	-0.016883	-0.105022	0.999928	-0.005978	-0.000889	-0.010292	
54287	    0	16.084649	0.295129	-12.140690	-0.927565	-0.245672	-2.133990	0.161011	0.000671	-0.121216	0.999931	-0.004638	-0.001228	-0.010670	
54288	    0	13.349676	5.384933	-12.967300	-0.835631	-0.207525	-2.321303	0.134240	0.051752	-0.129753	0.999923	-0.004178	-0.001038	-0.011606	
54289	    0	13.960018	5.048809	-11.464194	-0.914028	-0.083735	-2.493359	0.140259	0.048218	-0.114807	0.999911	-0.004570	-0.000419	-0.012466	
54290	    0	17.099760	0.322840	-8.934681	-0.937111	0.049020	-2.626886	0.170995	0.000564	-0.089396	0.999903	-0.004685	0.000245	-0.013134	
54291	    0	19.097881	-4.715902	-5.525518	-0.763727	0.049020	-2.684108	0.190308	-0.049927	-0.055115	0.999902	-0.003819	0.000245	-0.013420	
54292	    0	18.300735	-5.354109	-2.705139	-0.478760	0.056650	-2.714434	0.182250	-0.056083	-0.026971	0.999905	-0.002394	0.000283	-0.013572	
54293	    0	17.612576	-4.180290	0.685300	-0.159269	0.058748	-2.722252	0.175537	-0.044189	0.006836	0.999907	-0.000796	0.000294	-0.013611	
54294	    0	17.566815	-4.097026	2.818344	-0.144963	0.054170	-2.644998	0.175114	-0.043268	0.028167	0.999911	-0.000725	0.000271	-0.013225	
54295	    0	17.064510	-4.196055	4.033588	-0.180059	0.107768	-2.588726	0.170105	-0.044128	0.040283	0.999915	-0.000900	0.000539	-0.012943	
54296	    0	15.954644	-5.181163	5.406492	-0.328645	0.160222	-2.535889	0.158916	-0.053741	0.054025	0.999917	-0.001643	0.000801	-0.012679	
54297	    0	14.605405	-5.798592	4.985131	-0.733968	0.193983	-2.427739	0.145386	-0.059570	0.049927	0.999919	-0.003670	0.000970	-0.012138	
54298	    0	12.555552	-5.993822	4.009949	-1.227032	0.260742	-2.291172	0.124912	-0.061125	0.040309	0.999914	-0.006135	0.001304	-0.011456	
54299	    0	10.278437	-7.096498	2.582604	-1.772939	0.301371	-2.160716	0.102051	-0.071838	0.026306	0.999901	-0.008864	0.001507	-0.010803	
54300	    0	8.339325	-9.965184	1.456854	-2.111321	0.349058	-2.046088	0.082396	-0.100338	0.015481	0.999890	-0.010556	0.001745	-0.010230	
54301	    0	6.610811	-14.497370	1.186790	-2.255332	0.428216	-1.895975	0.064758	-0.145447	0.013367	0.999888	-0.011276	0.002141	-0.009480	
54302	    0	4.867553	-17.933515	1.938958	-1.994191	0.566690	-1.649333	0.047254	-0.179524	0.021044	0.999912	-0.009971	0.002833	-0.008246	
54303	    0	3.124706	-19.069239	2.290056	-1.318190	0.720227	-1.302359	0.030090	-0.190735	0.024048	0.999950	-0.006591	0.003601	-0.006512	
54304	    0	2.122327	-19.027079	2.134712	-0.564388	0.810629	-0.852209	0.020500	-0.190298	0.021800	0.999978	-0.002822	0.004053	-0.004261	
54305	    0	1.218578	-18.464745	1.655116	0.224496	0.794223	-0.444032	0.011841	-0.184692	0.016296	0.999989	0.001122	0.003971	-0.002220	
54306	    0	0.521906	-16.823228	0.325887	1.107987	0.764662	-0.052262	0.005185	-0.168248	0.002307	0.999977	0.005540	0.003823	-0.000261	
54307	    0	0.390697	-13.790103	0.672042	1.486417	0.936902	0.312046	0.004150	-0.137939	0.005676	0.999960	0.007432	0.004684	0.001560	
54308	    0	0.899248	-8.851964	2.364405	1.160064	1.148048	0.619324	0.009400	-0.088626	0.023077	0.999962	0.005800	0.005740	0.003097	
54309	    0	1.785823	-4.670968	5.035888	0.507552	1.429767	0.922406	0.018433	-0.046753	0.050110	0.999960	0.002538	0.007149	0.004612	
54310	    0	2.438554	-1.675314	6.337496	-0.254826	1.643020	1.241515	0.025008	-0.016519	0.063192	0.999946	-0.001274	0.008215	0.006207	
54311	    0	3.136332	-0.493418	6.533152	-0.723857	1.792190	1.528206	0.031982	-0.004456	0.065063	0.999924	-0.003619	0.008961	0.007641	
54312	    0	4.657201	0.426087	4.785390	-1.100956	1.841984	1.684623	0.046970	0.004917	0.047397	0.999907	-0.005505	0.009210	0.008423	
54313	    0	7.064676	0.279598	1.525612	-1.548820	1.646671	1.779236	0.070740	0.003540	0.014648	0.999896	-0.007744	0.008233	0.008896	
54314	    0	14.958906	-1.902488	-3.299111	-1.668606	1.217312	2.003357	0.149568	-0.017806	-0.033750	0.999896	-0.008343	0.006086	0.010016	
54315	    0	24.176728	-4.711935	-9.158297	-0.929858	0.958278	2.172147	0.241821	-0.044922	-0.092529	0.999918	-0.004649	0.004791	0.010860	
54316	    0	22.889922	-7.358374	-11.029224	0.032235	1.136046	2.228986	0.229069	-0.071013	-0.111605	0.999921	0.000161	0.005680	0.011145	
54317	    0	20.567076	-10.158725	-7.823036	1.108785	1.553405	2.379700	0.206238	-0.098694	-0.080383	0.999884	0.005544	0.007767	0.011898	
54318	    0	15.352498	-6.060782	-2.037034	1.939127	1.846806	2.690477	0.154119	-0.058327	-0.022365	0.999820	0.009695	0.009233	0.013452	
54319	    0	14.446228	-2.830767	1.405992	2.224879	1.638331	2.881051	0.144958	-0.026367	0.012573	0.999801	0.011124	0.008191	0.014404	
54320	    0	15.149885	-0.148849	0.225141	1.827151	1.231834	2.912302	0.151509	0.000703	0.001318	0.999833	0.009135	0.006159	0.014561	
54321	    0	17.801359	2.256653	-2.886822	1.095816	0.838504	2.791708	0.177551	0.025208	-0.029480	0.999878	0.005479	0.004192	0.013958	
54322	    0	22.964766	3.424868	-4.771486	0.572413	0.581950	2.630317	0.229030	0.037401	-0.048278	0.999905	0.002862	0.002910	0.013151	
54323	    0	26.170921	3.937252	-5.285643	0.416769	0.393689	2.668082	0.261047	0.042969	-0.053284	0.999907	0.002084	0.001968	0.013340	
54324	    0	24.976954	3.272085	-4.722790	0.661493	0.334371	2.907290	0.249178	0.036503	-0.047528	0.999887	0.003307	0.001672	0.014536	
54325	    0	23.642510	1.612262	-3.938629	1.157431	0.282491	3.054183	0.236084	0.019958	-0.039612	0.999866	0.005787	0.001412	0.015270	
54326	    0	23.717447	0.110362	-2.809674	1.792998	0.148399	2.975041	0.237100	0.004884	-0.028240	0.999848	0.008965	0.000742	0.014874	
54327	    0	23.697409	0.840751	-2.789569	2.283601	0.050547	2.784880	0.236816	0.012024	-0.027832	0.999837	0.011417	0.000253	0.013924	
54328	    0	21.568682	3.544214	-3.625431	2.393279	0.022126	2.669287	0.215180	0.038747	-0.035828	0.999839	0.011966	0.000111	0.013346	
54329	    0	18.893131	6.511487	-3.579437	2.418073	0.053409	2.603286	0.188049	0.067993	-0.035034	0.999842	0.012090	0.000267	0.013016	
54330	    0	16.852221	8.120205	-3.615446	2.330893	0.014878	2.493789	0.167486	0.083709	-0.035201	0.999854	0.011654	0.000074	0.012468	
54331	    0	14.893099	9.577720	-3.749705	1.932598	-0.079921	2.302638	0.147827	0.097839	-0.036499	0.999887	0.009663	-0.000400	0.011513	
54332	    0	13.062220	10.727103	-3.617129	1.427498	-0.209242	2.076204	0.129535	0.108873	-0.035262	0.999920	0.007137	-0.001046	0.010381	
54333	    0	10.961936	11.842326	-3.521819	0.835433	-0.320249	1.834901	0.108582	0.119568	-0.034546	0.999948	0.004177	-0.001601	0.009174	
54334	    0	8.493328	12.753976	-3.433603	0.354390	-0.405126	1.582736	0.083989	0.128267	-0.033938	0.999965	0.001772	-0.002026	0.007914	
54335	    0	5.136109	11.579917	-2.195661	0.207521	-0.423244	1.289378	0.050659	0.116150	-0.021729	0.999976	0.001038	-0.002116	0.006447	
54336	    0	2.983337	11.104252	-1.219407	0.177193	-0.575640	0.840954	0.029401	0.111177	-0.012011	0.999986	0.000886	-0.002878	0.004205	
54337	    0	1.830203	11.764860	-0.029047	0.053406	-0.835231	0.298310	0.018127	0.117676	-0.000183	0.999990	0.000267	-0.004176	0.001492	
54338	    0	1.197413	11.361368	-0.007429	-0.371935	-1.073080	-0.035668	0.011995	0.113611	-0.000221	0.999984	-0.001860	-0.005365	-0.000178	
54339	    0	1.802969	10.409494	-0.142873	-0.510982	-1.187905	-0.287630	0.018188	0.104065	-0.001587	0.999977	-0.002555	-0.005939	-0.001438	
54340	    0	1.774289	7.354084	0.984108	0.279047	-1.192101	-0.455669	0.017851	0.073486	0.010050	0.999978	0.001395	-0.005960	-0.002278	
54341	    0	2.104741	2.137765	1.617340	0.959027	-1.360911	-0.562294	0.020996	0.021240	0.016418	0.999961	0.004795	-0.006804	-0.002811	
54342	    0	1.491497	-1.582129	1.661404	0.790037	-1.725416	-0.621425	0.014722	-0.015933	0.016679	0.999949	0.003950	-0.008627	-0.003107	
54343	    0	0.018987	-1.761886	1.314890	0.306135	-2.056925	-0.621808	0.000000	-0.017639	0.013123	0.999941	0.001531	-0.010284	-0.003109	
54344	    0	-1.224478	-2.394747	1.723000	-0.232511	-2.228977	-0.565732	-0.012504	-0.023892	0.017119	0.999932	-0.001163	-0.011145	-0.002829	
54345	    0	-0.130802	-4.800104	2.044911	-0.833917	-2.492405	-0.348674	-0.001648	-0.047913	0.020630	0.999911	-0.004169	-0.012462	-0.001743	
54346	    0	2.643523	-9.668985	0.200823	-1.283124	-2.788081	-0.059893	0.026369	-0.096681	0.002996	0.999882	-0.006415	-0.013940	-0.000299	
54347	    0	4.507790	-13.269630	-1.192093	-1.431137	-2.632240	0.100712	0.045288	-0.132751	-0.010376	0.999887	-0.007155	-0.013161	0.000504	
54348	    0	5.120063	-11.548042	-2.402331	-0.990314	-1.829753	0.259976	0.051564	-0.115529	-0.022981	0.999945	-0.004951	-0.009149	0.001300	
54349	    0	4.090182	-6.255894	-2.659408	-0.212861	-0.781062	0.424196	0.041138	-0.062500	-0.026367	0.999990	-0.001064	-0.003905	0.002121	
54350	    0	1.880738	-2.936557	-1.953414	-0.132179	-0.168801	0.440407	0.018888	-0.029337	-0.019499	0.999996	-0.000661	-0.000844	0.002202	
54351	    0	1.038528	-2.089323	-4.327392	-1.149566	-0.021362	0.447848	0.010437	-0.021118	-0.043152	0.999981	-0.005748	-0.000107	0.002239	
54352	    0	0.017950	5.983977	3.658278	-1.623941	0.977149	-0.143053	0.000400	0.060134	0.036094	0.999954	-0.008120	0.004886	-0.000715	
54353	    0	9.836527	13.984538	14.786495	-0.328066	-0.016594	-1.012425	0.099060	0.139587	0.147644	0.999986	-0.001640	-0.000083	-0.005062	
54354	    0	35.559929	-1.100934	17.893876	2.301311	-1.412450	-1.604146	0.354210	-0.015931	0.181279	0.999876	0.011506	-0.007062	-0.008020	
54355	    0	27.943082	-40.226516	-11.932335	-0.347712	-1.287088	0.133515	0.280457	-0.402283	-0.116821	0.999977	-0.001739	-0.006435	0.000668	
54356	    0	20.293328	-11.137739	-14.037048	0.781448	0.626761	1.158726	0.203130	-0.109650	-0.141438	0.999970	0.003907	0.003134	0.005794	
54357	    0	10.423160	21.741348	7.195814	-0.472071	0.063324	0.958257	0.103210	0.218079	0.071411	0.999985	-0.002360	0.000317	0.004791	
54358	    0	-4.302574	43.796801	-6.641712	-1.602768	-0.573167	0.780880	-0.044537	0.437244	-0.070049	0.999956	-0.008014	-0.002866	0.003904	
54359	    0	1.890301	29.013468	-12.518157	-2.259113	-0.315673	0.000000	0.019104	0.288696	-0.128418	0.999934	-0.011295	-0.001578	0.000000	
54360	    0	14.557953	4.742841	-12.678031	-3.105875	0.064853	-1.037453	0.145775	0.044696	-0.127536	0.999866	-0.015529	0.000324	-0.005187	
54361	    0	13.737852	1.487653	-12.279832	-2.387314	0.131421	-1.393935	0.137390	0.012451	-0.123047	0.999904	-0.011936	0.000657	-0.006969	
54362	    0	10.498069	4.613130	-10.385169	-1.382663	-0.061990	-1.620133	0.105378	0.044559	-0.104131	0.999943	-0.006913	-0.000310	-0.008101	
54363	    0	11.900700	3.841258	-9.256814	-1.077101	-0.197605	-1.860082	0.119446	0.036804	-0.092651	0.999941	-0.005385	-0.000988	-0.009300	
54364	    0	13.483554	3.052282	-9.770141	-1.312091	-0.293738	-1.718746	0.135231	0.028721	-0.097695	0.999940	-0.006560	-0.001469	-0.008594	
54365	    0	14.356675	2.739084	-10.103135	-1.270319	-0.256162	-1.719699	0.143921	0.025513	-0.101013	0.999942	-0.006351	-0.001281	-0.008598	
54366	    0	16.200324	-1.733165	-10.950376	-1.045820	-0.241666	-1.914826	0.161956	-0.019454	-0.109210	0.999939	-0.005229	-0.001208	-0.009574	
54367	    0	14.531006	0.806719	-13.049705	-0.723853	-0.290686	-2.050822	0.145569	0.006104	-0.130310	0.999939	-0.003619	-0.001453	-0.010254	
54368	    0	12.004873	6.733202	-14.268042	-0.627724	-0.285728	-2.319965	0.121019	0.065484	-0.142715	0.999927	-0.003139	-0.001429	-0.011600	
54369	    0	13.102097	6.697559	-13.169988	-0.673505	-0.221259	-2.600939	0.132019	0.064819	-0.131775	0.999908	-0.003367	-0.001106	-0.013004	
54370	    0	16.276880	2.490958	-11.464632	-0.748469	-0.151067	-2.752398	0.163174	0.022237	-0.114610	0.999898	-0.003742	-0.000755	-0.013762	
54371	    0	17.593082	-0.771723	-8.972281	-0.643181	-0.105099	-2.834420	0.175842	-0.010498	-0.089600	0.999894	-0.003216	-0.000525	-0.014172	
54372	    0	19.059494	-2.841724	-5.341876	-0.328266	-0.097660	-2.903851	0.190181	-0.031268	-0.053276	0.999892	-0.001641	-0.000488	-0.014519	
54373	    0	19.882534	-5.061504	-1.248091	-0.049593	-0.078395	-2.934371	0.198059	-0.053528	-0.012390	0.999892	-0.000248	-0.000392	-0.014671	
54374	    0	19.481533	-5.181129	2.080008	0.082591	-0.100902	-2.907665	0.194024	-0.054645	0.020876	0.999893	0.000413	-0.000504	-0.014538	
54375	    0	19.383679	-5.222457	3.877675	0.066378	-0.061609	-2.850438	0.193054	-0.054993	0.038818	0.999898	0.000332	-0.000308	-0.014252	
54376	    0	18.173033	-4.920900	5.252262	-0.080493	0.007820	-2.786154	0.181024	-0.051713	0.052536	0.999903	-0.000402	0.000039	-0.013930	
54377	    0	17.137308	-5.389524	6.119765	-0.375950	0.097659	-2.704705	0.170654	-0.056091	0.061218	0.999907	-0.001880	0.000488	-0.013523	
54378	    0	15.382921	-6.349074	6.118630	-0.827242	0.205046	-2.568705	0.153062	-0.065207	0.061296	0.999908	-0.004136	0.001025	-0.012843	
54379	    0	12.594764	-6.974503	4.635517	-1.303141	0.293168	-2.361370	0.125183	-0.070923	0.046631	0.999907	-0.006516	0.001466	-0.011806	
54380	    0	9.716878	-9.394913	3.247000	-1.758251	0.309954	-2.131340	0.096213	-0.094688	0.033151	0.999903	-0.008791	0.001550	-0.010656	
54381	    0	6.976880	-14.571005	2.392752	-1.993434	0.331126	-1.903595	0.068420	-0.146118	0.025269	0.999903	-0.009967	0.001656	-0.009518	
54382	    0	4.487671	-18.874130	1.991448	-1.928572	0.448430	-1.573795	0.043438	-0.188884	0.021637	0.999920	-0.009643	0.002242	-0.007869	
54383	    0	3.169886	-21.429589	2.274302	-1.538876	0.646412	-1.174184	0.030518	-0.214294	0.024292	0.999948	-0.007694	0.003232	-0.005871	
54384	    0	2.157549	-22.518299	2.787420	-0.760084	0.799566	-0.719648	0.020879	-0.225151	0.028646	0.999978	-0.003800	0.003998	-0.003598	
54385	    0	0.847099	-22.280961	2.001235	0.183297	0.787356	-0.277711	0.008240	-0.222839	0.019775	0.999990	0.000916	0.003937	-0.001389	
54386	    0	0.423886	-18.809262	1.183336	0.932319	0.895316	0.188066	0.004466	-0.188141	0.010937	0.999978	0.004662	0.004477	0.000940	
54387	    0	1.019287	-12.429904	2.006705	1.259820	1.095595	0.613411	0.010681	-0.124390	0.019226	0.999960	0.006299	0.005478	0.003067	
54388	    0	1.523628	-7.167527	3.842574	0.877965	1.295489	0.910581	0.015810	-0.071772	0.038010	0.999959	0.004390	0.006477	0.004553	
54389	    0	1.767414	-3.518597	4.964487	0.074960	1.464103	1.210803	0.018250	-0.035095	0.049500	0.999954	0.000375	0.007320	0.006054	
54390	    0	2.148287	-1.801402	5.765916	-0.562871	1.608502	1.500734	0.022079	-0.017688	0.057533	0.999935	-0.002814	0.008042	0.007504	
54391	    0	3.538574	-0.601568	6.517421	-0.857377	1.776173	1.703692	0.036011	-0.005432	0.064880	0.999914	-0.004287	0.008881	0.008518	
54392	    0	6.113342	0.665467	6.849087	-1.056896	1.834548	1.835120	0.061691	0.007579	0.067888	0.999902	-0.005284	0.009172	0.009175	
54393	    0	8.121374	2.221495	3.655932	-1.412061	1.702942	1.932595	0.081299	0.023254	0.035706	0.999891	-0.007060	0.008514	0.009663	
54394	    0	13.262678	1.582770	-1.162138	-1.618064	1.410537	2.092440	0.132365	0.017114	-0.012691	0.999887	-0.008090	0.007052	0.010462	
54395	    0	22.030849	-2.110928	-6.632814	-1.363421	1.135484	2.291950	0.220154	-0.019043	-0.067444	0.999894	-0.006817	0.005677	0.011459	
54396	    0	22.804330	-5.129861	-9.337670	-0.829912	1.103243	2.275343	0.228091	-0.049094	-0.094428	0.999911	-0.004149	0.005516	0.011376	
54397	    0	20.527392	-9.663095	-8.420156	-0.051118	1.296462	2.288884	0.205811	-0.094299	-0.085510	0.999913	-0.000256	0.006482	0.011444	
54398	    0	17.455486	-8.449653	-4.997054	0.826675	1.465659	2.403345	0.175178	-0.082183	-0.051596	0.999892	0.004133	0.007328	0.012016	
54399	    0	16.543782	-4.513922	-2.467442	1.376404	1.386514	2.627681	0.165833	-0.042786	-0.026123	0.999866	0.006882	0.006932	0.013138	
54400	    0	17.129943	-1.647997	-2.041519	1.536439	1.005981	2.738886	0.171396	-0.013971	-0.021391	0.999864	0.007682	0.005030	0.013694	
54401	    0	18.179181	0.543697	-3.313537	1.275687	0.663212	2.783317	0.181580	0.008179	-0.033691	0.999877	0.006378	0.003316	0.013916	
54402	    0	21.473441	2.468303	-4.706802	0.956571	0.412956	2.813445	0.214259	0.027925	-0.047382	0.999887	0.004783	0.002065	0.014067	
54403	    0	25.130641	3.701906	-5.305096	0.969734	0.241289	2.883260	0.250671	0.040894	-0.053162	0.999883	0.004848	0.001206	0.014416	
54404	    0	24.765154	3.544905	-5.019561	1.135875	0.162895	3.019464	0.247035	0.039467	-0.050180	0.999869	0.005679	0.000814	0.015097	
54405	    0	22.695861	3.029822	-4.280166	1.422949	0.084118	3.049613	0.226440	0.034058	-0.042664	0.999858	0.007114	0.000421	0.015247	
54406	    0	22.196346	2.455262	-3.389212	1.797763	0.001717	2.888628	0.221575	0.028058	-0.033652	0.999855	0.008988	0.000009	0.014442	
54407	    0	21.744820	3.319697	-2.682878	2.057173	-0.034334	2.677282	0.216980	0.036377	-0.026428	0.999857	0.010285	-0.000172	0.013386	
54408	    0	20.023891	4.979370	-2.201858	2.239714	-0.029565	2.501605	0.199596	0.052535	-0.021411	0.999859	0.011198	-0.000148	0.012507	
54409	    0	17.510916	7.053265	-2.013484	2.163217	-0.008393	2.372081	0.174255	0.072815	-0.019348	0.999870	0.010816	-0.000042	0.011860	
54410	    0	15.244606	9.021196	-1.771471	2.173128	-0.034524	2.166070	0.151459	0.092041	-0.016695	0.999882	0.010865	-0.000173	0.010830	
54411	    0	13.735151	10.725310	-1.934698	1.914463	-0.090030	1.861628	0.136353	0.108704	-0.018250	0.999910	0.009572	-0.000450	0.009308	
54412	    0	12.542277	12.450209	-1.972473	1.529724	-0.179485	1.535446	0.124478	0.125606	-0.018655	0.999941	0.007648	-0.000897	0.007677	
54413	    0	9.771841	13.644808	-1.719582	1.155106	-0.223354	1.365680	0.096802	0.137207	-0.016296	0.999959	0.005775	-0.001117	0.006828	
54414	    0	5.625114	13.109478	-1.353471	0.685317	-0.305369	1.290333	0.055424	0.131499	-0.013000	0.999971	0.003427	-0.001527	0.006452	
54415	    0	2.475371	13.725599	-1.743112	0.155068	-0.424959	0.992589	0.024109	0.137390	-0.017273	0.999985	0.000775	-0.002125	0.004963	
54416	    0	0.564671	14.984397	0.028925	-0.090409	-0.555993	0.498010	0.005273	0.149858	0.000237	0.999992	-0.000452	-0.002780	0.002490	
54417	    0	-0.244906	14.509307	1.443644	-0.702480	-0.846104	0.075531	-0.002563	0.145142	0.013916	0.999985	-0.003512	-0.004230	0.000378	
54418	    0	1.068253	12.778909	1.278306	-1.075948	-1.204886	-0.324825	0.010816	0.127838	0.012160	0.999966	-0.005380	-0.006024	-0.001624	
54419	    0	2.743706	8.740106	0.976867	-0.595100	-1.420419	-0.643165	0.027649	0.087341	0.009705	0.999965	-0.002975	-0.007102	-0.003216	
54420	    0	3.669401	2.662527	1.515111	0.288396	-1.720265	-0.844206	0.036674	0.026448	0.015505	0.999952	0.001442	-0.008601	-0.004221	
54421	    0	2.777676	-1.762525	0.426144	0.592247	-2.221736	-0.887321	0.027649	-0.017761	0.004517	0.999924	0.002961	-0.011108	-0.004436	
54422	    0	0.955668	-2.847844	-0.424856	0.465980	-2.596174	-0.791193	0.009499	-0.028506	-0.004191	0.999905	0.002330	-0.012980	-0.003956	
54423	    0	-0.474853	-4.011737	1.397928	-0.005341	-2.593881	-0.681325	-0.005066	-0.040100	0.013916	0.999909	-0.000027	-0.012969	-0.003407	
54424	    0	-0.121546	-7.588671	1.968715	-1.227998	-2.729329	-0.421540	-0.001648	-0.075761	0.020132	0.999886	-0.006140	-0.013646	-0.002108	
54425	    0	2.508042	-13.162272	-1.872505	-2.299630	-2.889988	-0.097662	0.025269	-0.131836	-0.016846	0.999829	-0.011497	-0.014449	-0.000488	
54426	    0	5.806691	-18.058105	-2.898018	-1.705797	-2.199816	0.085452	0.058447	-0.180791	-0.026797	0.999903	-0.008529	-0.010999	0.000427	
54427	    0	6.779829	-17.037369	-1.656123	-0.355532	-1.144226	0.335696	0.068176	-0.170288	-0.015869	0.999980	-0.001778	-0.005721	0.001678	
54428	    0	4.094614	-11.372119	-2.491499	0.120735	-0.264741	0.618173	0.041330	-0.113579	-0.024929	0.999993	0.000604	-0.001324	0.003091	
54429	    0	0.611163	-5.616127	-2.545967	-0.105858	0.701907	0.724033	0.006226	-0.056152	-0.025452	0.999987	-0.000529	0.003510	0.003620	
54430	    0	-1.688824	-2.121887	2.545867	-0.549510	0.471689	0.714687	-0.016752	-0.021209	0.025557	0.999987	-0.002748	0.002358	0.003573	
54431	    0	1.361377	-4.335552	-5.481640	-0.762752	-0.350954	0.668338	0.013855	-0.043518	-0.054626	0.999985	-0.003814	-0.001755	0.003342	
54432	    0	13.323764	12.841202	14.118989	-0.096322	0.984579	-0.654606	0.134350	0.128041	0.140469	0.999982	-0.000482	0.004923	-0.003273	
54433	    0	32.061971	3.279212	20.983522	3.354266	-0.880483	-1.344377	0.319885	0.027100	0.211731	0.999826	0.016770	-0.004402	-0.006721	
54434	    0	24.995422	-31.815336	-11.674613	-0.774777	-1.760511	0.357061	0.251530	-0.318149	-0.113304	0.999951	-0.003874	-0.008802	0.001785	
54435	    0	17.428222	-1.745275	-17.987436	0.212289	0.255586	0.968174	0.174133	-0.016418	-0.180115	0.999987	0.001061	0.001278	0.004841	
54436	    0	10.754932	26.825159	6.355369	0.351335	-0.120736	0.840572	0.106382	0.268588	0.064090	0.999989	0.001757	-0.000604	0.004203	
54437	    0	-2.296002	42.300756	-9.320223	-1.482983	-0.859081	0.506599	-0.023621	0.422241	-0.096436	0.999960	-0.007415	-0.004295	0.002533	
54438	    0	6.446469	28.077409	-13.167558	-2.207040	-0.262266	-0.428972	0.065240	0.279160	-0.134677	0.999935	-0.011035	-0.001311	-0.002145	
54439	    0	18.695309	3.818790	-10.824658	-2.775687	0.145918	-1.432859	0.187134	0.035339	-0.108887	0.999877	-0.013878	0.000730	-0.007164	
54440	    0	14.012827	2.723564	-11.329526	-2.160707	0.061228	-1.507993	0.140287	0.024952	-0.113616	0.999912	-0.010803	0.000306	-0.007540	
54441	    0	10.070683	5.743429	-9.260377	-1.326777	-0.163844	-1.680788	0.101257	0.055969	-0.092896	0.999942	-0.006634	-0.000819	-0.008404	
54442	    0	12.253946	4.708292	-9.108508	-1.318388	-0.245290	-1.855700	0.123077	0.045341	-0.091237	0.999934	-0.006592	-0.001226	-0.009278	
54443	    0	14.097981	5.200695	-10.396579	-1.562535	-0.247007	-1.705971	0.141541	0.049988	-0.104187	0.999932	-0.007812	-0.001235	-0.008530	
54444	    0	15.349153	2.453851	-10.136283	-1.493870	-0.119975	-1.796191	0.153760	0.022401	-0.101443	0.999931	-0.007469	-0.000600	-0.008981	
54445	    0	16.632336	-1.769204	-11.550407	-1.357872	-0.093844	-1.857799	0.166199	-0.020020	-0.115295	0.999933	-0.006789	-0.000469	-0.009289	
54446	    0	14.280396	3.207302	-13.689152	-1.234464	-0.070574	-2.000664	0.143158	0.029797	-0.137030	0.999930	-0.006172	-0.000353	-0.010003	
54447	    0	12.699494	7.198277	-13.755612	-1.293791	-0.017548	-2.273624	0.127808	0.069641	-0.138000	0.999914	-0.006469	-0.000088	-0.011368	
54448	    0	14.511243	4.342426	-12.731445	-1.351784	0.065615	-2.503289	0.145592	0.040742	-0.127644	0.999898	-0.006759	0.000328	-0.012516	
54449	    0	17.372597	-0.820068	-10.584857	-1.283310	0.129895	-2.637576	0.173523	-0.011169	-0.105896	0.999892	-0.006416	0.000649	-0.013187	
54450	    0	18.642493	-4.574137	-7.314085	-0.885422	0.133901	-2.758504	0.185719	-0.048630	-0.073054	0.999894	-0.004427	0.000669	-0.013792	
54451	    0	18.133494	-6.102482	-4.226993	-0.428596	0.044252	-2.883250	0.180420	-0.063721	-0.042175	0.999893	-0.002143	0.000221	-0.014416	
54452	    0	17.781725	-5.364778	-0.879402	-0.014687	-0.010682	-2.975574	0.176993	-0.056286	-0.008780	0.999888	-0.000073	-0.000053	-0.014877	
54453	    0	17.496187	-5.743370	1.576174	0.143438	-0.031854	-2.997702	0.174072	-0.060059	0.015747	0.999887	0.000717	-0.000159	-0.014988	
54454	    0	16.556194	-5.383344	3.292390	0.219353	-0.006485	-2.970233	0.164737	-0.056320	0.032868	0.999888	0.001097	-0.000032	-0.014851	
54455	    0	15.412410	-5.738694	5.510916	0.180251	0.003052	-2.938186	0.153259	-0.059692	0.055054	0.999891	0.000901	0.000015	-0.014690	
54456	    0	14.245792	-6.010664	5.651660	-0.150876	-0.019456	-2.799317	0.141593	-0.062050	0.056577	0.999902	-0.000754	-0.000097	-0.013996	
54457	    0	12.293317	-5.113056	3.884666	-0.608844	0.006294	-2.613146	0.122253	-0.052612	0.039001	0.999909	-0.003044	0.000031	-0.013065	
54458	    0	10.526370	-6.161864	2.968520	-1.090272	0.024796	-2.416109	0.104514	-0.062721	0.030012	0.999911	-0.005451	0.000124	-0.012080	
54459	    0	8.500946	-10.485423	2.312074	-1.581431	0.066378	-2.192755	0.083862	-0.105591	0.023926	0.999908	-0.007907	0.000332	-0.010963	
54460	    0	6.414018	-15.146293	2.574241	-1.897298	0.220115	-1.928198	0.062707	-0.151819	0.027112	0.999907	-0.009486	0.001101	-0.009641	
54461	    0	4.820791	-18.493287	3.884080	-1.821945	0.508321	-1.551095	0.046875	-0.184937	0.040405	0.999925	-0.009109	0.002542	-0.007755	
54462	    0	3.477270	-20.484159	4.103218	-1.463913	0.786031	-1.020638	0.033893	-0.204709	0.042397	0.999952	-0.007319	0.003930	-0.005103	
54463	    0	1.675249	-21.584115	3.212559	-0.728612	0.905043	-0.446322	0.016418	-0.215759	0.032837	0.999980	-0.003643	0.004525	-0.002232	
54464	    0	0.165994	-20.956801	1.649075	0.283814	0.877956	0.024986	0.001758	-0.209591	0.016186	0.999989	0.001419	0.004390	0.000125	
54465	    0	-0.365111	-17.443046	1.266128	1.028642	0.941476	0.411991	-0.003235	-0.174500	0.011780	0.999973	0.005143	0.004707	0.002060	
54466	    0	0.150103	-11.693649	2.648506	1.007092	1.081861	0.759706	0.002087	-0.117061	0.025886	0.999965	0.005035	0.005409	0.003798	
54467	    0	1.098341	-6.424503	3.404583	0.510603	1.203170	1.084150	0.011536	-0.064270	0.033813	0.999964	0.002553	0.006016	0.005421	
54468	    0	2.018570	-3.462152	3.955085	-0.137141	1.401924	1.374267	0.020700	-0.034453	0.039431	0.999951	-0.000686	0.007010	0.006871	
54469	    0	3.050762	-2.716866	4.362243	-0.557531	1.557195	1.638068	0.031067	-0.026794	0.043457	0.999931	-0.002788	0.007786	0.008190	
54470	    0	4.708246	-2.083084	4.694328	-0.582710	1.700065	1.771974	0.047661	-0.020274	0.046599	0.999920	-0.002913	0.008500	0.008860	
54471	    0	6.216479	-1.261103	4.683739	-0.672741	1.767780	1.768543	0.062683	-0.011902	0.046326	0.999916	-0.003364	0.008839	0.008842	
54472	    0	8.584859	0.630566	1.741105	-1.080352	1.545186	1.776554	0.085918	0.007160	0.016710	0.999916	-0.005402	0.007726	0.008883	
54473	    0	17.179267	0.619523	-3.825736	-1.306189	1.097329	1.967676	0.171509	0.007629	-0.039246	0.999915	-0.006531	0.005486	0.009838	
54474	    0	24.023669	-2.052653	-9.402612	-0.906395	0.833532	2.116447	0.240045	-0.018414	-0.094940	0.999925	-0.004532	0.004168	0.010582	
54475	    0	22.113125	-6.374682	-10.967242	-0.253302	0.905821	2.191214	0.221313	-0.061462	-0.110596	0.999928	-0.001266	0.004529	0.010956	
54476	    0	20.207967	-10.525712	-8.836107	0.704596	1.224746	2.296899	0.202721	-0.102616	-0.089966	0.999908	0.003523	0.006124	0.011484	
54477	    0	17.591748	-6.708920	-4.119366	1.638873	1.475787	2.596409	0.176453	-0.064453	-0.043030	0.999854	0.008194	0.007379	0.012981	
54478	    0	17.042290	-3.950032	-0.738971	2.256717	1.300316	2.712982	0.170882	-0.037089	-0.008927	0.999823	0.011283	0.006501	0.013564	
54479	    0	16.440953	-1.128564	-1.063961	2.019793	0.895736	2.675763	0.164490	-0.008972	-0.011475	0.999849	0.010098	0.004478	0.013378	
54480	    0	17.895421	2.190089	-3.224696	1.323557	0.483721	2.571389	0.178573	0.024413	-0.032523	0.999892	0.006618	0.002419	0.012856	
54481	    0	21.077026	3.823579	-4.774895	0.716612	0.234229	2.537611	0.210205	0.041077	-0.047852	0.999912	0.003583	0.001171	0.012688	
54482	    0	23.601139	3.535952	-5.234506	0.683806	0.071909	2.636991	0.235497	0.038646	-0.052301	0.999907	0.003419	0.000360	0.013185	
54483	    0	23.364068	1.928537	-5.290654	1.045266	0.001717	2.797803	0.233337	0.022827	-0.052795	0.999888	0.005226	0.000009	0.013988	
54484	    0	22.507940	0.722335	-5.184881	1.490083	0.002861	2.790758	0.224945	0.010749	-0.051781	0.999874	0.007450	0.000014	0.013953	
54485	    0	21.780238	1.415124	-3.811217	1.996129	0.012971	2.575798	0.217590	0.017334	-0.037964	0.999866	0.009980	0.000065	0.012878	
54486	    0	20.834157	3.202833	-2.474308	2.387158	0.007058	2.349773	0.207943	0.034765	-0.024346	0.999859	0.011935	0.000035	0.011748	
54487	    0	18.944689	4.742477	-2.384945	2.375898	-0.013543	2.222541	0.188904	0.049805	-0.023254	0.999867	0.011879	-0.000068	0.011112	
54488	    0	16.854766	6.483912	-2.503035	2.197161	-0.066378	2.127540	0.167851	0.066896	-0.024247	0.999883	0.010985	-0.000332	0.010637	
54489	    0	15.022877	7.836400	-2.606738	2.118183	-0.105289	1.929540	0.149475	0.080078	-0.025146	0.999897	0.010591	-0.000526	0.009647	
54490	    0	13.417822	9.547162	-2.684623	1.977403	-0.164227	1.653526	0.133403	0.096835	-0.025784	0.999916	0.009887	-0.000821	0.008267	
54491	    0	11.570978	11.487501	-2.810456	1.558142	-0.287634	1.419094	0.114929	0.115906	-0.027039	0.999943	0.007791	-0.001438	0.007095	
54492	    0	9.386493	12.757189	-2.561471	1.011860	-0.358967	1.213659	0.093133	0.128265	-0.024799	0.999967	0.005059	-0.001795	0.006068	
54493	    0	6.151739	11.931911	-1.379621	0.710493	-0.415042	1.057442	0.060913	0.119690	-0.013245	0.999977	0.003552	-0.002075	0.005287	
54494	    0	3.556849	11.904625	-1.748170	0.171281	-0.513079	0.813106	0.035129	0.119205	-0.017289	0.999988	0.000856	-0.002565	0.004066	
54495	    0	1.743078	12.972960	-0.721632	-0.250245	-0.631525	0.466920	0.017151	0.129761	-0.007324	0.999991	-0.001251	-0.003158	0.002335	
54496	    0	0.712049	13.293573	0.445796	-0.624469	-0.888257	0.163270	0.006993	0.132955	0.004074	0.999985	-0.003122	-0.004441	0.000816	
54497	    0	1.461137	11.955143	0.972311	-0.582890	-1.172456	-0.155641	0.014648	0.119568	0.009460	0.999978	-0.002914	-0.005862	-0.000778	
54498	    0	2.175104	8.337966	1.430355	0.155832	-1.317035	-0.412181	0.021828	0.083323	0.014512	0.999975	0.000779	-0.006585	-0.002061	
54499	    0	2.162972	2.652241	2.139311	0.839245	-1.515791	-0.599679	0.021545	0.026367	0.021667	0.999957	0.004196	-0.007579	-0.002998	
54500	    0	0.726890	-1.931112	2.198380	0.852222	-2.020117	-0.690857	0.006980	-0.019429	0.021973	0.999933	0.004261	-0.010100	-0.003454	
54501	    0	0.155960	-2.811604	1.901924	0.818088	-2.533802	-0.701164	0.001221	-0.028198	0.018921	0.999905	0.004090	-0.012669	-0.003506	
54502	    0	-0.172379	-3.735760	1.827246	0.629636	-2.580915	-0.706504	-0.002090	-0.037408	0.018129	0.999905	0.003148	-0.012904	-0.003532	
54503	    0	0.822212	-5.033275	2.279255	0.010872	-2.475041	-0.503553	0.007812	-0.050354	0.022888	0.999920	0.000054	-0.012375	-0.002518	
54504	    0	3.751569	-9.882844	-0.701172	-0.562682	-2.387488	-0.140384	0.037524	-0.098873	-0.006286	0.999924	-0.002813	-0.011937	-0.000702	
54505	    0	6.205537	-14.853692	-2.945349	-0.781834	-1.773862	0.091554	0.062378	-0.148621	-0.028320	0.999952	-0.003909	-0.008869	0.000458	
54506	    0	6.087984	-13.107593	-1.828472	-0.920876	-1.005563	0.407032	0.061235	-0.131033	-0.017374	0.999974	-0.004604	-0.005028	0.002035	
54507	    0	3.971464	-7.877556	0.539950	-0.888639	-0.247194	0.687412	0.039978	-0.078613	0.005798	0.999983	-0.004443	-0.001236	0.003437	
54508	    0	1.612720	-7.385885	-1.782972	-1.103795	-0.736245	0.941859	0.016540	-0.073878	-0.017362	0.999967	-0.005519	-0.003681	0.004709	
54509	    0	6.457009	-3.106747	1.487228	-1.925504	0.667584	0.501260	0.064697	-0.030762	0.014954	0.999945	-0.009627	0.003338	0.002506	
54510	    0	16.277666	1.061459	16.997349	0.633817	1.172075	-0.429920	0.163791	0.009727	0.169047	0.999975	0.003169	0.005860	-0.002150	
54511	    0	21.470826	-16.121098	1.294838	0.702101	-1.200876	0.116731	0.214722	-0.161133	0.013672	0.999975	0.003510	-0.006004	0.000584	
54512	    0	18.086599	0.803011	-17.817728	-0.595096	-0.655177	0.626758	0.181423	0.008069	-0.177608	0.999985	-0.002975	-0.003276	0.003134	
54513	    0	7.132843	24.762234	0.775177	1.195535	0.217630	0.482944	0.070740	0.247742	0.009155	0.999978	0.005978	0.001088	0.002415	
54514	    0	1.446156	30.555908	-4.715923	-0.393106	-0.906185	0.145341	0.014455	0.305476	-0.047694	0.999987	-0.001966	-0.004531	0.000727	
54515	    0	6.145867	33.055429	-12.191528	-1.968234	-0.901050	-0.552380	0.062927	0.329163	-0.124878	0.999937	-0.009841	-0.004505	-0.002762	
54516	    0	14.585810	16.721347	-11.806093	-2.235099	-0.614376	-1.378673	0.147366	0.164871	-0.119461	0.999908	-0.011175	-0.003072	-0.006893	
54517	    0	18.425844	3.104835	-12.055836	-2.298058	-0.375952	-1.851722	0.184753	0.027954	-0.120544	0.999888	-0.011490	-0.001880	-0.009258	
54518	    0	14.437260	1.664106	-9.155802	-1.432454	-0.383005	-1.905678	0.144693	0.014608	-0.091391	0.999927	-0.007162	-0.001915	-0.009528	
54519	    0	12.406908	4.280133	-8.999602	-1.038384	-0.591864	-2.020310	0.124756	0.041077	-0.089844	0.999930	-0.005192	-0.002959	-0.010101	
54520	    0	12.429544	6.702389	-9.857547	-1.325449	-0.560393	-1.942682	0.125211	0.065157	-0.098661	0.999927	-0.006627	-0.002802	-0.009713	
54521	    0	14.321908	4.889440	-10.357576	-1.561018	-0.428593	-2.024898	0.143921	0.046631	-0.103638	0.999915	-0.007805	-0.002143	-0.010124	
54522	    0	16.727532	-0.889293	-12.854107	-1.472707	-0.384342	-2.158037	0.167406	-0.011643	-0.128140	0.999912	-0.007363	-0.001922	-0.010790	
54523	    0	15.391441	1.384508	-14.423256	-1.267277	-0.345430	-2.207245	0.154297	0.011230	-0.144043	0.999917	-0.006336	-0.001727	-0.011036	
54524	    0	15.014563	4.253002	-14.443976	-1.067003	-0.261124	-2.465514	0.150837	0.039903	-0.144461	0.999908	-0.005335	-0.001306	-0.012327	
54525	    0	16.805939	3.176038	-13.077746	-1.096382	-0.096706	-2.654358	0.168518	0.028809	-0.130859	0.999896	-0.005482	-0.000484	-0.013271	
54526	    0	19.782468	-1.053764	-9.657972	-0.966489	0.051310	-2.811535	0.197621	-0.013783	-0.096569	0.999889	-0.004832	0.000257	-0.014057	
54527	    0	20.976904	-5.043703	-6.214911	-0.724628	0.109104	-2.855786	0.208984	-0.053650	-0.062073	0.999891	-0.003623	0.000546	-0.014278	
54528	    0	19.456412	-4.378455	-2.614590	-0.377669	0.092891	-2.915106	0.193886	-0.046663	-0.026150	0.999891	-0.001888	0.000464	-0.014575	
54529	    0	19.140440	-4.843631	0.449859	-0.187499	0.030519	-2.908428	0.190674	-0.051208	0.004517	0.999893	-0.000937	0.000153	-0.014542	
54530	    0	18.045233	-5.174593	2.409931	-0.121693	-0.051882	-2.845860	0.179686	-0.054292	0.024179	0.999898	-0.000608	-0.000259	-0.014229	
54531	    0	16.579996	-5.627505	3.794455	-0.188261	-0.105289	-2.775663	0.164978	-0.058533	0.038086	0.999903	-0.000941	-0.000526	-0.013878	
54532	    0	14.894730	-5.382941	4.425657	-0.535791	-0.094989	-2.661596	0.148193	-0.055686	0.044475	0.999907	-0.002679	-0.000475	-0.013308	
54533	    0	12.625672	-5.533909	3.929948	-0.972776	-0.061609	-2.471997	0.125549	-0.056702	0.039612	0.999911	-0.004864	-0.000308	-0.012360	
54534	    0	10.316916	-6.629984	1.893777	-1.375429	-0.026513	-2.252453	0.102412	-0.067324	0.019412	0.999912	-0.006877	-0.000133	-0.011262	
54535	    0	7.915944	-8.886887	0.830837	-1.625679	0.003815	-2.042447	0.078247	-0.089600	0.009033	0.999914	-0.008128	0.000019	-0.010212	
54536	    0	6.538717	-11.773052	0.995953	-1.730392	0.098613	-1.825381	0.064315	-0.118229	0.010949	0.999920	-0.008652	0.000493	-0.009127	
54537	    0	6.747318	-15.240918	2.370424	-1.716652	0.335129	-1.532017	0.066345	-0.152710	0.024902	0.999932	-0.008583	0.001676	-0.007660	
54538	    0	6.386569	-17.913328	3.357330	-1.501490	0.617991	-1.162548	0.062930	-0.179243	0.034723	0.999949	-0.007507	0.003090	-0.005813	
54539	    0	5.098016	-19.059379	3.369313	-0.990114	0.841530	-0.743873	0.050415	-0.190613	0.034424	0.999971	-0.004951	0.004208	-0.003719	
54540	    0	2.912547	-19.083765	2.721974	-0.197030	0.889591	-0.371172	0.028893	-0.190865	0.027279	0.999988	-0.000985	0.004448	-0.001856	
54541	    0	0.923152	-17.559867	1.926243	0.623324	0.826458	-0.036621	0.009277	-0.175659	0.018677	0.999986	0.003117	0.004132	-0.000183	
54542	    0	-0.186110	-14.366283	2.929586	0.985916	0.835997	0.302698	-0.001523	-0.143807	0.028594	0.999977	0.004930	0.004180	0.001513	
54543	    0	0.098128	-9.971186	4.113514	0.715834	0.955971	0.699621	0.001526	-0.099854	0.040771	0.999975	0.003579	0.004780	0.003498	
54544	    0	1.383316	-5.916117	5.172761	0.168230	1.206030	1.117147	0.014475	-0.059125	0.051592	0.999966	0.000841	0.006030	0.005586	
54545	    0	2.437314	-3.615260	5.930575	-0.468263	1.495391	1.499205	0.025085	-0.035828	0.059204	0.999941	-0.002341	0.007477	0.007496	
54546	    0	3.619702	-2.452617	6.657622	-0.942067	1.735929	1.788574	0.036989	-0.023885	0.066371	0.999910	-0.004710	0.008679	0.008943	
54547	    0	5.202842	-0.651383	6.906524	-1.182407	1.892157	1.874609	0.052734	-0.005615	0.068604	0.999893	-0.005912	0.009460	0.009373	
54548	    0	6.395004	0.540789	5.526002	-1.387840	1.932790	1.856493	0.064424	0.006385	0.054597	0.999886	-0.006939	0.009664	0.009282	
54549	    0	7.245810	0.387140	1.724622	-1.614445	1.847342	1.910477	0.072571	0.004700	0.016541	0.999879	-0.008072	0.009236	0.009552	
54550	    0	11.984743	-1.878074	-3.162960	-1.676625	1.480923	2.085958	0.119799	-0.017800	-0.032365	0.999883	-0.008383	0.007404	0.010429	
54551	    0	21.174473	-5.345516	-8.588633	-1.215214	1.154367	2.329334	0.211853	-0.051514	-0.086792	0.999897	-0.006076	0.005772	0.011646	
54552	    0	23.275167	-6.601901	-10.570179	-0.399601	1.124987	2.342673	0.232906	-0.063504	-0.106883	0.999913	-0.001998	0.005625	0.011713	
54553	    0	21.062339	-8.323292	-8.106038	0.551814	1.344344	2.429280	0.211060	-0.080444	-0.082703	0.999899	0.002759	0.006721	0.012146	
54554	    0	17.462131	-6.635108	-3.637442	1.299345	1.528237	2.622724	0.175182	-0.063812	-0.038132	0.999864	0.006496	0.007641	0.013113	
54555	    0	16.200173	-4.339199	-1.632103	1.483993	1.392626	2.845146	0.162476	-0.040955	-0.017761	0.999846	0.007420	0.006963	0.014225	
54556	    0	17.532237	-1.157639	-1.655828	1.664441	1.035936	2.992599	0.175379	-0.008809	-0.017548	0.999840	0.008322	0.005179	0.014962	
54557	    0	20.674191	1.836688	-3.567812	1.448894	0.703656	3.062592	0.206299	0.021790	-0.036255	0.999850	0.007244	0.003518	0.015312	
54558	    0	25.574018	3.829194	-5.380069	1.152091	0.441762	3.062006	0.254992	0.042511	-0.054128	0.999864	0.005760	0.002209	0.015309	
54559	    0	28.697553	4.922729	-5.595315	1.092579	0.338951	3.087755	0.286072	0.053955	-0.056152	0.999864	0.005463	0.001695	0.015438	
54560	    0	26.086107	5.483330	-4.693772	1.070455	0.284018	3.194770	0.259871	0.059241	-0.046998	0.999857	0.005352	0.001420	0.015973	
54561	    0	24.041615	5.492851	-3.637461	1.133212	0.223552	3.241890	0.239441	0.059021	-0.036316	0.999851	0.005666	0.001118	0.016209	
54562	    0	23.814661	4.308992	-2.342820	1.250326	0.134856	3.113702	0.237420	0.046936	-0.023303	0.999859	0.006251	0.000674	0.015568	
54563	    0	23.013486	4.123288	-1.931089	1.242881	0.002480	2.948887	0.229492	0.044739	-0.019043	0.999871	0.006214	0.000012	0.014744	
54564	    0	20.776658	5.280646	-1.857739	1.255276	-0.046923	2.809445	0.207001	0.055833	-0.018185	0.999881	0.006276	-0.000235	0.014047	
54565	    0	17.973866	7.204226	-1.688827	1.443536	-0.066950	2.638344	0.178772	0.074524	-0.016296	0.999887	0.007217	-0.000335	0.013191	
54566	    0	15.777117	9.131928	-1.745398	1.715912	-0.127797	2.372064	0.156683	0.093327	-0.016559	0.999892	0.008579	-0.000639	0.011860	
54567	    0	13.639237	10.494460	-1.854173	1.855528	-0.150876	2.058477	0.135315	0.106506	-0.017456	0.999904	0.009277	-0.000754	0.010292	
54568	    0	11.312791	12.339479	-2.417213	1.605835	-0.181202	1.760906	0.112056	0.124573	-0.023073	0.999928	0.008029	-0.000906	0.008804	
54569	    0	7.596521	13.633339	-2.296358	1.099603	-0.148012	1.506827	0.074951	0.137024	-0.022156	0.999956	0.005498	-0.000740	0.007534	
54570	    0	4.208030	13.636456	-0.968391	0.919350	-0.211717	1.072321	0.041358	0.136630	-0.009012	0.999974	0.004597	-0.001059	0.005362	
54571	    0	2.019622	13.955740	0.640366	0.836376	-0.318147	0.587466	0.019775	0.139587	0.007019	0.999985	0.004182	-0.001591	0.002937	
54572	    0	-0.113030	13.952431	1.158994	0.101662	-0.645830	0.246621	-0.001340	0.139517	0.011657	0.999993	0.000508	-0.003229	0.001233	
54573	    0	0.530829	12.371027	0.398903	-0.768857	-0.987250	-0.229646	0.005432	0.123718	0.003540	0.999979	-0.003844	-0.004936	-0.001148	
54574	    0	1.981775	9.154465	-0.625487	-0.699431	-1.193439	-0.553708	0.020109	0.091467	-0.006455	0.999971	-0.003497	-0.005967	-0.002769	
54575	    0	2.985645	4.918867	-0.785857	-0.147058	-1.361098	-0.737770	0.030090	0.049072	-0.007690	0.999969	-0.000735	-0.006805	-0.003689	
54576	    0	2.715117	1.275776	-1.085986	0.539978	-1.592278	-0.866331	0.027291	0.012669	-0.010609	0.999955	0.002700	-0.007961	-0.004332	
54577	    0	0.971060	-0.634255	-0.867187	0.933287	-1.960037	-0.930808	0.009766	-0.006348	-0.008606	0.999929	0.004666	-0.009800	-0.004654	
54578	    0	-0.674056	-1.704307	0.167604	0.942259	-2.392270	-0.888661	-0.006835	-0.017020	0.001514	0.999907	0.004711	-0.011961	-0.004443	
54579	    0	-0.097448	-3.475313	2.221254	0.934061	-2.575772	-0.831632	-0.001404	-0.034851	0.022034	0.999897	0.004670	-0.012878	-0.004158	
54580	    0	2.816401	-7.768279	3.477259	0.888662	-2.502521	-0.783564	0.027424	-0.077946	0.034773	0.999904	0.004443	-0.012512	-0.003918	
54581	    0	5.928938	-12.341909	2.805838	0.746362	-2.043959	-0.659957	0.058594	-0.123718	0.028198	0.999935	0.003732	-0.010220	-0.003300	
54582	    0	7.915666	-13.639525	0.935526	1.009571	-1.167501	-0.453191	0.078794	-0.136621	0.009127	0.999968	0.005048	-0.005837	-0.002266	
54583	    0	5.887805	-9.086449	-1.272311	0.784495	-0.475313	-0.021362	0.058899	-0.090820	-0.012939	0.999989	0.003922	-0.002377	-0.000107	
54584	    0	2.520563	-4.313747	-1.282193	-0.428391	-0.059700	0.313950	0.025277	-0.043125	-0.012722	0.999996	-0.002142	-0.000299	0.001570	
54585	    0	-0.460586	-0.829141	1.650803	-2.259687	0.050355	0.588240	-0.004578	-0.008118	0.016602	0.999931	-0.011298	0.000252	0.002941	
54586	    0	-2.019829	-1.751957	-3.853527	-3.220173	-1.529019	1.093737	-0.019806	-0.018248	-0.038398	0.999825	-0.016100	-0.007645	0.005468	
54587	    0	-2.171242	3.238507	-2.095627	-3.555488	0.393889	0.218975	-0.021790	0.031982	-0.021484	0.999839	-0.017776	0.001969	0.001095	
54588	    0	10.026262	12.430913	8.925575	0.038529	0.260354	-0.915722	0.100946	0.123831	0.089149	0.999989	0.000193	0.001302	-0.004579	
54589	    0	35.076345	-8.683223	14.945162	3.306963	-0.762221	-1.565643	0.349487	-0.092041	0.149292	0.999825	0.016534	-0.003811	-0.007828	
54590	    0	28.633017	-41.742266	-11.499513	-0.546461	-1.394096	0.533110	0.288229	-0.416965	-0.111851	0.999968	-0.002732	-0.006970	0.002666	
54591	    0	17.016686	-3.911549	-16.006446	0.852211	0.419811	1.124583	0.170044	-0.037476	-0.160583	0.999972	0.004261	0.002099	0.005623	
54592	    0	8.328616	21.339583	2.989173	-0.790409	-0.114632	0.736622	0.082482	0.213817	0.029095	0.999985	-0.003952	-0.000573	0.003683	
54593	    0	-2.024327	43.092759	-7.750033	-1.282514	-0.583464	0.570684	-0.021240	0.430359	-0.080322	0.999970	-0.006413	-0.002917	0.002853	
54594	    0	3.048515	25.956611	-12.536651	-1.548402	-0.427251	-0.182917	0.030993	0.258557	-0.127305	0.999967	-0.007742	-0.002136	-0.000915	
54595	    0	15.732500	2.302608	-12.992913	-2.539145	0.062754	-1.178017	0.157410	0.020447	-0.130249	0.999902	-0.012695	0.000314	-0.005890	
54596	    0	13.659385	2.581450	-9.791046	-1.640923	-0.002289	-1.375606	0.136765	0.024070	-0.098111	0.999942	-0.008204	-0.000011	-0.006878	
54597	    0	11.339638	6.430293	-9.305973	-0.811016	-0.204280	-1.646447	0.114014	0.062988	-0.093201	0.999957	-0.004055	-0.001021	-0.008232	
54598	    0	12.832595	6.124682	-9.347547	-0.860801	-0.392348	-1.751929	0.129037	0.059716	-0.093482	0.999950	-0.004304	-0.001962	-0.008759	
54599	    0	14.193700	6.807054	-10.300765	-1.149580	-0.511942	-1.676209	0.142761	0.066284	-0.103027	0.999945	-0.005748	-0.002560	-0.008381	
54600	    0	16.322224	3.280995	-9.735264	-1.270513	-0.366982	-1.871531	0.163694	0.030662	-0.097252	0.999934	-0.006352	-0.001835	-0.009357	
54601	    0	17.830410	-0.925460	-10.965721	-1.217488	-0.379189	-1.947828	0.178406	-0.011658	-0.109253	0.999931	-0.006087	-0.001896	-0.009739	
54602	    0	15.399022	3.594509	-12.845146	-1.008820	-0.396928	-2.073145	0.154602	0.033697	-0.128319	0.999931	-0.005044	-0.001985	-0.010365	
54603	    0	13.135178	6.306032	-13.043364	-1.051931	-0.308236	-2.306429	0.132263	0.060852	-0.130554	0.999918	-0.005260	-0.001541	-0.011532	
54604	    0	14.486282	4.265770	-11.970187	-1.105344	-0.172048	-2.537427	0.145486	0.040153	-0.119803	0.999904	-0.005527	-0.000860	-0.012687	
54605	    0	17.122918	-0.738109	-9.527148	-0.909456	-0.088313	-2.779488	0.171143	-0.010193	-0.095154	0.999892	-0.004547	-0.000442	-0.013897	
54606	    0	18.759400	-5.558369	-6.370650	-0.503940	-0.035859	-2.910529	0.186769	-0.058466	-0.063528	0.999890	-0.002520	-0.000179	-0.014552	
54607	    0	17.856590	-5.654869	-2.897945	-0.024987	-0.115208	-2.910717	0.177734	-0.059143	-0.028870	0.999893	-0.000125	-0.000576	-0.014553	
54608	    0	17.460203	-3.594424	-0.216353	0.342191	-0.143629	-2.972714	0.174044	-0.038530	-0.002103	0.999887	0.001711	-0.000718	-0.014863	
54609	    0	17.563205	-3.289005	2.146898	0.346387	-0.086025	-2.961078	0.175110	-0.035522	0.021484	0.999888	0.001732	-0.000430	-0.014805	
54610	    0	16.587914	-4.344234	3.640419	0.281535	-0.001144	-2.917585	0.165221	-0.045907	0.036342	0.999892	0.001408	-0.000006	-0.014587	
54611	    0	15.656634	-5.537424	4.283262	0.106052	0.021554	-2.845860	0.155762	-0.057617	0.042786	0.999898	0.000530	0.000108	-0.014229	
54612	    0	14.432882	-6.196577	4.473121	-0.208671	0.026894	-2.741328	0.143468	-0.063890	0.044778	0.999905	-0.001043	0.000134	-0.013706	
