// Start Time: Unknown
// Update Rate: 100.0Hz
// Filter Profile: human (34.3)
// Firmware Version: 2.1.4
PacketCounter	SampleTimeFine	Acc_X	Acc_Y	Acc_Z	Gyr_X	Gyr_Y	Gyr_Z	VelInc_X	VelInc_Y	VelInc_Z	OriInc_q0	OriInc_q1	OriInc_q2	OriInc_q3	
33107	    0	15.247556	5.455027	-6.690507	-0.515562	-0.035096	-1.512162	0.152893	0.053223	-0.067017	0.999968	-0.002578	-0.000175	-0.007561	
33108	    0	18.519530	3.624508	-6.761784	-0.925265	0.115968	-1.315131	0.185388	0.034713	-0.067888	0.999967	-0.004626	0.000580	-0.006576	
33109	    0	18.959615	-0.255614	-5.302313	-1.201453	0.232699	-1.152052	0.189514	-0.003967	-0.053223	0.999964	-0.006007	0.001163	-0.005760	
33110	    0	21.785203	-0.473038	-3.609419	-1.347178	0.307278	-1.132789	0.217764	-0.006208	-0.036390	0.999960	-0.006736	0.001536	-0.005664	
33111	    0	21.823562	-0.739948	-2.992013	-1.608112	0.329595	-1.107806	0.218140	-0.008850	-0.030212	0.999950	-0.008040	0.001648	-0.005539	
33112	    0	20.340845	-0.838770	-2.133085	-1.883164	0.353248	-1.117538	0.203319	-0.009727	-0.021603	0.999938	-0.009416	0.001766	-0.005588	
33113	    0	20.432877	-1.415768	-1.072313	-2.240050	0.362597	-1.138336	0.204224	-0.015442	-0.010925	0.999919	-0.011200	0.001813	-0.005692	
33114	    0	19.418305	-2.035677	-0.345307	-2.624221	0.300609	-1.148454	0.194057	-0.021517	-0.003468	0.999896	-0.013121	0.001503	-0.005742	
33115	    0	18.161446	-2.725841	0.325872	-2.905965	0.271618	-1.156664	0.181458	-0.028259	0.003418	0.999876	-0.014529	0.001358	-0.005783	
33116	    0	16.211766	-5.264074	0.248281	-3.074213	0.288023	-1.160865	0.161813	-0.053536	0.003068	0.999864	-0.015370	0.001440	-0.005804	
33117	    0	14.548532	-7.665040	0.023833	-3.291301	0.397512	-1.210848	0.145020	-0.077515	0.001221	0.999844	-0.016456	0.001987	-0.006054	
33118	    0	13.121133	-9.631612	-0.541999	-3.326594	0.469614	-1.255293	0.130592	-0.097213	-0.004115	0.999839	-0.016632	0.002348	-0.006276	
33119	    0	11.902209	-9.174466	-1.362417	-3.193066	0.510624	-1.389384	0.118347	-0.092773	-0.012451	0.999845	-0.015965	0.002553	-0.006947	
33120	    0	11.524526	-8.434772	-2.645535	-2.904075	0.505471	-1.620369	0.114490	-0.085652	-0.025508	0.999858	-0.014520	0.002527	-0.008101	
33121	    0	11.905837	-5.257402	-1.888526	-2.496257	0.466177	-2.038664	0.118469	-0.054016	-0.018494	0.999866	-0.012481	0.002331	-0.010193	
33122	    0	11.433563	-3.793632	-1.762358	-2.220255	0.471899	-2.394213	0.113828	-0.039495	-0.017460	0.999864	-0.011101	0.002359	-0.011971	
33123	    0	9.998513	-6.203094	-2.882312	-1.845445	0.405903	-2.747472	0.099060	-0.063660	-0.028442	0.999861	-0.009227	0.002029	-0.013737	
33124	    0	10.070509	-5.699200	-3.416481	-1.513175	0.265516	-3.099215	0.099758	-0.058800	-0.033857	0.999850	-0.007565	0.001328	-0.015495	
33125	    0	11.702492	-5.932059	-3.535588	-1.319001	0.345630	-3.283101	0.115967	-0.061462	-0.035156	0.999842	-0.006595	0.001728	-0.016415	
33126	    0	12.401418	-5.741778	-3.221891	-0.943999	0.315302	-3.497507	0.122932	-0.059726	-0.032135	0.999834	-0.004720	0.001576	-0.017487	
33127	    0	11.191272	-3.562294	-3.158054	-0.432611	0.207722	-3.640189	0.111206	-0.037720	-0.031616	0.999831	-0.002163	0.001039	-0.018200	
33128	    0	9.444727	-0.703192	-3.365737	-0.151071	0.158128	-3.738240	0.094267	-0.008821	-0.033726	0.999825	-0.000755	0.000791	-0.018690	
33129	    0	7.877031	0.093514	-4.174514	-0.194370	0.162515	-3.666893	0.078735	-0.000549	-0.041809	0.999830	-0.000972	0.000813	-0.018333	
33130	    0	10.261941	-1.525404	-0.859055	-0.161942	0.281347	-3.386470	0.102329	-0.016995	-0.008721	0.999855	-0.000810	0.001407	-0.016932	
33131	    0	15.266460	-1.155903	-3.273402	0.097851	-0.033571	-3.111393	0.152466	-0.013916	-0.032715	0.999878	0.000489	-0.000168	-0.015556	
33132	    0	7.757831	-5.733467	-2.253841	-0.051119	-0.088313	-2.728165	0.076797	-0.058392	-0.022490	0.999907	-0.000256	-0.000442	-0.013640	
33133	    0	7.882162	-6.736079	-3.111217	-0.185209	-0.110629	-2.635270	0.077942	-0.068420	-0.031006	0.999912	-0.000926	-0.000553	-0.013176	
33134	    0	7.682190	-5.296254	-3.554833	-0.365458	-0.123218	-2.483815	0.076178	-0.053976	-0.035403	0.999921	-0.001827	-0.000616	-0.012419	
33135	    0	7.933187	-5.547116	-3.721064	-0.560010	-0.167660	-2.236225	0.078735	-0.056458	-0.036987	0.999932	-0.002800	-0.000838	-0.011181	
33136	    0	7.524095	-5.803682	-3.526788	-0.647366	-0.193981	-1.948200	0.074704	-0.058880	-0.035006	0.999947	-0.003237	-0.000970	-0.009741	
33137	    0	8.114238	-5.966551	-3.609674	-0.303653	-0.137903	-1.592272	0.080688	-0.060364	-0.035950	0.999967	-0.001518	-0.000690	-0.007961	
33138	    0	9.832357	-6.703087	-4.640442	0.387957	-0.102235	-1.185425	0.097948	-0.067522	-0.046485	0.999980	0.001940	-0.000511	-0.005927	
33139	    0	10.775299	-6.935074	-5.320281	0.952345	-0.010681	-0.785833	0.107483	-0.069519	-0.053528	0.999981	0.004762	-0.000053	-0.003929	
33140	    0	10.172274	-5.858257	-5.050862	1.151283	0.119591	-0.349428	0.101590	-0.058468	-0.050906	0.999981	0.005756	0.000598	-0.001747	
33141	    0	8.344315	-3.431511	-3.660783	1.142317	0.149537	0.113679	0.083435	-0.034058	-0.036865	0.999983	0.005712	0.000748	0.000568	
33142	    0	6.792088	-1.468746	-2.470759	1.047332	0.114632	0.642399	0.067953	-0.014339	-0.024822	0.999981	0.005237	0.000573	0.003212	
33143	    0	6.107534	-0.613233	-2.282766	0.829513	0.119020	1.182567	0.061096	-0.005676	-0.022888	0.999973	0.004148	0.000595	0.005913	
33144	    0	5.882689	-0.631837	-2.486134	0.523766	0.115778	1.791980	0.058866	-0.005726	-0.024911	0.999956	0.002619	0.000579	0.008960	
33145	    0	5.521280	-0.930223	-2.729058	0.233465	0.155071	2.404081	0.055298	-0.008606	-0.027344	0.999927	0.001167	0.000775	0.012020	
33146	    0	4.909410	-1.145446	-2.695933	0.147253	0.134282	2.943146	0.049237	-0.010711	-0.027000	0.999890	0.000736	0.000671	0.014715	
33147	    0	4.790725	-0.505771	-2.762651	0.110060	0.083165	3.466208	0.047974	-0.004211	-0.027649	0.999849	0.000550	0.000416	0.017330	
33148	    0	5.453924	0.188684	-2.783728	-0.078588	0.053982	3.999977	0.054480	0.002966	-0.027853	0.999800	-0.000393	0.000270	0.019999	
33149	    0	5.730883	-0.091089	-2.283182	-0.263046	-0.016023	4.561249	0.057312	0.000366	-0.022827	0.999739	-0.001315	-0.000080	0.022804	
33150	    0	7.151560	-1.129200	-1.603308	-0.392955	-0.141159	5.007889	0.071780	-0.009528	-0.015963	0.999684	-0.001965	-0.000706	0.025037	
33151	    0	8.701663	-1.733830	-1.353946	-0.357862	-0.330965	5.377087	0.087463	-0.015015	-0.013367	0.999635	-0.001789	-0.001655	0.026882	
33152	    0	10.956349	-2.265811	-0.774571	-0.228913	-0.503418	5.695166	0.110168	-0.019535	-0.007445	0.999590	-0.001144	-0.002517	0.028472	
33153	    0	13.081673	-2.633764	-0.115938	0.028424	-0.655464	5.997614	0.131531	-0.022400	-0.000732	0.999544	0.000142	-0.003277	0.029984	
33154	    0	14.668599	-2.926793	0.877057	0.441052	-0.782524	6.249321	0.147470	-0.024688	0.009289	0.999501	0.002205	-0.003912	0.031241	
33155	    0	16.200413	-2.208872	1.592178	0.930955	-0.868955	6.476243	0.162537	-0.016907	0.016541	0.999455	0.004654	-0.004344	0.032375	
33156	    0	17.589089	-1.712965	2.314033	1.464942	-0.917234	6.658723	0.176227	-0.011438	0.023850	0.999408	0.007323	-0.004585	0.033287	
33157	    0	18.233556	-1.249395	2.888266	2.148321	-0.889776	6.748106	0.182495	-0.006653	0.029602	0.999363	0.010739	-0.004448	0.033733	
33158	    0	18.741697	0.046814	2.398220	2.963177	-0.806231	6.773984	0.187167	0.006448	0.024803	0.999309	0.014812	-0.004030	0.033862	
33159	    0	19.635147	1.469953	0.859268	3.634211	-0.595241	6.784979	0.195679	0.021179	0.009521	0.999254	0.018167	-0.002975	0.033916	
33160	    0	20.755458	3.391380	-1.367595	4.053204	-0.323188	6.721126	0.206274	0.041123	-0.012557	0.999228	0.020261	-0.001616	0.033597	
33161	    0	22.219120	7.856163	-3.700038	3.988109	0.010875	6.598008	0.219421	0.086548	-0.035339	0.999257	0.019936	0.000054	0.032982	
33162	    0	22.778491	11.015741	-6.778153	3.657968	0.261365	6.338582	0.224030	0.118516	-0.065959	0.999330	0.018286	0.001307	0.031686	
33163	    0	22.708835	14.566808	-11.826606	3.119660	0.108357	5.856635	0.222595	0.154053	-0.116028	0.999449	0.015595	0.000542	0.029278	
33164	    0	21.309158	20.030872	-15.107439	2.156732	-0.253520	5.176652	0.207974	0.207348	-0.148598	0.999605	0.010782	-0.001267	0.025880	
33165	    0	17.515715	24.681589	-13.593903	0.990570	-0.565386	4.350647	0.170105	0.251221	-0.134216	0.999746	0.004952	-0.002827	0.021751	
33166	    0	15.323192	27.481177	-8.184072	0.037958	-0.665125	3.360913	0.148856	0.277353	-0.081288	0.999853	0.000190	-0.003325	0.016804	
33167	    0	14.538618	30.845499	-3.576159	-0.675981	-0.346192	2.328549	0.141846	0.309998	-0.036560	0.999925	-0.003380	-0.001731	0.011642	
33168	    0	10.347292	27.015668	-3.723085	-0.608257	-0.111390	1.093299	0.102015	0.270602	-0.037996	0.999980	-0.003041	-0.000557	0.005466	
33169	    0	7.923989	25.797498	-4.555904	-0.144196	-0.227928	-0.325775	0.079712	0.257812	-0.045654	0.999997	-0.000721	-0.001140	-0.001629	
33170	    0	7.596920	25.401535	-3.634627	0.060082	-0.362972	-1.412595	0.077826	0.253481	-0.036130	0.999973	0.000300	-0.001815	-0.007063	
33171	    0	8.655432	20.349328	-1.763503	0.131228	-0.381287	-2.247668	0.088867	0.202515	-0.017334	0.999934	0.000656	-0.001906	-0.011238	
33172	    0	10.401074	13.365224	2.050923	0.404945	-0.353254	-2.910339	0.105904	0.132078	0.020964	0.999890	0.002025	-0.001766	-0.014551	
33173	    0	8.199113	9.560263	4.817633	1.013993	-0.415630	-3.138114	0.083374	0.094055	0.048828	0.999862	0.005070	-0.002078	-0.015690	
33174	    0	7.166987	3.485132	4.926867	1.714036	-0.472285	-3.132799	0.072083	0.033299	0.049728	0.999837	0.008570	-0.002361	-0.015663	
33175	    0	2.394232	2.218297	4.369614	2.620307	-0.738577	-3.051207	0.024109	0.021240	0.044067	0.999790	0.013101	-0.003693	-0.015255	
33176	    0	10.377201	10.733165	-8.332515	3.744349	-0.877478	-3.432463	0.105969	0.107055	-0.080857	0.999667	0.018720	-0.004387	-0.017160	
33177	    0	39.391309	21.500616	-7.906484	3.340829	-0.586023	-4.865978	0.399231	0.206604	-0.074402	0.999559	0.016702	-0.002930	-0.024326	
33178	    0	30.914503	18.082664	1.880737	1.476616	-1.072221	-4.368809	0.312882	0.173865	0.021779	0.999720	0.007382	-0.005361	-0.021842	
33179	    0	26.790940	-2.769278	1.685908	-0.455317	-0.712636	-4.059129	0.267212	-0.033081	0.017883	0.999784	-0.002276	-0.003563	-0.020294	
33180	    0	18.722344	-8.666180	-0.690767	-0.301385	-1.345358	-4.105126	0.185432	-0.090489	-0.005522	0.999765	-0.001507	-0.006726	-0.020524	
33181	    0	4.636490	8.546757	-7.699839	0.985237	-1.950254	-4.183585	0.048889	0.084839	-0.076111	0.999722	0.004926	-0.009750	-0.020916	
33182	    0	9.681001	15.759577	-8.893108	-0.072103	-1.192567	-4.150904	0.100580	0.155502	-0.088395	0.999766	-0.000360	-0.005962	-0.020753	
33183	    0	10.169570	13.572199	-3.842445	-0.836805	-0.797321	-3.661571	0.104309	0.133667	-0.038574	0.999815	-0.004184	-0.003986	-0.018307	
33184	    0	3.121602	4.828205	-5.468297	-0.733022	-0.720623	-2.825653	0.032089	0.047632	-0.054744	0.999887	-0.003665	-0.003603	-0.014128	
33185	    0	6.653949	6.235766	-4.074228	-0.370035	-0.435459	-2.443759	0.067383	0.061462	-0.040710	0.999921	-0.001850	-0.002177	-0.012218	
33186	    0	12.608226	7.554632	-4.574278	-0.549326	-0.199894	-1.999319	0.126874	0.074155	-0.045821	0.999946	-0.002747	-0.000999	-0.009996	
33187	    0	13.079611	5.237214	-4.263693	-0.520140	-0.070954	-1.606007	0.131226	0.051208	-0.042725	0.999964	-0.002601	-0.000355	-0.008030	
33188	    0	16.672916	4.382460	-6.105306	-0.410084	0.052453	-1.441969	0.167023	0.042496	-0.061185	0.999971	-0.002050	0.000262	-0.007210	
33189	    0	20.254032	2.247397	-7.765516	-0.792702	0.259593	-1.274884	0.202576	0.020874	-0.078003	0.999970	-0.003963	0.001298	-0.006374	
33190	    0	21.944641	-1.723705	-6.166101	-1.228348	0.332264	-1.199738	0.219234	-0.018932	-0.061913	0.999961	-0.006142	0.001661	-0.005999	
33191	    0	22.937558	-2.289240	-3.772077	-1.766239	0.237469	-1.196312	0.229187	-0.024597	-0.037781	0.999942	-0.008831	0.001187	-0.005981	
33192	    0	21.725665	-0.030555	-1.382799	-2.316924	0.180440	-1.273192	0.217236	-0.001850	-0.014009	0.999911	-0.011584	0.000902	-0.006366	
33193	    0	21.695042	-1.627340	2.143910	-2.816695	0.179298	-1.313072	0.216858	-0.017395	0.021484	0.999878	-0.014083	0.000896	-0.006565	
33194	    0	20.324931	-4.381326	3.418739	-3.156244	0.156601	-1.306597	0.202987	-0.044595	0.034728	0.999853	-0.015780	0.000783	-0.006533	
33195	    0	18.643290	-4.228524	3.126653	-3.245714	0.174150	-1.416090	0.186157	-0.043091	0.031799	0.999843	-0.016228	0.000871	-0.007080	
33196	    0	18.056437	-4.657776	1.727374	-3.325649	0.247206	-1.541415	0.180222	-0.047674	0.017838	0.999831	-0.016627	0.001236	-0.007707	
33197	    0	16.557398	-9.282806	0.174813	-3.494477	0.329038	-1.542758	0.164856	-0.094055	0.003113	0.999816	-0.017471	0.001645	-0.007713	
33198	    0	13.787211	-12.250938	-1.652232	-3.405774	0.362609	-1.595401	0.136860	-0.123864	-0.014669	0.999821	-0.017028	0.001813	-0.007977	
33199	    0	12.201884	-10.235005	-2.885030	-3.157792	0.408195	-1.797585	0.121033	-0.103882	-0.027466	0.999832	-0.015788	0.002041	-0.008987	
33200	    0	12.022360	-7.493562	-3.883696	-2.826456	0.402662	-2.073968	0.119357	-0.076717	-0.038002	0.999844	-0.014132	0.002013	-0.010369	
33201	    0	12.078392	-4.956988	-2.460496	-2.333945	0.362605	-2.453732	0.120117	-0.051331	-0.024231	0.999854	-0.011669	0.001813	-0.012268	
33202	    0	10.149778	-4.688492	-2.429714	-1.940057	0.329415	-2.745759	0.100800	-0.048506	-0.023998	0.999857	-0.009700	0.001647	-0.013728	
33203	    0	9.427009	-5.908392	-2.735957	-1.636396	0.235760	-3.041992	0.093323	-0.060730	-0.026978	0.999849	-0.008182	0.001179	-0.015209	
33204	    0	10.396900	-5.921848	-3.489008	-1.648802	0.295846	-3.204330	0.102948	-0.061159	-0.034544	0.999836	-0.008244	0.001479	-0.016021	
33205	    0	12.764062	-7.238688	-1.890887	-1.190819	0.231183	-3.290727	0.126404	-0.074585	-0.018616	0.999846	-0.005954	0.001156	-0.016453	
33206	    0	11.616673	-2.684551	-1.178272	-0.611337	0.109297	-3.500169	0.115666	-0.028909	-0.011760	0.999842	-0.003057	0.000546	-0.017500	
33207	    0	8.951529	-0.438694	-1.952377	-0.204478	0.029184	-3.520385	0.089417	-0.005981	-0.019531	0.999845	-0.001022	0.000146	-0.017601	
33208	    0	6.446728	1.327712	-1.959975	-0.135619	0.012589	-3.448276	0.064682	0.012150	-0.019612	0.999850	-0.000678	0.000063	-0.017241	
33209	    0	5.671273	-2.729651	0.508955	0.242816	0.180061	-3.174726	0.056274	-0.028198	0.005005	0.999872	0.001214	0.000900	-0.015873	
33210	    0	14.582528	-0.434226	-1.790964	1.247082	-0.222789	-3.069828	0.145757	-0.006469	-0.017783	0.999862	0.006235	-0.001114	-0.015348	
33211	    0	7.077468	-2.354711	-2.318087	1.031719	-0.316630	-2.622311	0.070496	-0.024353	-0.023193	0.999899	0.005158	-0.001583	-0.013111	
33212	    0	6.743102	-5.114443	-2.685654	0.620859	-0.381862	-2.468559	0.066845	-0.051888	-0.026889	0.999917	0.003104	-0.001909	-0.012342	
33213	    0	6.645483	-3.562230	-3.289280	0.065614	-0.388917	-2.311760	0.066101	-0.036377	-0.032776	0.999930	0.000328	-0.001945	-0.011559	
33214	    0	7.091315	-3.397628	-3.610392	-0.439461	-0.375373	-2.037277	0.070629	-0.034776	-0.035895	0.999944	-0.002197	-0.001877	-0.010186	
33215	    0	7.035877	-3.954634	-3.051345	-0.836958	-0.380522	-1.738767	0.070068	-0.040283	-0.030212	0.999951	-0.004185	-0.001903	-0.008694	
33216	    0	6.216482	-4.344234	-2.471673	-1.073280	-0.420767	-1.429769	0.061903	-0.044017	-0.024351	0.999957	-0.005366	-0.002104	-0.007149	
33217	    0	6.278794	-5.106856	-2.206431	-1.034365	-0.418858	-1.061259	0.062561	-0.051514	-0.021667	0.999969	-0.005172	-0.002094	-0.005306	
33218	    0	8.268813	-6.502591	-2.448342	-0.389672	-0.329019	-0.671579	0.082509	-0.065351	-0.024220	0.999990	-0.001948	-0.001645	-0.003358	
33219	    0	10.467441	-7.003905	-3.381462	0.381661	-0.257874	-0.296021	0.104614	-0.070129	-0.033813	0.999996	0.001908	-0.001289	-0.001480	
33220	    0	10.792499	-5.582064	-3.866596	0.861552	-0.151444	0.070763	0.107974	-0.055615	-0.038824	0.999990	0.004308	-0.000757	0.000354	
33221	    0	9.288126	-2.951646	-3.096989	0.817302	-0.048828	0.462343	0.092957	-0.029175	-0.031067	0.999989	0.004086	-0.000244	0.002312	
33222	    0	7.449232	-0.929728	-2.062543	0.660137	0.006294	0.948148	0.074534	-0.008876	-0.020658	0.999983	0.003301	0.000031	0.004741	
33223	    0	6.850838	-0.573579	-1.772714	0.451855	0.064088	1.481643	0.068542	-0.005188	-0.017761	0.999969	0.002259	0.000320	0.007408	
33224	    0	6.833005	-0.316344	-2.071541	0.218395	0.126269	2.021634	0.068344	-0.002450	-0.020761	0.999948	0.001092	0.000631	0.010108	
33225	    0	6.614107	-0.407088	-2.306545	-0.018311	0.203138	2.533790	0.066162	-0.003235	-0.023132	0.999919	-0.000092	0.001016	0.012669	
33226	    0	6.366339	-0.314980	-2.396616	-0.103573	0.239763	2.962222	0.063672	-0.002219	-0.024041	0.999889	-0.000518	0.001199	0.014811	
33227	    0	6.512426	0.110433	-2.531365	-0.102239	0.233662	3.398297	0.065063	0.002197	-0.025391	0.999854	-0.000511	0.001168	0.016991	
33228	    0	6.867071	0.586810	-2.342365	-0.231948	0.240150	3.850986	0.068513	0.007161	-0.023514	0.999813	-0.001160	0.001201	0.019254	
33229	    0	7.490765	0.452161	-1.938680	-0.381309	0.194565	4.327734	0.074768	0.006104	-0.019470	0.999763	-0.001906	0.000973	0.021637	
33230	    0	8.765429	-0.612268	-1.279686	-0.416223	0.117122	4.770163	0.087760	-0.004057	-0.012838	0.999713	-0.002081	0.000586	0.023849	
33231	    0	10.457029	-1.532669	-0.734576	-0.302158	-0.002098	5.158808	0.104919	-0.012634	-0.007324	0.999665	-0.001511	-0.000010	0.025791	
33232	    0	12.209571	-1.546888	-0.590352	-0.149555	-0.105871	5.493474	0.122462	-0.012113	-0.005829	0.999622	-0.000748	-0.000529	0.027464	
33233	    0	13.559570	-1.397767	-0.274877	0.081646	-0.189807	5.751068	0.135925	-0.010071	-0.002625	0.999585	0.000408	-0.000949	0.028751	
33234	    0	14.659053	-1.367479	-0.444268	0.457833	-0.305604	6.003908	0.146919	-0.009257	-0.004243	0.999545	0.002289	-0.001528	0.030015	
33235	    0	15.905145	-1.100879	-0.537983	0.951733	-0.440289	6.206774	0.159302	-0.006042	-0.005066	0.999504	0.004758	-0.002201	0.031029	
33236	    0	16.664984	-0.914018	-0.103758	1.514516	-0.544837	6.362913	0.166830	-0.003828	-0.000626	0.999461	0.007571	-0.002724	0.031809	
33237	    0	16.888779	0.009530	0.188263	2.117564	-0.615620	6.422895	0.168762	0.005493	0.002441	0.999423	0.010586	-0.003078	0.032108	
33238	    0	16.929856	1.931410	-0.236948	2.648897	-0.609523	6.469337	0.168561	0.024799	-0.001551	0.999384	0.013242	-0.003047	0.032340	
33239	    0	17.107231	3.693263	-1.451732	3.001271	-0.490482	6.416906	0.169800	0.042603	-0.013489	0.999370	0.015003	-0.002452	0.032078	
33240	    0	17.847310	5.000236	-3.370761	3.216846	-0.297418	6.314648	0.176814	0.056133	-0.032574	0.999371	0.016081	-0.001487	0.031567	
33241	    0	18.738427	7.504236	-5.544149	3.200405	-0.166163	6.123808	0.184998	0.081604	-0.054016	0.999402	0.015999	-0.000831	0.030613	
33242	    0	19.803972	12.208493	-7.034007	2.724174	0.010683	5.906574	0.194298	0.128803	-0.068626	0.999471	0.013618	0.000053	0.029528	
33243	    0	19.472498	13.537996	-9.970906	2.164977	0.009157	5.618372	0.190796	0.141846	-0.098206	0.999546	0.010823	0.000046	0.028088	
33244	    0	18.632647	15.727419	-12.734057	1.502979	-0.180838	5.124702	0.182314	0.162930	-0.125964	0.999642	0.007514	-0.000904	0.025620	
33245	    0	17.605175	19.353311	-12.450477	0.696051	-0.400577	4.443737	0.171936	0.197815	-0.123474	0.999744	0.003480	-0.002003	0.022217	
33246	    0	15.707973	22.627857	-8.703486	-0.074582	-0.561747	3.679679	0.153126	0.229088	-0.086686	0.999826	-0.000373	-0.002809	0.018397	
33247	    0	14.186222	26.684087	-4.818762	-0.774984	-0.395980	2.816874	0.138184	0.268616	-0.048950	0.999891	-0.003875	-0.001980	0.014084	
33248	    0	10.502879	25.358526	-3.897156	-0.992220	-0.254635	1.746017	0.102861	0.254292	-0.040100	0.999949	-0.004961	-0.001273	0.008730	
33249	    0	8.463028	23.797137	-3.814165	-0.739863	-0.338746	0.495150	0.084106	0.238037	-0.038879	0.999989	-0.003699	-0.001694	0.002476	
33250	    0	7.826621	23.102683	-2.153308	-0.489809	-0.416185	-0.603487	0.079008	0.230736	-0.021935	0.999990	-0.002449	-0.002081	-0.003017	
33251	    0	8.078910	19.499603	-0.523452	-0.216486	-0.479894	-1.451888	0.082214	0.194397	-0.005249	0.999969	-0.001082	-0.002399	-0.007259	
33252	    0	9.059791	15.454214	1.601183	0.176052	-0.468836	-2.155729	0.092218	0.153540	0.016362	0.999938	0.000880	-0.002344	-0.010778	
33253	    0	9.233040	9.994401	4.587618	0.700400	-0.482765	-2.599416	0.093506	0.098572	0.046448	0.999906	0.003502	-0.002414	-0.012997	
33254	    0	6.380914	7.075520	5.002617	1.471390	-0.549339	-2.740592	0.064629	0.069502	0.050717	0.999875	0.007357	-0.002747	-0.013702	
33255	    0	3.463042	3.225050	4.850366	2.201956	-0.567465	-2.660506	0.034912	0.031250	0.048950	0.999846	0.011009	-0.002837	-0.013302	
33256	    0	6.897080	0.537665	4.445463	2.754766	-0.777675	-2.623341	0.068854	0.003858	0.044783	0.999811	0.013773	-0.003888	-0.013116	
33257	    0	5.189976	2.359413	1.705782	3.249600	-0.800192	-2.561377	0.052124	0.022644	0.017639	0.999778	0.016247	-0.004001	-0.012806	
33258	    0	20.808869	16.200063	-13.490612	4.070992	-0.763228	-3.669826	0.211552	0.160830	-0.130821	0.999617	0.020352	-0.003816	-0.018347	
33259	    0	43.717929	30.442970	-3.808004	2.579256	-0.608140	-4.862071	0.444519	0.294128	-0.032898	0.999617	0.012895	-0.003040	-0.024307	
33260	    0	28.701582	4.352180	2.152789	0.296421	-1.000849	-3.758860	0.287653	0.038086	0.023026	0.999809	0.001482	-0.005004	-0.018793	
33261	    0	25.874095	-4.179032	1.312502	-0.363186	-1.022223	-4.054558	0.257751	-0.046997	0.014526	0.999780	-0.001816	-0.005111	-0.020271	
33262	    0	15.604565	7.358945	1.124813	0.434342	-1.754344	-4.245181	0.157453	0.070230	0.012780	0.999733	0.002172	-0.008771	-0.021224	
33263	    0	8.449329	10.130848	-3.501878	0.414311	-1.325909	-4.256032	0.086853	0.099548	-0.034241	0.999749	0.002071	-0.006629	-0.021278	
33264	    0	10.788445	8.941073	-4.521122	0.110634	-0.877631	-3.939515	0.109815	0.087285	-0.044683	0.999796	0.000553	-0.004388	-0.019696	
33265	    0	7.952321	6.569646	-7.612536	-0.215159	-0.665122	-3.193807	0.080811	0.064331	-0.075928	0.999866	-0.001076	-0.003325	-0.015968	
33266	    0	6.519877	7.466148	-5.505643	-0.208861	-0.459875	-2.592353	0.066285	0.073750	-0.054982	0.999912	-0.001044	-0.002299	-0.012961	
33267	    0	10.523577	8.257609	-5.516931	-0.379188	-0.165370	-2.100412	0.106140	0.081360	-0.055237	0.999942	-0.001896	-0.000827	-0.010502	
33268	    0	14.241832	4.170786	-4.431620	-0.521666	0.142290	-1.661322	0.142726	0.040407	-0.044524	0.999961	-0.002608	0.000711	-0.008307	
33269	    0	16.466716	3.526008	-4.939178	-0.539976	0.240328	-1.445022	0.164856	0.033936	-0.049683	0.999969	-0.002700	0.001202	-0.007225	
33270	    0	21.882646	2.682461	-7.154316	-0.951206	0.288204	-1.319710	0.218892	0.025039	-0.071980	0.999966	-0.004756	0.001441	-0.006598	
33271	    0	22.468435	-1.107495	-5.679805	-1.644163	0.221447	-1.189443	0.224548	-0.012878	-0.056946	0.999948	-0.008221	0.001107	-0.005947	
33272	    0	21.930856	-1.662315	-3.304261	-2.170808	0.176243	-1.123456	0.219180	-0.018213	-0.033044	0.999925	-0.010854	0.000881	-0.005617	
33273	    0	20.047994	-2.667891	-0.457506	-2.587024	0.174719	-1.154366	0.200317	-0.027893	-0.004395	0.999899	-0.012935	0.000874	-0.005772	
33274	    0	18.846496	-2.720997	1.268269	-2.838630	0.145346	-1.243069	0.188301	-0.028198	0.012941	0.999879	-0.014193	0.000727	-0.006215	
33275	    0	18.236858	-5.294193	2.716066	-3.187715	0.129897	-1.194058	0.182068	-0.053589	0.027893	0.999854	-0.015938	0.000649	-0.005970	
33276	    0	16.627822	-5.430914	2.719376	-3.333648	0.138099	-1.205126	0.165968	-0.054848	0.027990	0.999843	-0.016667	0.000690	-0.006025	
33277	    0	15.293385	-6.579100	2.130292	-3.420258	0.206005	-1.297833	0.152527	-0.066406	0.022278	0.999832	-0.017100	0.001030	-0.006489	
33278	    0	13.616973	-7.629220	0.584110	-3.396418	0.285737	-1.409992	0.135637	-0.077138	0.006952	0.999829	-0.016981	0.001429	-0.007050	
33279	    0	12.284085	-9.738033	-0.853988	-3.318020	0.373861	-1.541988	0.122070	-0.098450	-0.007141	0.999830	-0.016589	0.001869	-0.007710	
33280	    0	11.648985	-8.745222	-2.249619	-3.007853	0.433372	-1.772209	0.115660	-0.088807	-0.021419	0.999845	-0.015038	0.002167	-0.008861	
33281	    0	12.794791	-5.210605	-2.307714	-2.464216	0.444814	-2.171425	0.127319	-0.053772	-0.022705	0.999863	-0.012321	0.002224	-0.010857	
33282	    0	12.680656	-4.561768	-2.240632	-2.186879	0.478958	-2.522016	0.126163	-0.047455	-0.022197	0.999857	-0.010934	0.002395	-0.012609	
33283	    0	10.641518	-7.648703	-3.030361	-1.981260	0.359362	-2.770369	0.105286	-0.078247	-0.029724	0.999853	-0.009906	0.001797	-0.013851	
33284	    0	10.208247	-7.102931	-3.077678	-1.960673	0.325793	-3.062418	0.100926	-0.072879	-0.030233	0.999833	-0.009803	0.001629	-0.015311	
33285	    0	11.899376	-8.164591	-3.182711	-1.676270	0.305383	-3.203759	0.117615	-0.083801	-0.031311	0.999835	-0.008381	0.001527	-0.016018	
33286	    0	13.314431	-6.216269	-2.552394	-0.976232	0.160607	-3.403460	0.132039	-0.064540	-0.025319	0.999843	-0.004881	0.000803	-0.017016	
33287	    0	12.138090	-2.460164	-1.874947	-0.466181	0.081067	-3.550147	0.120911	-0.026794	-0.018738	0.999839	-0.002331	0.000405	-0.017750	
33288	    0	9.331587	-0.836814	-1.699706	-0.268187	0.052455	-3.559683	0.093143	-0.010050	-0.017009	0.999840	-0.001341	0.000262	-0.017797	
33289	    0	6.332259	0.274817	-1.738376	-0.080113	0.032999	-3.451710	0.063354	0.001648	-0.017395	0.999850	-0.000401	0.000165	-0.017258	
33290	    0	10.386431	-1.397685	1.083127	0.455495	0.068668	-3.213833	0.103625	-0.015668	0.010761	0.999867	0.002277	0.000343	-0.016068	
33291	    0	12.976753	-0.210051	-2.977354	0.788911	-0.284397	-2.963374	0.129761	-0.003906	-0.029602	0.999881	0.003944	-0.001422	-0.014816	
33292	    0	7.205724	-4.253013	-2.423238	0.394832	-0.313004	-2.497168	0.071557	-0.043378	-0.024205	0.999918	0.001974	-0.001565	-0.012486	
33293	    0	7.558527	-4.627226	-3.350692	-0.053216	-0.287635	-2.389584	0.075073	-0.047180	-0.033386	0.999928	-0.000266	-0.001438	-0.011948	
33294	    0	7.629745	-3.483370	-3.936947	-0.582135	-0.232320	-2.164887	0.075959	-0.035771	-0.039178	0.999936	-0.002911	-0.001162	-0.010824	
33295	    0	8.201027	-4.728285	-3.542416	-1.020832	-0.206570	-1.847874	0.081604	-0.048218	-0.035095	0.999944	-0.005104	-0.001033	-0.009239	
33296	    0	7.346783	-5.705774	-2.921075	-1.289199	-0.204853	-1.569394	0.073046	-0.057818	-0.028765	0.999948	-0.006446	-0.001024	-0.007847	
33297	    0	5.951997	-6.433249	-2.530554	-1.402876	-0.241092	-1.258106	0.059143	-0.064880	-0.024780	0.999954	-0.007014	-0.001205	-0.006290	
33298	    0	5.617006	-6.976046	-2.583018	-1.295104	-0.287250	-0.922976	0.055883	-0.070184	-0.025296	0.999967	-0.006475	-0.001436	-0.004615	
33299	    0	7.050013	-7.255692	-2.933572	-0.711062	-0.242425	-0.612643	0.070312	-0.072876	-0.028992	0.999988	-0.003555	-0.001212	-0.003063	
33300	    0	9.288755	-7.216356	-4.067722	0.167847	-0.169945	-0.295448	0.092815	-0.072267	-0.040659	0.999998	0.000839	-0.000850	-0.001477	
33301	    0	10.544823	-6.281765	-4.911139	0.689699	-0.021172	0.048828	0.105469	-0.062622	-0.049316	0.999993	0.003448	-0.000106	0.000244	
33302	    0	10.052919	-4.891279	-4.745339	0.865177	0.119401	0.460245	0.100613	-0.048475	-0.047724	0.999988	0.004326	0.000597	0.002301	
33303	    0	8.516649	-2.856396	-3.845419	0.829321	0.150491	0.912481	0.085266	-0.028015	-0.038635	0.999980	0.004147	0.000752	0.004562	
33304	    0	7.075594	-1.552947	-3.323918	0.685509	0.147821	1.449410	0.070841	-0.014902	-0.033343	0.999968	0.003428	0.000739	0.007247	
33305	    0	6.693758	-1.122450	-2.761934	0.477608	0.193981	1.971470	0.067017	-0.010498	-0.027710	0.999948	0.002388	0.000970	0.009857	
33306	    0	6.692345	-0.437800	-2.457123	0.300797	0.182919	2.472751	0.066948	-0.003513	-0.024638	0.999922	0.001504	0.000915	0.012363	
33307	    0	6.145757	0.195684	-2.418498	0.142103	0.155645	2.913006	0.061401	0.002869	-0.024231	0.999893	0.000710	0.000778	0.014565	
33308	    0	5.646774	-0.105762	-2.857589	0.091557	0.087170	3.351750	0.056462	-0.000098	-0.028601	0.999859	0.000458	0.000436	0.016758	
33309	    0	6.318533	-0.712509	-3.214138	0.074772	0.068859	3.770670	0.063293	-0.005920	-0.032166	0.999822	0.000374	0.000344	0.018852	
33310	    0	7.358536	-0.722219	-2.984388	-0.014878	0.028231	4.207922	0.073711	-0.005674	-0.029854	0.999778	-0.000074	0.000141	0.021038	
33311	    0	7.969762	-0.391417	-2.744358	-0.039676	-0.095948	4.625351	0.079773	-0.002075	-0.027405	0.999732	-0.000198	-0.000480	0.023125	
33312	    0	8.837115	-0.417566	-2.907196	0.043683	-0.264768	5.026394	0.088477	-0.001946	-0.028955	0.999682	0.000218	-0.001324	0.025129	
33313	    0	10.328795	-0.810984	-2.926118	0.124565	-0.410511	5.377849	0.103516	-0.005310	-0.029053	0.999636	0.000623	-0.002052	0.026886	
33314	    0	12.315335	-1.465049	-2.484707	0.230821	-0.508188	5.728368	0.123568	-0.011086	-0.024548	0.999585	0.001154	-0.002541	0.028638	
33315	    0	14.132952	-1.817564	-1.791623	0.469280	-0.614070	6.040362	0.141846	-0.013855	-0.017517	0.999536	0.002346	-0.003070	0.030197	
33316	    0	15.623298	-1.466472	-1.030399	0.807708	-0.713660	6.290550	0.156626	-0.009702	-0.009791	0.999491	0.004038	-0.003568	0.031447	
33317	    0	16.764554	-0.775339	-0.205509	1.246872	-0.807147	6.466335	0.167786	-0.002319	-0.001404	0.999450	0.006233	-0.004035	0.032326	
33318	    0	17.552645	0.234195	0.393518	1.835611	-0.881368	6.551120	0.175305	0.008046	0.004765	0.999412	0.009176	-0.004406	0.032749	
33319	    0	18.323254	1.791758	0.355945	2.433519	-0.889581	6.564931	0.182495	0.023865	0.004639	0.999377	0.012165	-0.004447	0.032818	
33320	    0	18.911508	3.130073	-0.281685	2.934508	-0.780844	6.471104	0.187978	0.037425	-0.001562	0.999361	0.014669	-0.003903	0.032349	
33321	    0	19.641537	5.493233	-1.254367	3.186894	-0.566983	6.313885	0.194580	0.061279	-0.011047	0.999371	0.015931	-0.002834	0.031563	
33322	    0	20.764717	9.099660	-1.862786	3.089178	-0.231407	6.140012	0.204739	0.097583	-0.016916	0.999409	0.015443	-0.001157	0.030694	
33323	    0	21.321542	10.008027	-4.360559	3.012633	-0.034911	5.883334	0.210144	0.106934	-0.041992	0.999454	0.015060	-0.000175	0.029411	
33324	    0	21.185977	13.005272	-8.397030	2.880935	-0.094810	5.457218	0.208224	0.136958	-0.081931	0.999523	0.014402	-0.000474	0.027282	
33325	    0	19.768856	17.281656	-12.142911	2.375516	-0.316659	4.900205	0.193542	0.179016	-0.119019	0.999628	0.011876	-0.001583	0.024498	
33326	    0	16.914373	21.616355	-12.103856	1.515517	-0.564432	4.202816	0.164877	0.220565	-0.118909	0.999746	0.007577	-0.002822	0.021012	
33327	    0	14.790572	24.331133	-8.702172	0.655398	-0.722350	3.355578	0.144104	0.246033	-0.085693	0.999846	0.003277	-0.003612	0.016777	
33328	    0	14.279820	27.521214	-4.709539	-0.144390	-0.598542	2.461309	0.139538	0.276909	-0.046874	0.999919	-0.000722	-0.002993	0.012306	
33329	    0	12.027306	26.457272	-3.126603	-0.504881	-0.331119	1.492326	0.118347	0.265381	-0.031738	0.999968	-0.002524	-0.001656	0.007462	
33330	    0	8.827001	23.258517	-3.669157	-0.338364	-0.306702	0.323105	0.087951	0.232665	-0.036950	0.999995	-0.001692	-0.001534	0.001616	
33331	    0	7.912598	22.954972	-3.429475	-0.092316	-0.401117	-0.717165	0.080017	0.229248	-0.034241	0.999991	-0.000462	-0.002006	-0.003586	
33332	    0	7.868176	19.833838	-2.150330	0.045205	-0.495153	-1.504914	0.080224	0.197743	-0.021261	0.999969	0.000226	-0.002476	-0.007524	
33333	    0	8.818361	15.506877	-0.206845	0.280004	-0.457582	-2.144666	0.089844	0.154114	-0.001648	0.999938	0.001400	-0.002288	-0.010723	
33334	    0	9.554182	10.588052	2.739491	0.659200	-0.430311	-2.603039	0.096848	0.104534	0.027948	0.999907	0.003296	-0.002151	-0.013015	
33335	    0	11.230283	8.495987	3.060694	1.097913	-0.539992	-2.827565	0.113403	0.083191	0.031372	0.999881	0.005489	-0.002700	-0.014137	
33336	    0	5.910783	5.627677	3.257970	1.791280	-0.609619	-2.891684	0.059810	0.055120	0.033258	0.999850	0.008956	-0.003048	-0.014458	
33337	    0	14.120928	9.114496	1.846399	2.961998	-0.414123	-3.567827	0.142761	0.088318	0.020081	0.999728	0.014809	-0.002070	-0.017838	
33338	    0	38.952974	17.085792	2.024321	3.260136	-0.222429	-4.944190	0.393563	0.160797	0.023355	0.999560	0.016298	-0.001112	-0.024717	
33339	    0	30.101887	14.265687	4.123968	2.034973	-0.820055	-4.517076	0.303955	0.135376	0.043884	0.999684	0.010174	-0.004100	-0.022583	
33340	    0	25.258482	2.326072	0.851894	0.571677	-0.841206	-4.183520	0.252958	0.017945	0.009639	0.999768	0.002858	-0.004206	-0.020916	
33341	    0	20.540163	0.315031	-0.697083	-0.021364	-1.260291	-4.314023	0.205444	-0.001282	-0.005676	0.999747	-0.000107	-0.006301	-0.021568	
33342	    0	8.632819	7.860028	-4.741561	0.577408	-1.779529	-4.313485	0.088414	0.076843	-0.046412	0.999723	0.002887	-0.008897	-0.021565	
33343	    0	7.753795	12.438866	-6.870650	-0.106056	-1.191609	-4.053036	0.080444	0.122742	-0.068298	0.999776	-0.000530	-0.005958	-0.020264	
33344	    0	8.313884	12.125578	-4.404901	-0.692599	-0.770232	-3.586977	0.085464	0.119584	-0.044139	0.999825	-0.003463	-0.003851	-0.017934	
33345	    0	3.653081	6.287717	-7.047006	-0.845939	-0.623344	-2.716923	0.037598	0.062073	-0.070618	0.999893	-0.004230	-0.003117	-0.013584	
33346	    0	6.094558	5.922144	-4.980741	-0.790043	-0.272376	-2.236992	0.061669	0.058337	-0.049955	0.999928	-0.003950	-0.001362	-0.011185	
33347	    0	12.835433	6.028732	-4.149953	-0.731671	-0.046349	-1.825744	0.128906	0.058960	-0.041687	0.999951	-0.003658	-0.000232	-0.009129	
33348	    0	14.425673	4.084661	-4.889609	-0.573355	0.046731	-1.495377	0.144545	0.039626	-0.049045	0.999968	-0.002867	0.000234	-0.007477	
33349	    0	16.415687	2.784362	-5.725464	-0.452237	0.144197	-1.416792	0.164307	0.026550	-0.057434	0.999971	-0.002261	0.000721	-0.007084	
33350	    0	20.235537	1.875085	-6.608791	-0.897417	0.240901	-1.291861	0.202390	0.017146	-0.066411	0.999968	-0.004487	0.001204	-0.006459	
33351	    0	22.352187	-0.193857	-5.191646	-1.630238	0.208286	-1.162739	0.223450	-0.003662	-0.052124	0.999949	-0.008151	0.001041	-0.005814	
33352	    0	20.292687	-3.198278	-2.731863	-2.103665	0.088885	-1.115635	0.202731	-0.033400	-0.027062	0.999928	-0.010518	0.000444	-0.005578	
33353	    0	19.115784	-1.850957	-0.515474	-2.301090	0.075724	-1.200137	0.191040	-0.019714	-0.005005	0.999915	-0.011505	0.000379	-0.006001	
33354	    0	20.032258	-0.321467	1.383048	-2.606484	0.182158	-1.282546	0.200310	-0.004320	0.013700	0.999893	-0.013032	0.000911	-0.006413	
33355	    0	18.683877	-3.442055	1.406991	-2.899290	0.251208	-1.205494	0.186646	-0.035339	0.014343	0.999875	-0.014496	0.001256	-0.006027	
33356	    0	16.556142	-3.186722	0.588843	-2.902343	0.252353	-1.237158	0.165368	-0.032803	0.006151	0.999874	-0.014511	0.001262	-0.006186	
33357	    0	15.575452	-3.615691	-0.166235	-2.980173	0.294698	-1.274928	0.155518	-0.037170	-0.001343	0.999867	-0.014900	0.001473	-0.006374	
33358	    0	14.413377	-6.479749	-0.796619	-3.116185	0.335519	-1.307741	0.143693	-0.065854	-0.007187	0.999855	-0.015580	0.001678	-0.006538	
33359	    0	12.696476	-8.762916	-1.335644	-3.206036	0.421355	-1.348183	0.126343	-0.088684	-0.012207	0.999846	-0.016029	0.002107	-0.006741	
33360	    0	11.223937	-8.586686	-2.153185	-3.042177	0.482583	-1.454996	0.111559	-0.086997	-0.020484	0.999854	-0.015210	0.002413	-0.007275	
33361	    0	11.085570	-6.284010	-3.098756	-2.803932	0.546481	-1.702196	0.110229	-0.064209	-0.030396	0.999862	-0.014019	0.002732	-0.008511	
33362	    0	12.410433	-4.474348	-2.381844	-2.607661	0.636131	-2.056601	0.123558	-0.046325	-0.023615	0.999857	-0.013038	0.003181	-0.010283	
33363	    0	11.886924	-5.708545	-2.485164	-2.396319	0.645478	-2.359124	0.118103	-0.058777	-0.024536	0.999853	-0.011981	0.003227	-0.011795	
33364	    0	10.226001	-8.200711	-2.287918	-2.115737	0.526264	-2.691594	0.101083	-0.083611	-0.022267	0.999849	-0.010578	0.002631	-0.013457	
33365	    0	10.316244	-6.575872	-1.922502	-2.237834	0.510628	-2.995478	0.102112	-0.067505	-0.018738	0.999822	-0.011189	0.002553	-0.014977	
33366	    0	12.079652	-7.972967	-1.689420	-2.278284	0.628321	-3.141224	0.119471	-0.081801	-0.016347	0.999806	-0.011391	0.003141	-0.015705	
33367	    0	12.712557	-7.771308	-1.186900	-1.888390	0.559460	-3.283129	0.125793	-0.079895	-0.011475	0.999816	-0.009441	0.002797	-0.016415	
33368	    0	12.335204	-6.231328	-1.218334	-1.333693	0.483158	-3.378866	0.122246	-0.064466	-0.012054	0.999832	-0.006668	0.002416	-0.016893	
33369	    0	12.027321	-4.836226	-1.057579	-0.648533	0.445771	-3.474610	0.119385	-0.050476	-0.010681	0.999841	-0.003242	0.002229	-0.017372	
33370	    0	10.759850	-3.084248	-1.762998	-0.004387	0.351162	-3.554724	0.106997	-0.032748	-0.017817	0.999840	-0.000022	0.001756	-0.017773	
33371	    0	9.430099	-2.886702	-1.566587	0.553923	0.386258	-3.477660	0.093750	-0.030457	-0.015930	0.999843	0.002769	0.001931	-0.017387	
33372	    0	10.030708	-7.044019	2.899922	2.180439	0.414686	-3.378335	0.099154	-0.072431	0.028010	0.999795	0.010901	0.002073	-0.016891	
33373	    0	13.205966	2.030940	-3.131073	2.881092	-0.044063	-3.330500	0.132385	0.018555	-0.031006	0.999757	0.014404	-0.000220	-0.016651	
33374	    0	7.523739	-0.520927	-4.138477	2.043826	-0.244344	-2.783914	0.075210	-0.005834	-0.041350	0.999849	0.010219	-0.001222	-0.013919	
33375	    0	7.102494	-2.512112	-5.475496	0.980599	-0.371563	-2.551350	0.070801	-0.025757	-0.054749	0.999905	0.004903	-0.001858	-0.012756	
33376	    0	6.659448	-1.760309	-6.501828	-0.024415	-0.404939	-2.225542	0.066525	-0.018352	-0.064881	0.999935	-0.000122	-0.002025	-0.011127	
33377	    0	8.034809	-2.801109	-5.838452	-0.851265	-0.391395	-1.826509	0.080200	-0.028992	-0.058105	0.999947	-0.004256	-0.001957	-0.009132	
33378	    0	8.303730	-4.561587	-4.316926	-1.248570	-0.391013	-1.423858	0.082792	-0.046474	-0.042719	0.999953	-0.006243	-0.001955	-0.007119	
33379	    0	9.039600	-6.041995	-3.888054	-1.068889	-0.363735	-1.042186	0.090149	-0.061096	-0.038391	0.999970	-0.005344	-0.001819	-0.005211	
33380	    0	10.272569	-7.122012	-3.840220	-0.523950	-0.277329	-0.651362	0.102546	-0.071654	-0.038073	0.999990	-0.002620	-0.001387	-0.003257	
33381	    0	10.416299	-7.081679	-4.299304	0.057411	-0.202942	-0.227356	0.104126	-0.070923	-0.042908	0.999998	0.000287	-0.001015	-0.001137	
33382	    0	9.131788	-5.897803	-4.134874	0.481034	-0.170517	0.224495	0.091419	-0.058776	-0.041412	0.999995	0.002405	-0.000853	0.001122	
33383	    0	7.456213	-3.639375	-3.348351	0.431062	-0.142479	0.669100	0.074707	-0.036072	-0.033508	0.999991	0.002155	-0.000712	0.003345	
33384	    0	6.277293	-1.884505	-2.426388	0.071335	-0.089455	1.163489	0.062892	-0.018471	-0.024242	0.999983	0.000357	-0.000447	0.005817	
33385	    0	5.573502	-1.283565	-1.743369	-0.243190	-0.083924	1.672383	0.055847	-0.012390	-0.017395	0.999964	-0.001216	-0.000420	0.008362	
33386	    0	5.407661	-1.538210	-1.918082	-0.454721	-0.083544	2.160879	0.054247	-0.014840	-0.019124	0.999938	-0.002274	-0.000418	0.010804	
33387	    0	5.479897	-1.944870	-2.289914	-0.638600	-0.041009	2.629933	0.055054	-0.018799	-0.022827	0.999907	-0.003193	-0.000205	0.013149	
33388	    0	5.630513	-2.034928	-2.769503	-0.717575	-0.046351	3.107393	0.056620	-0.019570	-0.027611	0.999872	-0.003588	-0.000232	0.015536	
33389	    0	6.308102	-2.234975	-2.730811	-0.651586	-0.050166	3.590592	0.063477	-0.021301	-0.027222	0.999833	-0.003258	-0.000251	0.017952	
33390	    0	7.194675	-1.939061	-1.968801	-0.505864	-0.069814	4.032794	0.072326	-0.017984	-0.019616	0.999793	-0.002529	-0.000349	0.020163	
33391	    0	8.043738	-1.483284	-1.253051	-0.359947	-0.135815	4.448306	0.080750	-0.013062	-0.012451	0.999750	-0.001800	-0.000679	0.022240	
33392	    0	9.255716	-1.429909	-0.449095	-0.186557	-0.225280	4.833503	0.092872	-0.012061	-0.004375	0.999706	-0.000933	-0.001126	0.024165	
33393	    0	10.827460	-1.588103	-0.273727	0.019266	-0.322760	5.195441	0.108643	-0.013062	-0.002563	0.999660	0.000096	-0.001614	0.025974	
33394	    0	12.725590	-1.957008	-0.552310	0.285376	-0.396397	5.494814	0.127740	-0.016057	-0.005295	0.999619	0.001427	-0.001982	0.027471	
33395	    0	14.467719	-2.272616	-0.763683	0.656219	-0.437034	5.716736	0.145264	-0.018555	-0.007385	0.999583	0.003281	-0.002185	0.028580	
33396	    0	16.034815	-2.546506	-0.979832	1.133519	-0.511820	5.921695	0.161032	-0.020649	-0.009513	0.999542	0.005667	-0.002559	0.029604	
33397	    0	17.327659	-1.683450	-0.929396	1.687333	-0.570011	6.087751	0.173706	-0.011475	-0.008911	0.999496	0.008435	-0.002850	0.030434	
33398	    0	17.407867	-0.242420	-0.684412	2.279701	-0.655104	6.205365	0.174062	0.003051	-0.006260	0.999448	0.011396	-0.003275	0.031021	
33399	    0	17.227098	0.623980	-1.250576	2.929711	-0.673812	6.303924	0.171997	0.011841	-0.011780	0.999390	0.014646	-0.003368	0.031513	
33400	    0	17.551080	1.257084	-2.047873	3.565246	-0.612586	6.344870	0.175048	0.018485	-0.019648	0.999332	0.017822	-0.003062	0.031717	
33401	    0	18.304884	3.324278	-3.298907	4.032517	-0.541815	6.341527	0.181946	0.039673	-0.031738	0.999290	0.020158	-0.002708	0.031700	
33402	    0	19.229407	5.522747	-4.761065	4.190310	-0.386140	6.334687	0.190486	0.062256	-0.045986	0.999276	0.020947	-0.001930	0.031666	
33403	    0	20.336452	8.371753	-6.760073	3.878122	-0.204323	6.194159	0.200684	0.091248	-0.065674	0.999331	0.019386	-0.001021	0.030964	
33404	    0	21.122305	11.546210	-8.301182	3.320952	-0.015452	5.932043	0.207655	0.123013	-0.080995	0.999422	0.016602	-0.000077	0.029655	
33405	    0	20.299126	13.197160	-11.626159	2.755413	-0.119610	5.529139	0.199280	0.139099	-0.114258	0.999522	0.013775	-0.000598	0.027641	
33406	    0	18.885180	15.713693	-14.144751	2.075640	-0.372551	4.993859	0.185087	0.163244	-0.139427	0.999632	0.010377	-0.001863	0.024966	
33407	    0	17.163560	19.578769	-12.996325	1.162819	-0.605635	4.328524	0.167725	0.200195	-0.128296	0.999743	0.005814	-0.003028	0.021641	
33408	    0	15.785853	22.980066	-8.195661	0.230040	-0.750967	3.663087	0.153919	0.232738	-0.081107	0.999825	0.001150	-0.003755	0.018314	
33409	    0	14.560660	25.480492	-4.155928	-0.446908	-0.535603	2.880965	0.142029	0.256775	-0.041748	0.999889	-0.002234	-0.002678	0.014404	
33410	    0	11.025886	22.627627	-3.804829	-0.506599	-0.369268	1.730371	0.108367	0.227122	-0.038422	0.999957	-0.002533	-0.001846	0.008652	
33411	    0	8.729836	23.477779	-3.956366	-0.247002	-0.415803	0.449372	0.086853	0.234924	-0.039673	0.999994	-0.001235	-0.002079	0.002247	
33412	    0	7.516563	23.512684	-2.908178	-0.123978	-0.522424	-0.548364	0.075886	0.234901	-0.029030	0.999992	-0.000620	-0.002612	-0.002742	
33413	    0	7.672942	19.259613	-1.581353	0.026131	-0.578313	-1.341259	0.078064	0.192078	-0.015564	0.999973	0.000131	-0.002892	-0.006706	
33414	    0	8.993289	15.419624	0.679223	0.329787	-0.556384	-1.988638	0.091440	0.153280	0.007298	0.999945	0.001649	-0.002782	-0.009943	
33415	    0	9.519410	12.272576	2.601777	0.685329	-0.492873	-2.444526	0.096619	0.121460	0.026672	0.999916	0.003427	-0.002464	-0.012222	
33416	    0	8.118758	8.836003	3.574657	1.170391	-0.531216	-2.645397	0.082249	0.087065	0.036476	0.999891	0.005852	-0.002656	-0.013227	
33417	    0	5.494960	5.807152	3.018488	1.843343	-0.613240	-2.604027	0.055603	0.057068	0.030884	0.999867	0.009216	-0.003066	-0.013020	
33418	    0	7.320449	2.056314	3.160691	2.382216	-0.746767	-2.584024	0.073339	0.019236	0.032115	0.999838	0.011910	-0.003734	-0.012919	
33419	    0	5.700514	2.182153	3.237225	3.075820	-0.924749	-2.623174	0.057129	0.020569	0.032959	0.999784	0.015378	-0.004623	-0.013115	
33420	    0	16.439846	12.159786	-5.714151	4.078409	-0.790693	-3.468937	0.166705	0.119843	-0.054029	0.999634	0.020390	-0.003953	-0.017343	
33421	    0	43.778108	25.255390	-4.528896	3.524014	-0.500569	-5.104889	0.444153	0.242004	-0.039856	0.999516	0.017617	-0.002502	-0.025520	
33422	    0	31.590578	14.567956	3.111914	1.328401	-1.095683	-4.397038	0.318823	0.138473	0.033796	0.999721	0.006641	-0.005478	-0.021983	
33423	    0	27.097160	-3.630679	-0.339900	-0.399812	-1.010020	-4.201074	0.270142	-0.041992	-0.001953	0.999764	-0.001999	-0.005050	-0.021004	
33424	    0	18.329617	-0.651600	0.721104	-0.197811	-1.633231	-4.550615	0.183018	-0.010674	0.008716	0.999707	-0.000989	-0.008165	-0.022751	
33425	    0	5.497054	10.306505	-6.573076	0.540409	-2.014375	-4.606356	0.057983	0.101929	-0.064880	0.999680	0.002702	-0.010071	-0.023029	
33426	    0	8.335616	11.389115	-5.969601	-0.280786	-1.207455	-4.350270	0.086164	0.111954	-0.059340	0.999743	-0.001404	-0.006037	-0.021749	
33427	    0	7.240752	9.851714	-4.314303	-0.633090	-0.978152	-3.783664	0.074463	0.096985	-0.043091	0.999804	-0.003165	-0.004890	-0.018917	
33428	    0	2.426614	7.797290	-6.300734	-0.751717	-0.792726	-2.935148	0.025655	0.077366	-0.063199	0.999877	-0.003758	-0.003963	-0.014675	
33429	    0	6.644868	9.161254	-3.271546	-0.615709	-0.472081	-2.419346	0.067627	0.090698	-0.032837	0.999919	-0.003078	-0.002360	-0.012096	
33430	    0	11.871639	5.493354	-3.844737	-0.569353	-0.247387	-1.928553	0.119286	0.053676	-0.038454	0.999949	-0.002847	-0.001237	-0.009643	
33431	    0	14.390083	3.864148	-5.581511	-0.442510	-0.071526	-1.615925	0.144226	0.037354	-0.055847	0.999965	-0.002213	-0.000358	-0.008080	
33432	    0	17.221079	5.422756	-7.115633	-0.565344	0.073434	-1.499001	0.172584	0.052733	-0.071370	0.999968	-0.002827	0.000367	-0.007495	
33433	    0	21.165937	2.273934	-6.997487	-1.095404	0.207522	-1.341265	0.211731	0.020935	-0.070312	0.999962	-0.005477	0.001038	-0.006706	
33434	    0	22.356408	-1.717154	-5.209514	-1.646261	0.168803	-1.213286	0.223409	-0.018956	-0.052133	0.999947	-0.008231	0.000844	-0.006066	
33435	    0	20.357637	-2.231173	-2.528722	-1.863708	0.074770	-1.175714	0.203430	-0.023743	-0.025146	0.999939	-0.009318	0.000374	-0.005878	
33436	    0	19.629341	0.180566	-0.247259	-1.989412	0.072672	-1.340898	0.196299	0.000464	-0.002553	0.999928	-0.009947	0.000363	-0.006704	
33437	    0	20.734231	-1.172660	2.263130	-2.477918	0.136571	-1.322981	0.207275	-0.012817	0.022644	0.999901	-0.012389	0.000683	-0.006615	
33438	    0	19.165901	-2.651860	2.399598	-2.910736	0.117498	-1.259857	0.191503	-0.027373	0.024278	0.999873	-0.014553	0.000587	-0.006299	
33439	    0	18.254339	-2.822465	2.095931	-3.029578	0.103001	-1.259670	0.182373	-0.029053	0.021301	0.999865	-0.015147	0.000515	-0.006298	
33440	    0	18.117392	-4.251025	1.364663	-3.143844	0.113493	-1.295152	0.180902	-0.043462	0.014222	0.999855	-0.015718	0.000567	-0.006475	
33441	    0	16.130666	-8.820670	0.387559	-3.350054	0.141914	-1.223820	0.160767	-0.089111	0.005249	0.999840	-0.016749	0.000710	-0.006119	
33442	    0	13.458544	-9.618071	-0.630355	-3.374475	0.199329	-1.291345	0.133955	-0.097136	-0.004804	0.999836	-0.016871	0.000997	-0.006456	
33443	    0	12.536395	-8.213531	-1.479337	-3.269942	0.276199	-1.420669	0.124756	-0.083252	-0.013611	0.999840	-0.016349	0.001381	-0.007103	
33444	    0	12.107621	-7.759927	-1.975188	-2.961875	0.292792	-1.685225	0.120387	-0.078898	-0.018766	0.999853	-0.014809	0.001464	-0.008426	
33445	    0	11.663182	-5.688909	-0.672471	-2.511517	0.283826	-2.060791	0.116028	-0.058167	-0.006165	0.999866	-0.012557	0.001419	-0.010303	
33446	    0	10.262586	-4.671817	-0.790705	-2.145097	0.278103	-2.392110	0.102046	-0.048023	-0.007539	0.999869	-0.010725	0.001390	-0.011960	
33447	    0	10.200742	-5.628031	-2.031388	-1.875201	0.238811	-2.745946	0.101196	-0.057861	-0.019897	0.999861	-0.009376	0.001194	-0.013729	
33448	    0	11.481157	-5.654468	-2.637801	-1.898102	0.419639	-2.967990	0.113898	-0.058488	-0.026069	0.999843	-0.009490	0.002098	-0.014839	
33449	    0	12.513097	-7.085669	-1.930310	-1.419138	0.406095	-3.127445	0.123962	-0.072937	-0.019043	0.999850	-0.007095	0.002030	-0.015636	
33450	    0	12.243363	-5.411218	-2.282281	-0.763739	0.308242	-3.305595	0.121481	-0.056212	-0.022799	0.999854	-0.003819	0.001541	-0.016527	
33451	    0	10.152795	-3.432168	-2.450444	-0.180063	0.246632	-3.418136	0.100891	-0.036072	-0.024597	0.999852	-0.000900	0.001233	-0.017090	
33452	    0	8.774544	-1.325705	-2.823121	0.178346	0.170144	-3.422714	0.087478	-0.014730	-0.028318	0.999852	0.000892	0.000851	-0.017113	
33453	    0	7.053639	-0.445733	-2.790098	0.438710	0.118452	-3.286894	0.070435	-0.005554	-0.027954	0.999862	0.002193	0.000592	-0.016434	
33454	    0	11.070268	-0.945221	-0.329940	1.309267	-0.028230	-3.127629	0.110538	-0.011160	-0.003353	0.999856	0.006546	-0.000141	-0.015637	
33455	    0	10.973323	1.554368	-2.852312	1.257566	-0.312818	-2.842065	0.109985	0.014160	-0.028259	0.999878	0.006288	-0.001564	-0.014210	
33456	    0	6.096921	-2.587816	-2.301078	0.724049	-0.418674	-2.416104	0.060699	-0.026529	-0.022979	0.999918	0.003620	-0.002093	-0.012080	
33457	    0	5.808203	-4.272119	-3.938614	0.272567	-0.478374	-2.308709	0.057678	-0.043335	-0.039307	0.999929	0.001363	-0.002392	-0.011543	
33458	    0	6.427559	-4.073466	-4.879699	-0.237088	-0.491533	-2.051392	0.063972	-0.041450	-0.048591	0.999943	-0.001185	-0.002458	-0.010257	
33459	    0	7.573407	-3.952774	-4.343950	-0.760663	-0.519379	-1.725797	0.075500	-0.040344	-0.043091	0.999951	-0.003803	-0.002597	-0.008629	
33460	    0	6.999390	-3.672237	-3.396914	-1.161975	-0.580415	-1.453613	0.069821	-0.037426	-0.033550	0.999952	-0.005810	-0.002902	-0.007268	
33461	    0	5.776147	-3.884969	-2.567991	-1.463342	-0.643741	-1.152820	0.057617	-0.039368	-0.025208	0.999951	-0.007317	-0.003219	-0.005764	
33462	    0	5.857576	-4.760028	-2.372099	-1.467152	-0.648889	-0.811206	0.058457	-0.048009	-0.023180	0.999959	-0.007336	-0.003244	-0.004056	
33463	    0	8.112614	-6.059993	-2.788543	-0.820164	-0.570491	-0.493624	0.081055	-0.060913	-0.027405	0.999984	-0.004101	-0.002852	-0.002468	
33464	    0	10.706824	-6.413548	-3.807478	0.044632	-0.495720	-0.192261	0.107100	-0.064230	-0.037824	0.999996	0.000223	-0.002479	-0.000961	
33465	    0	11.365397	-5.234401	-4.203172	0.543405	-0.318909	0.186158	0.113770	-0.052124	-0.041992	0.999994	0.002717	-0.001595	0.000931	
33466	    0	9.771113	-2.733220	-3.116761	0.610163	-0.158501	0.560190	0.097812	-0.026963	-0.031173	0.999990	0.003051	-0.000793	0.002801	
33467	    0	7.294384	0.312188	-1.738723	0.435641	-0.125695	1.042944	0.072937	0.003540	-0.017334	0.999984	0.002178	-0.000628	0.005215	
33468	    0	5.612016	1.208442	-1.303387	0.128747	-0.073624	1.605242	0.056026	0.012543	-0.013005	0.999967	0.000644	-0.000368	0.008026	
33469	    0	5.118268	0.268975	-1.237904	-0.302130	0.025368	2.204178	0.051147	0.003235	-0.012390	0.999938	-0.001511	0.000127	0.011021	
33470	    0	5.150673	-1.335564	-1.389483	-0.575656	0.082019	2.705851	0.051676	-0.012697	-0.013879	0.999904	-0.002878	0.000410	0.013529	
33471	    0	5.454981	-1.380851	-1.319455	-0.546287	0.092510	3.086980	0.054749	-0.013000	-0.013184	0.999877	-0.002731	0.000463	0.015434	
33472	    0	5.809626	-0.580381	-1.417568	-0.412771	0.084881	3.438740	0.058179	-0.004833	-0.014190	0.999849	-0.002064	0.000424	0.017193	
33473	    0	6.297685	0.475905	-1.504029	-0.409723	0.076489	3.790513	0.062866	0.005920	-0.015076	0.999818	-0.002048	0.000382	0.018951	
33474	    0	6.987385	0.268897	-1.216744	-0.506820	0.045971	4.192473	0.069795	0.004122	-0.012193	0.999777	-0.002534	0.000230	0.020961	
33475	    0	8.236881	-0.778836	-0.796068	-0.461428	-0.026705	4.574225	0.082520	-0.005920	-0.007935	0.999735	-0.002307	-0.000134	0.022869	
33476	    0	9.718096	-1.457505	-0.588540	-0.244547	-0.122655	4.898563	0.097503	-0.012197	-0.005810	0.999699	-0.001223	-0.000613	0.024490	
33477	    0	11.504426	-1.373060	-0.726658	0.048071	-0.222613	5.182466	0.115356	-0.010742	-0.007141	0.999663	0.000240	-0.001113	0.025909	
33478	    0	13.201495	-1.995381	-0.519869	0.337070	-0.268397	5.434709	0.132499	-0.016349	-0.005051	0.999628	0.001685	-0.001342	0.027170	
33479	    0	15.091957	-2.492825	-0.342289	0.760945	-0.359394	5.663310	0.151550	-0.020630	-0.003235	0.999590	0.003804	-0.001797	0.028313	
33480	    0	16.666969	-1.688565	-0.047203	1.220315	-0.449058	5.876856	0.167070	-0.011978	-0.000180	0.999547	0.006101	-0.002245	0.029380	
33481	    0	17.182627	-0.918471	0.039003	1.708501	-0.526324	6.003789	0.171997	-0.004028	0.000793	0.999509	0.008541	-0.002631	0.030014	
33482	    0	17.264138	-0.362409	-0.165402	2.249163	-0.588331	6.098304	0.172648	0.001656	-0.001147	0.999467	0.011244	-0.002941	0.030486	
33483	    0	17.217436	0.683472	-0.708363	2.818839	-0.614093	6.138261	0.171875	0.012207	-0.006409	0.999425	0.014091	-0.003070	0.030685	
33484	    0	16.833815	1.705662	-1.683882	3.291033	-0.556677	6.118869	0.167751	0.022464	-0.016031	0.999393	0.016452	-0.002783	0.030588	
33485	    0	17.266601	3.255021	-3.209795	3.577403	-0.441643	6.067391	0.171631	0.038330	-0.031067	0.999377	0.017883	-0.002208	0.030331	
33486	    0	18.011347	5.815121	-4.949896	3.574903	-0.314204	5.966247	0.178331	0.064358	-0.048104	0.999393	0.017871	-0.001571	0.029825	
33487	    0	19.013794	10.561317	-6.926077	3.103625	-0.182375	5.798623	0.187012	0.112122	-0.067383	0.999458	0.015515	-0.000912	0.028988	
33488	    0	18.977815	12.833279	-8.498225	2.486802	-0.073063	5.541891	0.186137	0.134567	-0.083266	0.999538	0.012432	-0.000365	0.027705	
33489	    0	17.857255	13.832050	-11.174576	1.963290	-0.207355	5.122256	0.175049	0.143921	-0.110168	0.999623	0.009815	-0.001037	0.025608	
33490	    0	17.321806	16.384137	-12.570462	1.337174	-0.404395	4.481346	0.169729	0.168505	-0.124243	0.999724	0.006685	-0.002022	0.022405	
33491	    0	16.572227	20.630047	-9.900676	0.502044	-0.564419	3.731762	0.162109	0.209595	-0.098022	0.999818	0.002510	-0.002822	0.018658	
33492	    0	14.909064	25.411616	-6.044004	-0.365843	-0.546095	2.942197	0.145497	0.256164	-0.060507	0.999886	-0.001829	-0.002730	0.014710	
33493	    0	11.557339	24.750342	-4.772126	-0.774398	-0.385864	1.922643	0.113281	0.248413	-0.048462	0.999944	-0.003872	-0.001929	0.009613	
33494	    0	8.859519	23.441626	-4.535624	-0.696185	-0.401308	0.672725	0.087898	0.234553	-0.045996	0.999986	-0.003481	-0.002007	0.003364	
33495	    0	7.839157	23.498198	-3.079847	-0.432397	-0.452424	-0.440980	0.078979	0.234741	-0.031128	0.999992	-0.002162	-0.002262	-0.002205	
33496	    0	7.671877	20.626821	-1.700429	-0.182535	-0.536351	-1.313221	0.078116	0.205743	-0.016984	0.999974	-0.000913	-0.002682	-0.006566	
33497	    0	8.527624	16.376827	-0.088735	0.129702	-0.537691	-2.005041	0.086914	0.162903	-0.000549	0.999946	0.000648	-0.002688	-0.010025	
33498	    0	9.146955	12.784158	1.820000	0.564401	-0.521675	-2.551345	0.093041	0.126609	0.018800	0.999910	0.002822	-0.002608	-0.012756	
33499	    0	10.579114	9.166133	3.256282	0.989763	-0.589776	-2.874108	0.106995	0.089966	0.033325	0.999880	0.004949	-0.002949	-0.014370	
33500	    0	8.023378	7.482285	4.328027	1.619422	-0.681531	-3.041996	0.081206	0.073237	0.044153	0.999846	0.008097	-0.003407	-0.015209	
33501	    0	9.053216	7.336392	2.848206	2.701023	-0.588846	-3.410613	0.091675	0.071411	0.029724	0.999759	0.013504	-0.002944	-0.017052	
33502	    0	29.968247	19.016586	-0.563600	3.591726	-0.349482	-5.004532	0.304321	0.182644	-0.001781	0.999524	0.017956	-0.001747	-0.025019	
33503	    0	36.310902	20.049606	3.391508	2.518240	-0.644010	-5.145213	0.367981	0.190613	0.037537	0.999584	0.012589	-0.003220	-0.025723	
33504	    0	23.578213	4.479949	0.022872	0.990388	-1.036741	-4.513590	0.236707	0.039458	0.001658	0.999720	0.004951	-0.005183	-0.022566	
33505	    0	22.000854	-0.326158	1.008270	0.338205	-1.220820	-4.622330	0.219788	-0.008362	0.011414	0.999712	0.001691	-0.006104	-0.023109	
33506	    0	10.849439	5.549960	-3.089868	0.633112	-1.824941	-4.477945	0.109977	0.053144	-0.029729	0.999702	0.003165	-0.009124	-0.022388	
33507	    0	7.277622	13.583597	-4.956259	0.043682	-1.392486	-4.349896	0.076050	0.134216	-0.049011	0.999739	0.000218	-0.006962	-0.021748	
33508	    0	7.518080	12.079326	-5.213676	-0.423841	-0.971095	-3.835931	0.077730	0.119208	-0.052017	0.999802	-0.002119	-0.004855	-0.019178	
33509	    0	3.699860	7.651500	-7.631171	-0.681143	-0.813328	-3.009161	0.038452	0.075684	-0.076416	0.999872	-0.003406	-0.004066	-0.015045	
33510	    0	5.003761	7.703182	-5.001170	-0.829911	-0.480475	-2.460170	0.051099	0.076200	-0.050207	0.999912	-0.004149	-0.002402	-0.012300	
33511	    0	11.394088	5.786880	-3.154166	-0.771157	-0.254064	-2.041667	0.114563	0.056580	-0.031616	0.999939	-0.003856	-0.001270	-0.010208	
33512	    0	13.844352	3.508706	-4.003090	-0.484664	-0.131227	-1.732850	0.138766	0.033789	-0.040023	0.999959	-0.002423	-0.000656	-0.008664	
33513	    0	15.206843	4.241433	-5.931446	-0.335697	0.004005	-1.625843	0.152405	0.041077	-0.059387	0.999965	-0.001678	0.000020	-0.008129	
33514	    0	19.194965	3.334698	-6.622339	-0.592811	0.169374	-1.539629	0.192142	0.031672	-0.066482	0.999965	-0.002964	0.000847	-0.007698	
33515	    0	21.553356	-0.988626	-5.279118	-1.055160	0.228313	-1.441975	0.215393	-0.011719	-0.052979	0.999959	-0.005276	0.001142	-0.007210	
33516	    0	21.992008	-1.631945	-2.696811	-1.352714	0.184825	-1.446557	0.219769	-0.018092	-0.027053	0.999950	-0.006763	0.000924	-0.007233	
33517	    0	20.830777	0.263370	-0.731304	-1.480131	0.175670	-1.538115	0.208313	0.000977	-0.007507	0.999942	-0.007401	0.000878	-0.007690	
33518	    0	20.590684	0.696127	1.307837	-1.768727	0.269133	-1.602784	0.205972	0.005424	0.012749	0.999928	-0.008843	0.001346	-0.008014	
33519	    0	19.642067	-2.056941	1.937043	-2.081929	0.312051	-1.509899	0.196289	-0.021851	0.019287	0.999916	-0.010409	0.001560	-0.007549	
33520	    0	18.633242	-1.132348	1.420603	-2.224989	0.273141	-1.491019	0.186261	-0.012555	0.014087	0.999909	-0.011125	0.001366	-0.007455	
33521	    0	18.690605	-2.064708	0.884407	-2.501574	0.280771	-1.406909	0.186768	-0.021851	0.008850	0.999895	-0.012507	0.001404	-0.007034	
33522	    0	16.726356	-5.472358	0.411465	-2.803532	0.275814	-1.253750	0.166923	-0.055708	0.004661	0.999881	-0.014017	0.001379	-0.006269	
33523	    0	13.325957	-6.926020	-0.149138	-2.950219	0.314344	-1.102494	0.132874	-0.070007	-0.000671	0.999874	-0.014750	0.001572	-0.005512	
33524	    0	11.085081	-6.777908	-0.182968	-2.959184	0.465603	-1.013607	0.110502	-0.068359	-0.001079	0.999874	-0.014795	0.002328	-0.005068	
33525	    0	9.878926	-7.153124	-0.765290	-2.641962	0.642418	-1.049079	0.098389	-0.072144	-0.007019	0.999893	-0.013209	0.003212	-0.005245	
33526	    0	9.851418	-7.284147	-1.697122	-2.090511	0.799582	-1.249157	0.097989	-0.073629	-0.016597	0.999917	-0.010452	0.003998	-0.006246	
33527	    0	9.697005	-5.508841	-0.815988	-1.473842	0.887319	-1.571691	0.096497	-0.055908	-0.008179	0.999931	-0.007369	0.004436	-0.007858	
33528	    0	9.386726	-5.225028	-1.763132	-0.913640	0.870342	-1.882403	0.093292	-0.053211	-0.017797	0.999935	-0.004568	0.004352	-0.009412	
33529	    0	9.527692	-5.614571	-3.349354	-0.495922	0.715081	-2.156115	0.094543	-0.057251	-0.033691	0.999932	-0.002480	0.003575	-0.010780	
33530	    0	11.279974	-4.244225	-2.616298	-0.166707	0.600831	-2.462453	0.112186	-0.043848	-0.026464	0.999919	-0.000834	0.003004	-0.012312	
33531	    0	11.189137	-3.131701	-2.764549	-0.034906	0.453963	-2.716150	0.111389	-0.032837	-0.027893	0.999905	-0.000175	0.002270	-0.013580	
33532	    0	11.373832	-2.872448	-2.549167	-0.146299	0.486011	-2.987976	0.113230	-0.030437	-0.025745	0.999885	-0.000731	0.002430	-0.014939	
33533	    0	11.927080	-4.820393	-3.058191	0.157935	0.545716	-3.149548	0.118408	-0.050049	-0.030945	0.999871	0.000790	0.002728	-0.015747	
33534	    0	12.415377	-4.741334	-3.384602	0.592070	0.479531	-3.319519	0.123263	-0.049363	-0.034286	0.999854	0.002960	0.002398	-0.016597	
33535	    0	10.519938	-0.768362	-4.301688	0.810285	0.305383	-3.483006	0.104980	-0.009338	-0.043213	0.999839	0.004051	0.001527	-0.017414	
33536	    0	6.269543	-0.735579	-4.304809	0.768319	0.169953	-3.393726	0.062524	-0.008252	-0.043132	0.999847	0.003841	0.000850	-0.016968	
33537	    0	16.253460	2.281540	-3.639382	0.939415	-0.123602	-3.269353	0.162903	0.020325	-0.036194	0.999855	0.004697	-0.000618	-0.016346	
33538	    0	12.236519	-5.868833	-3.447439	0.436225	-0.407995	-2.744383	0.121615	-0.060286	-0.034356	0.999901	0.002181	-0.002040	-0.013721	
33539	    0	9.059815	-6.674587	-2.769496	-0.047113	-0.608842	-2.483436	0.089844	-0.067871	-0.027405	0.999918	-0.000236	-0.003044	-0.012417	
33540	    0	7.330691	-3.688477	-3.919252	-0.430691	-0.711270	-2.414960	0.072992	-0.037851	-0.038852	0.999918	-0.002153	-0.003556	-0.012074	
33541	    0	8.018319	-3.220219	-4.975411	-0.843069	-0.746745	-2.131704	0.080017	-0.033264	-0.049316	0.999927	-0.004215	-0.003734	-0.010658	
33542	    0	9.168455	-4.223209	-4.725989	-1.145006	-0.795191	-1.796189	0.091485	-0.043323	-0.046650	0.999935	-0.005725	-0.003976	-0.008981	
33543	    0	8.635593	-5.054184	-3.745441	-1.361875	-0.842112	-1.528962	0.086121	-0.051453	-0.036743	0.999938	-0.006809	-0.004210	-0.007645	
33544	    0	7.787833	-5.362663	-2.721648	-1.469258	-0.853745	-1.262498	0.077651	-0.054314	-0.026487	0.999944	-0.007346	-0.004269	-0.006312	
33545	    0	8.409007	-5.825537	-2.663273	-1.001750	-0.805482	-0.929270	0.083923	-0.058777	-0.026001	0.999969	-0.005009	-0.004027	-0.004646	
33546	    0	10.773727	-6.362119	-3.548847	-0.217248	-0.736049	-0.568964	0.107685	-0.063966	-0.035023	0.999989	-0.001086	-0.003680	-0.002845	
33547	    0	11.746450	-5.366427	-4.278554	0.269318	-0.642206	-0.177002	0.117554	-0.053711	-0.042480	0.999993	0.001347	-0.003211	-0.000885	
33548	    0	10.365041	-3.439930	-3.484218	0.383569	-0.530625	0.234414	0.103783	-0.034211	-0.034633	0.999993	0.001918	-0.002653	0.001172	
33549	    0	8.075787	-1.698396	-2.299334	0.326539	-0.478937	0.702670	0.080872	-0.016663	-0.022827	0.999990	0.001633	-0.002395	0.003513	
33550	    0	6.816476	-1.091877	-1.811255	0.142861	-0.367167	1.226243	0.068263	-0.010488	-0.017995	0.999979	0.000714	-0.001836	0.006131	
33551	    0	6.315499	-0.719525	-1.479008	-0.060273	-0.248531	1.730369	0.063232	-0.006653	-0.014709	0.999961	-0.000301	-0.001243	0.008652	
33552	    0	6.096215	-0.433989	-1.040932	-0.169948	-0.192265	2.207420	0.061015	-0.003675	-0.010347	0.999938	-0.000850	-0.000961	0.011037	
33553	    0	5.665053	0.091468	-0.902423	-0.094416	-0.186163	2.603986	0.056641	0.001648	-0.008972	0.999914	-0.000472	-0.000931	0.013020	
33554	    0	5.466961	1.420153	-1.320015	0.028039	-0.182540	2.985875	0.054461	0.015018	-0.013148	0.999887	0.000140	-0.000913	0.014929	
33555	    0	5.837259	2.269247	-1.419418	-0.028993	-0.128752	3.411268	0.057983	0.023682	-0.014160	0.999854	-0.000145	-0.000644	0.017056	
33556	    0	6.308194	1.857616	-0.991050	-0.155268	-0.074964	3.877883	0.062710	0.019787	-0.009902	0.999811	-0.000776	-0.000375	0.019388	
33557	    0	7.002438	0.551303	-0.514357	-0.159467	-0.062375	4.318573	0.069885	0.007019	-0.005127	0.999766	-0.000797	-0.000312	0.021591	
33558	    0	7.878519	0.079574	-0.202729	0.000382	-0.079353	4.704528	0.078738	0.002648	-0.001996	0.999722	0.000002	-0.000397	0.023520	
33559	    0	8.867434	0.550172	-0.538478	0.155847	-0.156419	5.071040	0.088501	0.007751	-0.005310	0.999678	0.000779	-0.000782	0.025352	
33560	    0	10.223515	0.473318	-0.742598	0.212886	-0.200487	5.441576	0.102063	0.007520	-0.007317	0.999628	0.001064	-0.001002	0.027205	
33561	    0	11.802368	-0.059879	-0.483782	0.324294	-0.229486	5.760230	0.117981	0.002808	-0.004700	0.999583	0.001621	-0.001147	0.028797	
33562	    0	13.007562	0.129982	-0.359760	0.576298	-0.319148	6.001049	0.129964	0.005211	-0.003379	0.999544	0.002881	-0.001595	0.030001	
33563	    0	13.862248	0.761923	-0.304446	0.973860	-0.444866	6.167847	0.138306	0.011902	-0.002686	0.999510	0.004869	-0.002224	0.030834	
33564	    0	14.906648	1.666240	-0.129320	1.430380	-0.571732	6.288101	0.148447	0.021343	-0.000727	0.999475	0.007151	-0.002858	0.031435	
33565	    0	15.622910	2.689303	-0.220741	1.877942	-0.668268	6.364094	0.155273	0.031860	-0.001404	0.999444	0.009388	-0.003341	0.031815	
33566	    0	16.409491	3.910895	-0.344058	2.197685	-0.658924	6.369281	0.162747	0.044337	-0.002435	0.999427	0.010986	-0.003294	0.031840	
33567	    0	17.273433	4.553599	-0.737104	2.456373	-0.559151	6.297747	0.171204	0.051025	-0.006287	0.999425	0.012280	-0.002795	0.031483	
33568	    0	18.392117	5.798678	-1.498169	2.691587	-0.486847	6.157514	0.182051	0.063802	-0.013704	0.999433	0.013455	-0.002434	0.030782	
33569	    0	19.267674	8.565054	-2.931308	2.785997	-0.434000	5.961926	0.190063	0.091736	-0.027649	0.999455	0.013927	-0.002170	0.029804	
33570	    0	19.976486	12.967950	-4.234226	2.459533	-0.265354	5.640158	0.196048	0.135749	-0.040436	0.999525	0.012296	-0.001327	0.028196	
33571	    0	19.329040	13.916278	-6.059899	2.189355	-0.206021	5.199360	0.189636	0.144775	-0.058838	0.999601	0.010945	-0.001030	0.025993	
33572	    0	18.430825	15.599600	-7.740631	1.985374	-0.314936	4.557699	0.180799	0.160899	-0.075539	0.999689	0.009926	-0.001575	0.022786	
33573	    0	17.007125	19.172598	-8.308468	1.584738	-0.439294	3.794368	0.166565	0.195557	-0.081177	0.999785	0.007923	-0.002196	0.018970	
33574	    0	14.150589	22.348284	-7.007684	1.016851	-0.548386	2.980168	0.138341	0.225911	-0.068550	0.999872	0.005084	-0.002742	0.014900	
33575	    0	12.050013	24.142145	-4.494002	0.522815	-0.505076	2.121016	0.118042	0.242798	-0.044006	0.999937	0.002614	-0.002525	0.010605	
33576	    0	10.895742	24.243581	-2.951676	0.251962	-0.334933	1.175888	0.107578	0.243108	-0.029030	0.999980	0.001260	-0.001675	0.005879	
33577	    0	8.848124	22.690609	-2.656189	0.228310	-0.268555	0.121307	0.088379	0.226990	-0.026184	0.999998	0.001142	-0.001343	0.000607	
33578	    0	7.519552	22.390181	-2.076890	0.254060	-0.306321	-0.820926	0.076145	0.223617	-0.020369	0.999990	0.001270	-0.001532	-0.004105	
33579	    0	7.617981	19.510656	-0.892444	0.201609	-0.316623	-1.544969	0.077698	0.194519	-0.008606	0.999968	0.001008	-0.001583	-0.007725	
33580	    0	8.816606	13.374288	1.414190	0.296026	-0.275236	-2.122157	0.089559	0.132776	0.014462	0.999941	0.001480	-0.001376	-0.010611	
33581	    0	10.508892	8.794789	3.445563	0.590533	-0.377475	-2.568130	0.106140	0.086487	0.034912	0.999911	0.002953	-0.001887	-0.012840	
33582	    0	6.138295	7.643349	4.126285	1.043168	-0.463312	-2.766903	0.062334	0.075358	0.041801	0.999887	0.005216	-0.002316	-0.013834	
33583	    0	5.691821	8.089969	-2.875495	1.661958	-0.668369	-3.019869	0.058228	0.080261	-0.027893	0.999846	0.008309	-0.003342	-0.015099	
33584	    0	22.195232	24.237240	-13.861873	2.227072	-0.679853	-4.551239	0.227877	0.238750	-0.135179	0.999673	0.011134	-0.003399	-0.022754	
33585	    0	38.669485	23.973710	-1.447199	1.198143	-0.600502	-5.064971	0.392639	0.229919	-0.011902	0.999657	0.005990	-0.003002	-0.025322	
33586	    0	22.044211	-0.603609	-3.612829	0.563859	-1.152515	-4.249731	0.220452	-0.010621	-0.034883	0.999753	0.002819	-0.005762	-0.021247	
33587	    0	20.196464	-5.615905	-1.729816	0.231382	-1.124671	-4.442223	0.200745	-0.060608	-0.016235	0.999737	0.001157	-0.005623	-0.022209	
33588	    0	12.489693	7.438608	1.994817	0.291278	-1.482144	-4.406564	0.126342	0.071583	0.020987	0.999728	0.001456	-0.007410	-0.022031	
33589	    0	7.737236	12.643172	-3.587634	0.057416	-1.263531	-4.252210	0.080261	0.124756	-0.035339	0.999754	0.000287	-0.006317	-0.021259	
33590	    0	8.307134	10.387730	-7.111803	-0.187505	-0.952404	-3.919868	0.085423	0.102152	-0.070811	0.999796	-0.000937	-0.004762	-0.019598	
33591	    0	6.267499	9.171579	-5.384095	-0.538471	-0.791970	-3.308269	0.064392	0.090515	-0.053833	0.999851	-0.002692	-0.003960	-0.016541	
33592	    0	4.832535	6.455000	-4.090897	-0.540751	-0.516908	-2.693264	0.049294	0.063780	-0.040956	0.999902	-0.002704	-0.002584	-0.013466	
33593	    0	9.936084	5.542049	-4.066815	-0.502788	-0.312621	-2.242329	0.100037	0.054199	-0.040649	0.999932	-0.002514	-0.001563	-0.011211	
33594	    0	12.066293	5.778396	-4.155520	-0.417907	-0.208858	-1.926644	0.121255	0.056531	-0.041548	0.999950	-0.002090	-0.001044	-0.009633	
33595	    0	14.002286	6.389196	-5.015029	-0.416570	-0.070763	-1.660177	0.140564	0.062622	-0.050232	0.999963	-0.002083	-0.000354	-0.008301	
33596	    0	17.223349	5.131365	-6.381156	-0.670631	0.103570	-1.400580	0.172553	0.049891	-0.064070	0.999969	-0.003353	0.000518	-0.007003	
33597	    0	18.849197	1.144562	-5.982034	-0.867280	0.269320	-1.247418	0.188477	0.010010	-0.060120	0.999969	-0.004336	0.001347	-0.006237	
33598	    0	22.019944	0.474619	-4.409337	-1.047147	0.407033	-1.309030	0.220133	0.003073	-0.044560	0.999963	-0.005236	0.002035	-0.006545	
33599	    0	22.754677	-0.867224	-3.096199	-1.391624	0.420577	-1.306936	0.227417	-0.010376	-0.031372	0.999951	-0.006958	0.002103	-0.006535	
33600	    0	21.538107	-0.188994	-2.217918	-1.672207	0.418862	-1.396208	0.215313	-0.003581	-0.022605	0.999938	-0.008361	0.002094	-0.006981	
33601	    0	21.779699	-0.218235	0.048221	-2.023942	0.473035	-1.472513	0.217773	-0.003784	0.000000	0.999918	-0.010119	0.002365	-0.007362	
33602	    0	20.258642	-2.325158	0.852901	-2.332189	0.380147	-1.422736	0.202431	-0.024593	0.008426	0.999905	-0.011661	0.001901	-0.007113	
33603	    0	19.158430	-2.640636	0.827064	-2.640443	0.344099	-1.412254	0.191406	-0.027649	0.008301	0.999886	-0.013202	0.001720	-0.007061	
33604	    0	18.072383	-3.811604	0.682851	-2.899866	0.299848	-1.329097	0.180476	-0.039214	0.007121	0.999871	-0.014499	0.001499	-0.006645	
33605	    0	16.227487	-5.887893	0.642576	-3.196683	0.365466	-1.214659	0.161926	-0.059753	0.007080	0.999851	-0.015983	0.001827	-0.006073	
33606	    0	14.226770	-8.506929	0.475268	-3.325062	0.516155	-1.051194	0.141832	-0.085725	0.005808	0.999845	-0.016624	0.002581	-0.005256	
33607	    0	11.669899	-9.667254	-0.356152	-3.087566	0.650817	-0.986526	0.116211	-0.097290	-0.002441	0.999863	-0.015437	0.003254	-0.004932	
33608	    0	9.728347	-8.567840	-1.397592	-2.547542	0.727678	-1.095237	0.096763	-0.086381	-0.013231	0.999897	-0.012737	0.003638	-0.005476	
33609	    0	9.310314	-5.844871	-1.110242	-2.010210	0.763723	-1.390877	0.092651	-0.059204	-0.010864	0.999918	-0.010051	0.003819	-0.006954	
33610	    0	8.156928	-3.712038	-0.159437	-1.462781	0.737589	-1.751751	0.081234	-0.037845	-0.001619	0.999928	-0.007314	0.003688	-0.008759	
33611	    0	7.385138	-5.386174	-1.740587	-0.918600	0.650993	-2.030990	0.073242	-0.054688	-0.017395	0.999932	-0.004593	0.003255	-0.010155	
33612	    0	8.636251	-5.287789	-1.529420	-0.340089	0.582519	-2.355634	0.085687	-0.053916	-0.015453	0.999925	-0.001700	0.002913	-0.011778	
33613	    0	10.285244	-2.939784	-1.274304	0.025178	0.494591	-2.662740	0.102417	-0.030762	-0.013000	0.999907	0.000126	0.002473	-0.013313	
33614	    0	11.139057	-2.647869	-2.125028	0.219735	0.469988	-2.906333	0.110940	-0.028069	-0.021542	0.999890	0.001099	0.002350	-0.014531	
33615	    0	11.803856	-2.992723	-2.685928	0.506041	0.482198	-3.090797	0.117493	-0.031677	-0.027222	0.999874	0.002530	0.002411	-0.015453	
33616	    0	10.711838	-3.171175	-2.294583	0.772703	0.426503	-3.226812	0.106540	-0.033344	-0.023300	0.999860	0.003863	0.002132	-0.016133	
33617	    0	8.348323	-1.457279	-2.659514	1.089533	0.277152	-3.315904	0.083191	-0.015808	-0.026794	0.999846	0.005447	0.001386	-0.016579	
33618	    0	6.434389	1.629869	-4.169278	0.927780	0.146110	-3.306552	0.064573	0.015426	-0.041667	0.999852	0.004639	0.000731	-0.016532	
33619	    0	8.201263	2.728225	-2.116218	0.699643	0.118451	-2.997708	0.082397	0.026123	-0.021118	0.999881	0.003498	0.000592	-0.014988	
33620	    0	16.428270	-2.315219	-5.224398	0.355541	-0.296983	-2.665220	0.164033	-0.025247	-0.052044	0.999908	0.001778	-0.001485	-0.013326	
33621	    0	7.061738	-6.301870	-2.287707	-0.253302	-0.434695	-2.266744	0.069946	-0.063843	-0.022644	0.999932	-0.001266	-0.002173	-0.011333	
33622	    0	5.714923	-5.099299	-3.471783	-0.625244	-0.428019	-2.258736	0.056642	-0.051743	-0.034435	0.999928	-0.003126	-0.002140	-0.011293	
33623	    0	6.531020	-3.831174	-4.922227	-0.936721	-0.463115	-2.163748	0.065002	-0.039246	-0.048889	0.999928	-0.004683	-0.002316	-0.010818	
33624	    0	8.779222	-4.223006	-5.420597	-1.264982	-0.443850	-1.872676	0.087509	-0.043391	-0.053740	0.999933	-0.006325	-0.002219	-0.009363	
33625	    0	9.314582	-5.678538	-4.311935	-1.515802	-0.437174	-1.619755	0.092773	-0.057861	-0.042480	0.999935	-0.007579	-0.002186	-0.008099	
33626	    0	8.697711	-6.318170	-3.335202	-1.554709	-0.423249	-1.385524	0.086605	-0.064038	-0.032673	0.999943	-0.007773	-0.002116	-0.006927	
33627	    0	9.906080	-6.717260	-3.365250	-0.969514	-0.369266	-1.086436	0.098755	-0.067871	-0.033142	0.999971	-0.004848	-0.001846	-0.005432	
33628	    0	12.769590	-6.806032	-4.134075	-0.135231	-0.365449	-0.802043	0.127497	-0.068600	-0.041061	0.999990	-0.000676	-0.001827	-0.004010	
33629	    0	13.930503	-6.151058	-4.452753	0.320626	-0.276947	-0.471497	0.139221	-0.061768	-0.044434	0.999994	0.001603	-0.001385	-0.002357	
33630	    0	12.559747	-4.664434	-3.606618	0.387574	-0.207901	-0.109482	0.125609	-0.046643	-0.036026	0.999997	0.001938	-0.001040	-0.000547	
33631	    0	9.953536	-3.241739	-2.647394	0.273895	-0.180626	0.310517	0.099609	-0.032227	-0.026428	0.999997	0.001369	-0.000903	0.001553	
33632	    0	8.392440	-2.102384	-1.757354	0.066757	-0.066948	0.767519	0.084010	-0.020696	-0.017552	0.999992	0.000334	-0.000335	0.003838	
33633	    0	7.953191	-0.977199	-1.378952	-0.010681	0.012398	1.245125	0.079590	-0.009277	-0.013794	0.999980	-0.000053	0.000062	0.006226	
33634	    0	7.389823	0.107087	-1.480187	-0.012207	0.056840	1.721976	0.073881	0.001706	-0.014823	0.999963	-0.000061	0.000284	0.008610	
33635	    0	6.497669	0.760066	-1.772721	0.017548	0.107004	2.152294	0.064880	0.008301	-0.017761	0.999942	0.000088	0.000535	0.010761	
33636	    0	6.319164	1.074811	-2.168960	0.168805	0.141529	2.583767	0.063030	0.011581	-0.021725	0.999915	0.000844	0.000708	0.012918	
33637	    0	6.614931	2.148901	-2.604719	0.241098	0.126081	3.038906	0.065796	0.022522	-0.026062	0.999883	0.001205	0.000630	0.015194	
33638	    0	6.937888	2.871866	-2.302158	0.254835	0.076298	3.535647	0.068848	0.029968	-0.023010	0.999843	0.001274	0.000381	0.017677	
33639	    0	7.446264	2.625997	-2.004540	0.215163	0.009347	4.020199	0.073914	0.027771	-0.020020	0.999797	0.001076	0.000047	0.020100	
33640	    0	8.017796	1.958901	-1.473979	0.210589	-0.068861	4.441818	0.079721	0.021379	-0.014690	0.999752	0.001053	-0.000344	0.022207	
33641	    0	8.556656	1.938091	-1.151364	0.209828	-0.183695	4.763483	0.085083	0.021423	-0.011414	0.999715	0.001049	-0.000918	0.023815	
33642	    0	9.515023	1.853572	-0.966043	0.215363	-0.293572	5.064936	0.094654	0.020947	-0.009500	0.999678	0.001077	-0.001468	0.025322	
33643	    0	11.099671	1.585200	-0.608851	0.250274	-0.373694	5.310687	0.110535	0.018799	-0.005859	0.999644	0.001251	-0.001868	0.026550	
33644	    0	12.432908	1.152269	-0.061654	0.435121	-0.421196	5.482224	0.123952	0.014925	-0.000325	0.999619	0.002175	-0.002106	0.027408	
33645	    0	13.298217	1.418356	0.326700	0.775441	-0.498266	5.597674	0.132507	0.017883	0.003662	0.999598	0.003877	-0.002491	0.027985	
33646	    0	14.230213	1.753893	0.410107	1.241099	-0.600901	5.710660	0.141711	0.021564	0.004653	0.999568	0.006205	-0.003004	0.028549	
33647	    0	15.010529	2.473454	0.281226	1.671858	-0.664432	5.810680	0.149292	0.029053	0.003540	0.999537	0.008358	-0.003322	0.029049	
33648	    0	15.595789	3.912203	-0.154674	1.970421	-0.678745	5.896194	0.154717	0.043705	-0.000605	0.999511	0.009851	-0.003393	0.029476	
33649	    0	16.073257	4.963418	-0.654203	2.129149	-0.608928	5.944295	0.159180	0.054443	-0.005493	0.999496	0.010644	-0.003044	0.029716	
33650	    0	16.785503	6.166824	-1.129433	2.173407	-0.519458	5.936092	0.165952	0.066728	-0.010155	0.999496	0.010865	-0.002597	0.029675	
33651	    0	17.000487	7.169329	-1.688254	2.136766	-0.395266	5.832851	0.167847	0.076782	-0.015747	0.999516	0.010682	-0.001976	0.029160	
33652	    0	16.833344	7.764619	-2.699261	2.203135	-0.315905	5.642612	0.166090	0.082643	-0.025837	0.999539	0.011014	-0.001579	0.028209	
33653	    0	17.093035	10.210262	-3.785408	2.038089	-0.188281	5.339778	0.168152	0.106995	-0.036621	0.999591	0.010189	-0.000941	0.026695	
33654	    0	17.028476	10.895294	-4.559285	1.801131	-0.060661	5.001276	0.167497	0.113569	-0.044533	0.999646	0.009005	-0.000303	0.025003	
33655	    0	16.305704	11.452135	-6.038703	1.668905	-0.101481	4.580379	0.160400	0.118713	-0.059326	0.999702	0.008344	-0.000507	0.022900	
33656	    0	15.672722	14.771083	-6.908671	1.350315	-0.263616	4.052853	0.153775	0.151308	-0.067869	0.999770	0.006751	-0.001318	0.020263	
33657	    0	14.269392	18.014086	-6.235998	0.853967	-0.431847	3.493691	0.139648	0.182861	-0.061279	0.999836	0.004270	-0.002159	0.017467	
33658	    0	12.525771	20.055647	-4.420564	0.367368	-0.507373	2.837281	0.122506	0.202388	-0.043522	0.999894	0.001837	-0.002537	0.014186	
33659	    0	11.642476	22.458477	-2.584720	-0.037957	-0.337988	2.069893	0.114136	0.225769	-0.025696	0.999945	-0.000190	-0.001690	0.010349	
33660	    0	9.743225	21.402717	-2.419511	-0.120164	-0.210382	1.251420	0.096116	0.214617	-0.024222	0.999979	-0.000601	-0.001052	0.006257	
33661	    0	7.670805	21.190571	-2.965957	0.084686	-0.234795	0.308228	0.076416	0.212036	-0.029480	0.999997	0.000423	-0.001174	0.001541	
33662	    0	6.544491	21.635743	-2.635948	0.262070	-0.312043	-0.564767	0.066096	0.216206	-0.025973	0.999993	0.001310	-0.001560	-0.002824	
33663	    0	6.808880	19.048196	-1.360112	0.373271	-0.358584	-1.286326	0.069336	0.190063	-0.013123	0.999975	0.001866	-0.001793	-0.006432	
33664	    0	8.160917	14.625412	0.505969	0.517472	-0.314718	-1.915582	0.082996	0.145450	0.005567	0.999949	0.002587	-0.001574	-0.009578	
33665	    0	11.732279	11.922990	1.745866	0.685140	-0.446142	-2.523878	0.118774	0.117676	0.018127	0.999911	0.003426	-0.002231	-0.012619	
33666	    0	6.705836	11.848020	1.343286	1.219991	-0.524161	-2.884032	0.068720	0.117412	0.014330	0.999873	0.006100	-0.002621	-0.014420	
33667	    0	10.160947	17.597965	-8.722788	2.030522	-0.819457	-3.583790	0.105103	0.174988	-0.085022	0.999779	0.010152	-0.004097	-0.017918	
33668	    0	33.772033	18.559639	-5.965520	1.706894	-0.413370	-4.979331	0.342329	0.177608	-0.057412	0.999651	0.008533	-0.002067	-0.024894	
33669	    0	32.956082	8.311615	3.331548	0.788195	-0.706362	-4.781819	0.331299	0.075073	0.034790	0.999700	0.003941	-0.003531	-0.023907	
33670	    0	21.278886	-3.900111	-0.498066	0.761868	-1.159016	-4.580553	0.211846	-0.043844	-0.003912	0.999713	0.003809	-0.005795	-0.022901	
33671	    0	17.997115	-3.323275	-1.631516	0.652568	-1.443623	-4.579611	0.179260	-0.037292	-0.015137	0.999706	0.003263	-0.007217	-0.022896	
33672	    0	6.542602	7.791370	-1.818622	0.789340	-1.759323	-4.496832	0.067311	0.076484	-0.017296	0.999701	0.003946	-0.008796	-0.022482	
33673	    0	6.589748	15.494335	-6.156665	0.317410	-1.374744	-4.315556	0.069641	0.153564	-0.060852	0.999742	0.001587	-0.006873	-0.021576	
33674	    0	7.990768	13.402824	-7.203386	-0.232712	-0.971670	-3.922921	0.082864	0.132339	-0.071791	0.999795	-0.001163	-0.004858	-0.019613	
33675	    0	3.716715	7.054960	-7.523705	-0.478194	-0.777471	-3.183129	0.038574	0.069763	-0.075256	0.999863	-0.002391	-0.003887	-0.015915	
33676	    0	6.350714	7.031957	-4.519089	-0.539607	-0.463882	-2.710622	0.064556	0.069327	-0.045230	0.999902	-0.002698	-0.002319	-0.013553	
33677	    0	11.651272	7.379937	-3.227417	-0.529301	-0.202184	-2.265219	0.117371	0.072388	-0.032349	0.999931	-0.002646	-0.001011	-0.011326	
33678	    0	12.125464	4.489633	-4.516483	-0.348860	-0.083734	-1.910621	0.121695	0.043656	-0.045191	0.999952	-0.001744	-0.000419	-0.009553	
33679	    0	15.319783	4.991130	-5.372786	-0.174715	0.001717	-1.747917	0.153625	0.048523	-0.053772	0.999961	-0.000874	0.000009	-0.008739	
33680	    0	18.207273	3.755498	-6.196021	-0.455098	0.098230	-1.534478	0.182323	0.036016	-0.062133	0.999968	-0.002275	0.000491	-0.007672	
33681	    0	18.413919	1.832228	-5.388574	-0.804719	0.198366	-1.367202	0.184204	0.016846	-0.054138	0.999968	-0.004024	0.000992	-0.006836	
33682	    0	20.729302	0.827838	-2.347228	-0.845156	0.265315	-1.377884	0.207312	0.006750	-0.023778	0.999966	-0.004226	0.001327	-0.006889	
33683	    0	21.867646	1.565591	-1.771056	-1.140419	0.305180	-1.385517	0.218750	0.014038	-0.018127	0.999958	-0.005702	0.001526	-0.006927	
33684	    0	21.223752	0.918518	-0.723766	-1.487759	0.383956	-1.430919	0.212281	0.007610	-0.007706	0.999945	-0.007439	0.001920	-0.007154	
33685	    0	20.794886	0.144310	-0.225476	-1.814884	0.410471	-1.424441	0.207947	-0.000061	-0.002686	0.999931	-0.009074	0.002052	-0.007122	
33686	    0	19.802847	-0.749968	-0.124982	-2.190080	0.357447	-1.365700	0.197968	-0.008867	-0.001512	0.999915	-0.010950	0.001787	-0.006828	
33687	    0	19.227301	0.048419	-0.592982	-2.517023	0.313007	-1.312300	0.192261	-0.000854	-0.006226	0.999898	-0.012585	0.001565	-0.006561	
33688	    0	17.745521	-3.061693	-0.626428	-2.908635	0.299466	-1.129578	0.177269	-0.031708	-0.006074	0.999877	-0.014543	0.001497	-0.005648	
33689	    0	14.606815	-4.892192	-0.648089	-3.177791	0.309196	-0.993393	0.145813	-0.049744	-0.005920	0.999860	-0.015888	0.001546	-0.004967	
33690	    0	12.607901	-4.852536	-0.486495	-3.409181	0.439285	-0.807423	0.125872	-0.049110	-0.004308	0.999844	-0.017045	0.002196	-0.004037	
33691	    0	11.582923	-6.614756	-0.435504	-3.438750	0.671613	-0.649296	0.115601	-0.066589	-0.003601	0.999841	-0.017193	0.003358	-0.003246	
33692	    0	10.245290	-8.843409	-1.684775	-3.002484	0.846517	-0.593973	0.102120	-0.088982	-0.015947	0.999873	-0.015012	0.004232	-0.002970	
33693	    0	9.415865	-7.407932	-2.865577	-2.400279	0.931005	-0.742362	0.093750	-0.074768	-0.028198	0.999909	-0.012001	0.004655	-0.003712	
33694	    0	9.305637	-5.708501	-1.885998	-1.797144	0.966285	-1.111628	0.092646	-0.057770	-0.018791	0.999932	-0.008986	0.004831	-0.005558	
33695	    0	8.019767	-4.674596	-2.950868	-1.312282	0.857752	-1.519043	0.079712	-0.047546	-0.029541	0.999940	-0.006561	0.004289	-0.007595	
33696	    0	8.303992	-5.072248	-4.446052	-0.897044	0.614941	-1.886977	0.082418	-0.051702	-0.044484	0.999940	-0.004485	0.003075	-0.009435	
33697	    0	10.504242	-3.055372	-3.143485	-0.587287	0.405894	-2.317867	0.104614	-0.031860	-0.031555	0.999926	-0.002936	0.002029	-0.011589	
33698	    0	10.764769	-1.830496	-2.680886	-0.576228	0.295076	-2.678002	0.107349	-0.019821	-0.026912	0.999905	-0.002881	0.001475	-0.013390	
33699	    0	11.879956	-3.541918	-2.214258	-0.588821	0.307476	-2.950399	0.118225	-0.037231	-0.022217	0.999886	-0.002944	0.001537	-0.014751	
33700	    0	12.528346	-4.656263	-2.397118	-0.386445	0.333991	-3.153744	0.124488	-0.048576	-0.024087	0.999872	-0.001932	0.001670	-0.015768	
33701	    0	11.274267	-4.150977	-2.160174	-0.086025	0.258649	-3.344120	0.112000	-0.043396	-0.021729	0.999859	-0.000430	0.001293	-0.016720	
33702	    0	8.974538	-1.442281	-2.565831	0.028802	0.144775	-3.483186	0.089458	-0.015979	-0.025725	0.999847	0.000144	0.000724	-0.017415	
33703	    0	5.916749	-1.828857	-1.883321	-0.115019	0.127417	-3.350987	0.058838	-0.019287	-0.018860	0.999859	-0.000575	0.000637	-0.016754	
33704	    0	15.625554	-2.936291	-1.955795	0.770031	-0.154121	-3.176068	0.155779	-0.031764	-0.019557	0.999866	0.003850	-0.000771	-0.015880	
33705	    0	13.251102	-8.569325	-3.582670	0.907358	-0.503558	-2.748207	0.131409	-0.087341	-0.035889	0.999891	0.004537	-0.002518	-0.013741	
33706	    0	8.089022	-7.184684	-3.905698	0.384534	-0.701163	-2.622305	0.080076	-0.072825	-0.038915	0.999906	0.001923	-0.003506	-0.013111	
33707	    0	7.064842	-4.442177	-3.591182	0.015450	-0.769830	-2.644432	0.070190	-0.045349	-0.035645	0.999905	0.000077	-0.003849	-0.013222	
33708	    0	8.122529	-4.560323	-5.364945	-0.489630	-0.769064	-2.408094	0.080873	-0.046709	-0.053225	0.999917	-0.002448	-0.003845	-0.012040	
33709	    0	10.003289	-5.645514	-4.505636	-0.914023	-0.723855	-2.043199	0.099609	-0.057678	-0.044434	0.999930	-0.004570	-0.003619	-0.010216	
33710	    0	10.718069	-6.740372	-3.152892	-1.184870	-0.674834	-1.787605	0.106676	-0.068542	-0.030765	0.999936	-0.005924	-0.003374	-0.008938	
33711	    0	11.784579	-7.031872	-2.666401	-0.951972	-0.553139	-1.542687	0.117371	-0.071350	-0.026001	0.999954	-0.004760	-0.002766	-0.007713	
33712	    0	13.617593	-7.190388	-3.094212	-0.287058	-0.398639	-1.199921	0.135802	-0.072763	-0.030567	0.999978	-0.001435	-0.001993	-0.006000	
33713	    0	14.242401	-6.507142	-3.779780	0.255013	-0.312806	-0.828555	0.142212	-0.065613	-0.037659	0.999989	0.001275	-0.001564	-0.004143	
33714	    0	12.291306	-4.939479	-3.206532	0.503160	-0.317383	-0.369836	0.122872	-0.049541	-0.031995	0.999993	0.002516	-0.001587	-0.001849	
33715	    0	9.466970	-3.447574	-2.283195	0.442696	-0.299836	0.131989	0.094727	-0.034363	-0.022766	0.999996	0.002213	-0.001499	0.000660	
33716	    0	7.750246	-2.876529	-1.826184	0.207520	-0.145150	0.626374	0.077605	-0.028503	-0.018235	0.999994	0.001038	-0.000726	0.003132	
33717	    0	7.219797	-2.329833	-1.659305	-0.015259	0.028420	1.138312	0.072327	-0.022888	-0.016602	0.999984	-0.000076	0.000142	0.005692	
33718	    0	6.836395	-1.355968	-1.605234	-0.069619	0.141336	1.695272	0.068464	-0.012985	-0.016096	0.999964	-0.000348	0.000707	0.008476	
33719	    0	6.084338	-0.286170	-1.788413	-0.012017	0.198368	2.187391	0.060852	-0.002197	-0.017944	0.999939	-0.000060	0.000992	0.010937	
33720	    0	5.605924	0.852005	-1.942865	0.123791	0.206000	2.669987	0.055919	0.009279	-0.019481	0.999909	0.000619	0.001030	0.013350	
33721	    0	5.883283	1.644249	-2.325837	0.190934	0.250255	3.173200	0.058533	0.017395	-0.023315	0.999872	0.000955	0.001251	0.015865	
33722	    0	6.747454	1.787120	-1.944591	0.156984	0.280587	3.744155	0.067097	0.019145	-0.019526	0.999823	0.000785	0.001403	0.018720	
33723	    0	7.686363	1.343772	-1.383303	0.186934	0.251980	4.239974	0.076538	0.015076	-0.013916	0.999774	0.000935	0.001260	0.021198	
33724	    0	8.478188	0.981051	-0.658599	0.243781	0.183313	4.674194	0.084516	0.011796	-0.006650	0.999725	0.001219	0.000916	0.023369	
33725	    0	9.240391	0.799244	-0.223339	0.377886	0.093088	5.026014	0.092163	0.010315	-0.002258	0.999681	0.001889	0.000465	0.025127	
33726	    0	10.071938	1.280802	-0.167933	0.571700	-0.028804	5.309736	0.100332	0.015480	-0.001623	0.999643	0.002858	-0.000144	0.026546	
33727	    0	11.592419	1.158897	-0.091014	0.761515	-0.111213	5.600721	0.115540	0.014832	-0.000793	0.999600	0.003807	-0.000556	0.028000	
33728	    0	13.283977	0.374333	0.377726	1.092879	-0.158333	5.798419	0.132654	0.007570	0.003917	0.999564	0.005464	-0.000792	0.028988	
33729	    0	14.426198	0.229772	0.516348	1.626081	-0.230253	5.932028	0.144104	0.006531	0.005371	0.999526	0.008129	-0.001151	0.029655	
33730	    0	15.471629	1.241456	0.380028	2.257929	-0.341856	6.027502	0.154243	0.017022	0.004239	0.999480	0.011288	-0.001709	0.030132	
33731	    0	16.176759	2.760089	-0.161383	2.775332	-0.410348	6.100084	0.160828	0.032532	-0.000854	0.999436	0.013874	-0.002051	0.030495	
33732	    0	16.312461	4.232543	-1.080993	3.126959	-0.431147	6.161013	0.161736	0.047481	-0.009745	0.999400	0.015632	-0.002155	0.030799	
33733	    0	16.610042	4.979773	-2.140503	3.343317	-0.374680	6.173452	0.164490	0.055237	-0.020203	0.999382	0.016713	-0.001873	0.030861	
33734	    0	17.238806	6.170011	-3.004413	3.445763	-0.310580	6.121752	0.170427	0.067439	-0.028649	0.999381	0.017225	-0.001553	0.030602	
33735	    0	18.124956	8.768180	-3.789146	3.271363	-0.220342	6.024588	0.178528	0.093689	-0.036194	0.999412	0.016354	-0.001101	0.030117	
33736	    0	18.655329	11.687536	-4.572311	2.682574	0.002862	5.827186	0.183031	0.122842	-0.044105	0.999485	0.013411	0.000014	0.029131	
33737	    0	18.366978	12.267005	-6.242960	2.132158	0.151084	5.548150	0.180115	0.128357	-0.061218	0.999557	0.010659	0.000755	0.027737	
33738	    0	18.181227	13.659894	-8.739966	1.706711	0.130669	5.098767	0.178183	0.141912	-0.086321	0.999638	0.008533	0.000653	0.025491	
33739	    0	17.008993	17.028111	-10.442386	1.094919	-0.024989	4.578059	0.166138	0.174683	-0.103455	0.999722	0.005474	-0.000125	0.022888	
33740	    0	14.698789	20.140511	-10.147444	0.399426	-0.250452	3.992159	0.143053	0.204489	-0.100887	0.999798	0.001997	-0.001252	0.019959	
33741	    0	13.125361	22.055267	-7.575993	-0.218020	-0.399036	3.296814	0.127747	0.222595	-0.075745	0.999861	-0.001090	-0.001995	0.016483	
33742	    0	12.364555	23.103429	-4.255437	-0.674266	-0.373278	2.442236	0.120893	0.232377	-0.043109	0.999918	-0.003371	-0.001866	0.012211	
33743	    0	11.722546	24.143649	-2.103685	-0.864422	-0.189784	1.561758	0.115356	0.242249	-0.021973	0.999959	-0.004322	-0.000949	0.007809	
33744	    0	9.246331	22.599035	-2.102062	-0.706103	-0.105477	0.635722	0.091756	0.226207	-0.021770	0.999989	-0.003531	-0.000527	0.003179	
33745	    0	7.435596	21.641274	-2.445514	-0.427247	-0.203514	-0.301361	0.074707	0.216248	-0.024841	0.999995	-0.002136	-0.001018	-0.001507	
33746	    0	7.195810	20.435901	-1.222606	-0.214196	-0.286295	-1.091582	0.073090	0.203949	-0.012341	0.999983	-0.001071	-0.001431	-0.005458	
33747	    0	7.693410	16.650902	0.489161	-0.003052	-0.297360	-1.737236	0.078369	0.165833	0.005005	0.999961	-0.000015	-0.001487	-0.008686	
33748	    0	9.587740	11.660287	2.520216	0.309760	-0.304610	-2.255299	0.097145	0.115473	0.025529	0.999933	0.001549	-0.001523	-0.011276	
33749	    0	8.975958	10.881142	3.030926	0.780513	-0.472847	-2.665799	0.091125	0.107483	0.030945	0.999900	0.003902	-0.002364	-0.013329	
33750	    0	6.399925	10.087314	-1.421198	1.546172	-0.613814	-2.974654	0.065533	0.100011	-0.013237	0.999854	0.007730	-0.003069	-0.014873	
33751	    0	18.838335	19.298421	-13.014341	2.108959	-0.716276	-4.148485	0.192810	0.190369	-0.127441	0.999722	0.010544	-0.003581	-0.020741	
33752	    0	40.630098	11.789428	-0.455887	1.192791	-0.394100	-4.865586	0.409016	0.107986	-0.003091	0.999684	0.005963	-0.001970	-0.024325	
33753	    0	24.776130	2.862696	0.461885	0.856861	-1.110752	-4.507865	0.248291	0.023010	0.006104	0.999721	0.004284	-0.005553	-0.022537	
33754	    0	22.354714	-4.287678	-2.740582	0.455708	-1.302267	-4.505956	0.222679	-0.047840	-0.026059	0.999722	0.002278	-0.006511	-0.022528	
33755	    0	12.399133	1.080109	-0.269646	0.296811	-1.667751	-4.426226	0.124207	0.008057	-0.001648	0.999719	0.001484	-0.008338	-0.022129	
33756	    0	4.047403	13.393602	-4.145094	0.354991	-1.708382	-4.422414	0.043774	0.133065	-0.040850	0.999717	0.001775	-0.008541	-0.022110	
33757	    0	8.484500	13.512446	-6.365850	-0.213449	-1.168152	-4.178948	0.088013	0.133240	-0.063293	0.999763	-0.001067	-0.005840	-0.020893	
33758	    0	5.914089	10.067560	-6.111688	-0.405144	-0.988827	-3.580302	0.061231	0.099468	-0.061020	0.999825	-0.002026	-0.004944	-0.017900	
33759	    0	3.014739	5.245009	-5.780914	-0.410477	-0.751334	-2.932090	0.031128	0.051880	-0.057800	0.999883	-0.002052	-0.003757	-0.014660	
33760	    0	9.180836	7.098236	-3.355001	-0.470175	-0.449003	-2.553441	0.092779	0.069723	-0.033507	0.999913	-0.002351	-0.002245	-0.012767	
33761	    0	12.607200	5.932998	-4.107970	-0.433931	-0.301367	-2.180527	0.126770	0.057861	-0.041016	0.999937	-0.002170	-0.001507	-0.010902	
33762	    0	12.871323	4.286697	-5.081353	-0.278668	-0.182155	-1.916153	0.129162	0.041560	-0.050755	0.999952	-0.001393	-0.000911	-0.009581	
33763	    0	16.857331	4.883334	-6.141462	-0.399595	-0.056458	-1.740288	0.169006	0.047241	-0.061462	0.999960	-0.001998	-0.000282	-0.008701	
33764	    0	18.698012	2.729667	-5.958377	-0.741586	0.023461	-1.517505	0.187172	0.025656	-0.059703	0.999964	-0.003708	0.000117	-0.007587	
33765	    0	19.134686	1.254479	-4.201946	-0.941479	0.106241	-1.421373	0.191406	0.010986	-0.042175	0.999963	-0.004707	0.000531	-0.007107	
33766	    0	21.464306	0.804288	-1.901287	-1.127449	0.193217	-1.422711	0.214674	0.006408	-0.019259	0.999958	-0.005637	0.000966	-0.007113	
33767	    0	21.471721	1.247316	-1.381108	-1.357101	0.253300	-1.466394	0.214783	0.010803	-0.014160	0.999949	-0.006785	0.001266	-0.007332	
33768	    0	20.863995	1.151247	-0.850260	-1.636158	0.338943	-1.476318	0.208702	0.009900	-0.008942	0.999937	-0.008181	0.001695	-0.007381	
33769	    0	19.824757	0.130379	-0.422562	-1.911781	0.351723	-1.395450	0.198242	-0.000122	-0.004578	0.999928	-0.009559	0.001759	-0.006977	
33770	    0	18.827853	0.537222	-0.923013	-2.234522	0.342379	-1.304854	0.188292	0.004038	-0.009603	0.999914	-0.011172	0.001712	-0.006524	
33771	    0	18.266650	-0.429224	-1.227983	-2.584735	0.326549	-1.139107	0.182617	-0.005493	-0.012512	0.999899	-0.012923	0.001633	-0.005695	
33772	    0	16.433459	-2.973703	-1.407403	-2.901764	0.323881	-0.969925	0.164165	-0.030736	-0.013899	0.999881	-0.014508	0.001619	-0.004849	
33773	    0	13.893527	-4.614971	-1.208442	-3.275456	0.397701	-0.767554	0.138733	-0.046875	-0.011597	0.999856	-0.016376	0.001988	-0.003838	
33774	    0	11.897398	-5.630261	-1.328144	-3.409751	0.553159	-0.578719	0.118774	-0.056866	-0.012644	0.999846	-0.017048	0.002766	-0.002893	
33775	    0	10.911258	-6.762311	-1.326293	-3.226431	0.746190	-0.524164	0.108887	-0.068115	-0.012573	0.999859	-0.016131	0.003731	-0.002621	
33776	    0	10.506287	-8.046997	-1.577484	-2.826988	0.879321	-0.532933	0.104780	-0.080966	-0.015094	0.999887	-0.014134	0.004396	-0.002665	
33777	    0	9.575888	-6.730200	-2.535059	-2.253784	0.914980	-0.726338	0.095398	-0.067932	-0.025024	0.999919	-0.011269	0.004575	-0.003632	
33778	    0	9.052499	-3.426687	-1.603021	-1.648746	0.897617	-1.178766	0.090248	-0.034932	-0.016150	0.999938	-0.008244	0.004488	-0.005894	
33779	    0	8.228437	-3.113232	-3.216879	-1.235223	0.766960	-1.586945	0.081909	-0.031982	-0.032288	0.999942	-0.006176	0.003835	-0.007935	
33780	    0	8.880512	-3.703586	-3.941798	-0.897045	0.527584	-1.994938	0.088325	-0.038095	-0.039482	0.999936	-0.004485	0.002638	-0.009974	
33781	    0	10.098798	-3.310241	-3.351820	-0.777265	0.363932	-2.365938	0.100525	-0.034424	-0.033569	0.999920	-0.003886	0.001820	-0.011829	
33782	    0	10.308028	-3.349432	-2.595182	-0.820950	0.317393	-2.684110	0.102576	-0.034980	-0.025973	0.999900	-0.004105	0.001587	-0.013420	
33783	    0	11.552824	-5.236159	-2.929628	-0.665881	0.417344	-2.920644	0.114685	-0.054138	-0.029358	0.999886	-0.003329	0.002087	-0.014603	
33784	    0	11.084238	-6.433574	-2.690360	-0.254260	0.392930	-3.147258	0.109758	-0.066103	-0.027037	0.999873	-0.001271	0.001965	-0.015736	
33785	    0	9.366437	-4.712035	-2.579008	0.169571	0.234233	-3.321992	0.092834	-0.048645	-0.025940	0.999861	0.000848	0.001171	-0.016609	
33786	    0	7.637870	-1.298903	-2.507852	0.210772	0.087551	-3.370255	0.076135	-0.014247	-0.025126	0.999857	0.001054	0.000438	-0.016850	
33787	    0	3.462393	-1.209643	-0.784774	-0.002098	0.150305	-3.118260	0.034424	-0.012634	-0.007874	0.999878	-0.000010	0.000751	-0.015591	
33788	    0	16.686492	-2.375347	-2.746167	0.436035	-0.139051	-2.853874	0.166523	-0.026072	-0.027401	0.999895	0.002180	-0.000695	-0.014269	
33789	    0	10.280527	-9.371321	-2.529299	0.544180	-0.431835	-2.359068	0.101746	-0.094849	-0.025330	0.999924	0.002721	-0.002159	-0.011795	
33790	    0	6.777047	-7.222275	-3.380036	0.223165	-0.542463	-2.311952	0.067021	-0.072963	-0.033699	0.999928	0.001116	-0.002712	-0.011559	
33791	    0	6.547235	-4.966109	-3.991486	0.067331	-0.607315	-2.355252	0.065002	-0.050415	-0.039734	0.999926	0.000337	-0.003036	-0.011776	
33792	    0	8.239088	-3.489934	-5.223171	-0.420961	-0.562298	-2.137420	0.082157	-0.035888	-0.051926	0.999936	-0.002105	-0.002811	-0.010687	
33793	    0	9.579638	-4.287638	-4.815085	-0.735487	-0.546084	-1.867709	0.095520	-0.043945	-0.047729	0.999946	-0.003677	-0.002730	-0.009338	
33794	    0	9.963603	-5.239031	-3.466163	-0.938431	-0.539789	-1.682691	0.099282	-0.053388	-0.034144	0.999949	-0.004692	-0.002699	-0.008413	
33795	    0	10.737512	-6.506491	-2.481326	-0.964178	-0.382238	-1.486989	0.106934	-0.065979	-0.024292	0.999958	-0.004821	-0.001911	-0.007435	
33796	    0	13.147494	-7.164280	-2.796502	-0.345805	-0.215913	-1.241121	0.131057	-0.072505	-0.027699	0.999978	-0.001729	-0.001080	-0.006206	
33797	    0	15.734473	-6.721482	-3.862013	0.540164	-0.135613	-0.968175	0.157043	-0.067871	-0.038696	0.999984	0.002701	-0.000678	-0.004841	
33798	    0	15.850334	-4.855966	-4.593295	0.980573	-0.102044	-0.623897	0.158375	-0.048828	-0.046091	0.999983	0.004903	-0.000510	-0.003119	
33799	    0	13.031347	-2.113883	-3.787960	0.888255	-0.108338	-0.226594	0.130310	-0.021118	-0.037903	0.999989	0.004441	-0.000542	-0.001133	
33800	    0	9.835834	-0.510554	-2.789696	0.531960	-0.028992	0.251580	0.098369	-0.004908	-0.027896	0.999995	0.002660	-0.000145	0.001258	
33801	    0	8.263303	-0.676864	-2.312251	0.238992	0.152588	0.804141	0.082642	-0.006409	-0.023193	0.999990	0.001195	0.000763	0.004021	
33802	    0	7.815624	-1.043477	-1.934258	0.026894	0.271799	1.380550	0.078199	-0.009892	-0.019450	0.999975	0.000134	0.001359	0.006903	
33803	    0	7.251738	-0.954211	-1.940769	0.100137	0.328069	1.880674	0.072571	-0.008850	-0.019531	0.999954	0.000501	0.001640	0.009403	
33804	    0	6.554276	0.308752	-2.233639	0.247007	0.312431	2.316719	0.065466	0.003874	-0.022434	0.999930	0.001235	0.001562	0.011583	
33805	    0	6.317232	1.439937	-2.477592	0.343334	0.289354	2.786347	0.062927	0.015320	-0.024841	0.999900	0.001717	0.001447	0.013931	
33806	    0	6.601236	2.035519	-2.327324	0.337616	0.268567	3.291281	0.065634	0.021477	-0.023326	0.999862	0.001688	0.001343	0.016456	
33807	    0	7.436075	1.517313	-1.604675	0.280779	0.240531	3.792038	0.074036	0.016602	-0.016113	0.999818	0.001404	0.001203	0.018959	
33808	    0	8.281206	0.593023	-1.008563	0.284217	0.163854	4.263058	0.082652	0.007708	-0.010143	0.999771	0.001421	0.000819	0.021314	
33809	    0	8.653764	0.603723	-0.658704	0.355562	0.041393	4.645959	0.086365	0.008057	-0.006592	0.999728	0.001778	0.000207	0.023228	
33810	    0	8.997037	1.299889	-0.560289	0.448846	-0.114644	4.974883	0.089613	0.015244	-0.005519	0.999687	0.002244	-0.000573	0.024872	
33811	    0	10.213793	1.316247	-0.386679	0.501501	-0.208307	5.294662	0.101746	0.015869	-0.003723	0.999645	0.002507	-0.001041	0.026470	
33812	    0	11.618591	0.686664	0.220576	0.635801	-0.248369	5.525921	0.115934	0.010065	0.002378	0.999612	0.003179	-0.001242	0.027626	
33813	    0	13.044422	0.192905	0.537709	1.038697	-0.330399	5.699194	0.130310	0.005615	0.005615	0.999578	0.005193	-0.001652	0.028492	
33814	    0	14.216625	0.774951	0.489053	1.575137	-0.443907	5.811429	0.141850	0.011834	0.005288	0.999544	0.007874	-0.002219	0.029053	
33815	    0	15.158653	1.867417	0.149494	2.130672	-0.543303	5.925211	0.150940	0.023132	0.002136	0.999500	0.010652	-0.002716	0.029621	
33816	    0	15.842102	3.695703	-0.369455	2.501935	-0.559335	6.029826	0.157219	0.041748	-0.002751	0.999463	0.012507	-0.002796	0.030144	
33817	    0	16.114082	4.363360	-0.969242	2.726493	-0.480551	6.102368	0.159729	0.048645	-0.008667	0.999438	0.013630	-0.002402	0.030506	
33818	    0	16.912098	5.501372	-1.901984	2.875298	-0.395659	6.067848	0.167379	0.060372	-0.017845	0.999434	0.014374	-0.001978	0.030334	
33819	    0	17.304070	7.381329	-3.030423	2.892260	-0.294549	5.954306	0.170776	0.079346	-0.028931	0.999451	0.014459	-0.001472	0.029766	
33820	    0	17.696024	9.856363	-4.313811	2.701840	-0.193820	5.807344	0.174029	0.104215	-0.041586	0.999486	0.013507	-0.000969	0.029032	
33821	    0	17.624340	12.155826	-5.488722	2.285356	-0.057802	5.635939	0.172729	0.127075	-0.053406	0.999537	0.011425	-0.000289	0.028175	
33822	    0	17.529027	12.673760	-6.946055	1.845035	0.053413	5.367618	0.171776	0.132013	-0.068305	0.999597	0.009224	0.000267	0.026834	
33823	    0	17.836660	15.053468	-8.466436	1.357609	-0.002289	4.949732	0.174561	0.155457	-0.083618	0.999670	0.006787	-0.000011	0.024746	
33824	    0	17.071221	18.332698	-9.293938	0.654847	-0.143445	4.420649	0.166667	0.187344	-0.092210	0.999749	0.003274	-0.000717	0.022101	
33825	    0	14.833166	20.751756	-8.352476	-0.081640	-0.324078	3.817983	0.144470	0.210266	-0.083374	0.999816	-0.000408	-0.001620	0.019089	
33826	    0	13.023932	22.497236	-5.763854	-0.616290	-0.411432	3.053600	0.126905	0.226748	-0.058072	0.999876	-0.003081	-0.002057	0.015267	
33827	    0	12.151783	23.757068	-2.914355	-0.964189	-0.337991	2.241573	0.118896	0.238770	-0.030090	0.999924	-0.004821	-0.001690	0.011208	
33828	    0	11.288456	22.955222	-1.409721	-1.049246	-0.138857	1.410312	0.111273	0.230263	-0.015226	0.999961	-0.005246	-0.000694	0.007051	
33829	    0	9.048179	20.951030	-1.346706	-0.769046	-0.115014	0.441743	0.090027	0.209656	-0.014221	0.999990	-0.003845	-0.000575	0.002209	
33830	    0	7.640207	21.072983	-1.313629	-0.407220	-0.213814	-0.461579	0.076902	0.210526	-0.013483	0.999994	-0.002036	-0.001069	-0.002308	
33831	    0	7.305226	19.423090	-0.032533	-0.211336	-0.279047	-1.202400	0.074219	0.193787	-0.000427	0.999980	-0.001057	-0.001395	-0.006012	
33832	    0	7.808160	14.825052	1.973953	0.035668	-0.241474	-1.819445	0.079402	0.147529	0.019861	0.999957	0.000178	-0.001207	-0.009097	
33833	    0	9.905326	10.133103	3.501330	0.485432	-0.286872	-2.300316	0.100159	0.100098	0.035400	0.999929	0.002427	-0.001434	-0.011501	
33834	    0	7.493653	10.428680	3.075494	1.017605	-0.437370	-2.634710	0.076232	0.103129	0.031447	0.999897	0.005088	-0.002187	-0.013173	
33835	    0	6.110370	10.243330	-4.645404	1.735010	-0.704800	-2.897788	0.062744	0.101929	-0.045349	0.999850	0.008675	-0.003524	-0.014488	
33836	    0	20.624548	16.795214	-14.661570	2.155694	-0.745079	-4.119109	0.210207	0.165212	-0.144047	0.999722	0.010777	-0.003725	-0.020594	
33837	    0	40.447305	11.954548	0.460440	1.108854	-0.369300	-4.781061	0.407166	0.109802	0.005981	0.999697	0.005544	-0.001846	-0.023903	
33838	    0	23.906803	2.307142	-0.531353	0.717224	-1.028530	-4.335199	0.239516	0.017899	-0.004012	0.999745	0.003586	-0.005142	-0.021674	
33839	    0	22.219037	-3.297322	-2.106695	0.289943	-1.157292	-4.472750	0.221497	-0.037903	-0.019836	0.999732	0.001450	-0.005786	-0.022362	
33840	    0	11.651515	2.049235	0.499640	0.194376	-1.450093	-4.335400	0.116882	0.017956	0.005861	0.999738	0.000972	-0.007250	-0.021675	
33841	    0	5.619107	12.343572	-2.334515	0.192278	-1.377798	-4.357527	0.059021	0.122192	-0.022827	0.999738	0.000961	-0.006888	-0.021786	
33842	    0	8.494792	11.288582	-6.073009	-0.110062	-1.008873	-4.132773	0.087561	0.111061	-0.060354	0.999773	-0.000550	-0.005044	-0.020662	
33843	    0	5.619467	10.200908	-6.444570	-0.263038	-0.860645	-3.588309	0.058289	0.100891	-0.064331	0.999828	-0.001315	-0.004303	-0.017941	
33844	    0	3.477157	7.252922	-4.946180	-0.435845	-0.596641	-2.886879	0.035960	0.071908	-0.049513	0.999888	-0.002179	-0.002983	-0.014434	
33845	    0	8.975576	7.560298	-3.087917	-0.411998	-0.330933	-2.381956	0.090698	0.074463	-0.030884	0.999925	-0.002060	-0.001655	-0.011909	
33846	    0	12.259481	6.464847	-4.367111	-0.496873	-0.151255	-1.990353	0.123262	0.063315	-0.043736	0.999947	-0.002484	-0.000756	-0.009952	
33847	    0	13.414136	3.736645	-5.556325	-0.385289	-0.045586	-1.676962	0.134460	0.036133	-0.055603	0.999963	-0.001926	-0.000228	-0.008385	
33848	    0	17.313878	4.235786	-5.663906	-0.431638	0.027466	-1.525132	0.173447	0.040914	-0.056752	0.999969	-0.002158	0.000137	-0.007626	
33849	    0	18.050693	2.995075	-5.275436	-0.778969	0.123025	-1.306928	0.180664	0.028564	-0.052979	0.999970	-0.003895	0.000615	-0.006535	
33850	    0	18.704275	1.314949	-4.329420	-1.030551	0.296214	-1.182950	0.187051	0.011819	-0.043634	0.999968	-0.005153	0.001481	-0.005915	
33851	    0	20.848907	0.066771	-2.694369	-1.138129	0.385289	-1.194777	0.208435	-0.000732	-0.027344	0.999964	-0.005691	0.001926	-0.005974	
33852	    0	21.223689	-0.065906	-2.378111	-1.339551	0.450522	-1.233882	0.212173	-0.002130	-0.024248	0.999955	-0.006698	0.002253	-0.006169	
33853	    0	20.519824	-0.150180	-1.670630	-1.592856	0.511942	-1.259636	0.205139	-0.002930	-0.017212	0.999945	-0.007964	0.002560	-0.006298	
33854	    0	19.984380	-0.367872	-1.075459	-1.906248	0.515377	-1.266699	0.199786	-0.005050	-0.011226	0.999930	-0.009531	0.002577	-0.006333	
33855	    0	19.121100	-0.405731	-0.867228	-2.269618	0.435651	-1.204715	0.191162	-0.005310	-0.009033	0.999914	-0.011348	0.002178	-0.006023	
33856	    0	18.755138	-1.162201	-0.888863	-2.700903	0.387778	-1.115649	0.187465	-0.012790	-0.009085	0.999891	-0.013504	0.001939	-0.005578	
33857	    0	17.709606	-3.833105	-0.921508	-3.110645	0.411434	-1.012467	0.176880	-0.039368	-0.008972	0.999864	-0.015553	0.002057	-0.005062	
33858	    0	15.201798	-7.444014	-0.844716	-3.405559	0.491359	-0.860450	0.151676	-0.075227	-0.007544	0.999843	-0.017027	0.002457	-0.004302	
33859	    0	13.021515	-8.929773	-1.334664	-3.376944	0.579292	-0.795024	0.129822	-0.090027	-0.012207	0.999845	-0.016884	0.002896	-0.003975	
33860	    0	11.574196	-8.272537	-1.824836	-3.177792	0.675805	-0.856440	0.115326	-0.083500	-0.017316	0.999859	-0.015888	0.003379	-0.004282	
33861	    0	10.436215	-9.142208	-2.523083	-2.839010	0.705938	-0.988046	0.103821	-0.092285	-0.024292	0.999881	-0.014194	0.003530	-0.004940	
33862	    0	9.314704	-6.461761	-2.974089	-2.257608	0.666067	-1.393552	0.092594	-0.065597	-0.029313	0.999906	-0.011288	0.003330	-0.006968	
33863	    0	8.584880	-3.999358	-2.340835	-1.744131	0.612086	-1.913509	0.085388	-0.041016	-0.023315	0.999911	-0.008720	0.003060	-0.009567	
33864	    0	8.604417	-4.697311	-3.568186	-1.348158	0.467506	-2.391702	0.085389	-0.048237	-0.035560	0.999903	-0.006741	0.002337	-0.011958	
33865	    0	10.489789	-5.987612	-2.619279	-1.071779	0.375380	-2.773389	0.104004	-0.061462	-0.026062	0.999887	-0.005359	0.001877	-0.013866	
33866	    0	11.928924	-6.328706	-2.098217	-1.009985	0.423640	-3.029382	0.118267	-0.065189	-0.020907	0.999870	-0.005050	0.002118	-0.015146	
33867	    0	12.813964	-8.081584	-3.413256	-0.680384	0.514246	-3.264010	0.126709	-0.083008	-0.034180	0.999857	-0.003402	0.002571	-0.016319	
33868	    0	12.870699	-6.757806	-3.452084	-0.218212	0.482394	-3.517336	0.127408	-0.069864	-0.034754	0.999842	-0.001091	0.002412	-0.017586	
33869	    0	10.429341	-3.813816	-2.928249	0.031282	0.368711	-3.672236	0.103516	-0.040039	-0.029480	0.999829	0.000156	0.001843	-0.018360	
33870	    0	9.081792	0.435542	-3.209351	-0.045970	0.228323	-3.731754	0.090841	0.002653	-0.032198	0.999825	-0.000230	0.001142	-0.018658	
33871	    0	6.185777	1.115792	-4.033151	-0.498036	0.154885	-3.578381	0.062012	0.009949	-0.040405	0.999836	-0.002490	0.000774	-0.017891	
33872	    0	15.151716	1.639751	-3.422485	-0.638227	-0.020791	-3.218414	0.151757	0.013847	-0.034256	0.999865	-0.003191	-0.000104	-0.016091	
33873	    0	13.630096	-8.262402	-3.359868	-0.700974	-0.239571	-2.735229	0.135193	-0.084595	-0.033142	0.999899	-0.003505	-0.001198	-0.013676	
33874	    0	7.884732	-9.950765	-2.164139	-0.601976	-0.304040	-2.513384	0.077621	-0.100553	-0.021221	0.999915	-0.003010	-0.001520	-0.012567	
33875	    0	7.372170	-6.956804	-2.333704	-0.606554	-0.311097	-2.510905	0.072876	-0.070557	-0.023010	0.999915	-0.003033	-0.001555	-0.012554	
33876	    0	7.737552	-5.211344	-3.234973	-0.819799	-0.347337	-2.303563	0.076823	-0.053132	-0.032000	0.999924	-0.004099	-0.001737	-0.011518	
33877	    0	8.700922	-5.630864	-3.372556	-1.095415	-0.344094	-2.034043	0.086487	-0.057373	-0.033264	0.999931	-0.005477	-0.001720	-0.010170	
33878	    0	8.741736	-6.022052	-2.679785	-1.097509	-0.358207	-1.760515	0.086929	-0.061132	-0.026308	0.999944	-0.005487	-0.001791	-0.008802	
33879	    0	9.961746	-6.753191	-2.706532	-0.563818	-0.282100	-1.390852	0.099182	-0.068298	-0.026733	0.999970	-0.002819	-0.001410	-0.006954	
33880	    0	12.281312	-7.698502	-3.567433	0.263215	-0.224115	-1.037221	0.122452	-0.077574	-0.035639	0.999985	0.001316	-0.001121	-0.005186	
33881	    0	13.387327	-7.317800	-4.170540	0.839237	-0.122643	-0.632480	0.133667	-0.073425	-0.041931	0.999986	0.004196	-0.000613	-0.003162	
33882	    0	11.944626	-4.973438	-3.551447	1.092535	-0.078583	-0.196458	0.119411	-0.049657	-0.035739	0.999984	0.005463	-0.000393	-0.000982	
33883	    0	9.102901	-1.723620	-2.643822	1.078039	-0.089837	0.276186	0.091064	-0.016968	-0.026489	0.999984	0.005390	-0.000449	0.001381	
33884	    0	7.466836	-0.298241	-2.267492	0.925451	-0.004005	0.777059	0.074679	-0.002587	-0.022686	0.999981	0.004627	-0.000020	0.003885	
33885	    0	6.958822	-0.163249	-2.271123	0.737960	0.144197	1.293194	0.069580	-0.001099	-0.022766	0.999971	0.003690	0.000721	0.006466	
33886	    0	6.637765	-0.840637	-2.781874	0.606928	0.257496	1.815252	0.066414	-0.007719	-0.027928	0.999953	0.003035	0.001287	0.009076	
33887	    0	6.183607	-0.933486	-2.684228	0.605979	0.350961	2.289636	0.061890	-0.008545	-0.026978	0.999928	0.003030	0.001755	0.011448	
33888	    0	5.793702	-0.316434	-2.652010	0.734354	0.394262	2.711959	0.057920	-0.002281	-0.026644	0.999899	0.003672	0.001971	0.013559	
33889	    0	5.951098	1.140158	-2.709104	0.844040	0.406665	3.151082	0.059265	0.012451	-0.027161	0.999865	0.004220	0.002033	0.015755	
33890	    0	6.494551	2.166333	-2.863634	0.723500	0.422121	3.649162	0.064474	0.022946	-0.028691	0.999825	0.003617	0.002110	0.018245	
33891	    0	7.248014	1.532995	-2.668664	0.554126	0.424226	4.161380	0.072083	0.016907	-0.026794	0.999777	0.002770	0.002121	0.020805	
33892	    0	7.939370	0.709081	-2.396029	0.474019	0.347932	4.604562	0.079160	0.008972	-0.024078	0.999730	0.002370	0.001740	0.023021	
33893	    0	8.449010	0.804224	-2.165127	0.469257	0.235964	4.980226	0.084229	0.010193	-0.021729	0.999686	0.002346	0.001180	0.024899	
33894	    0	9.320382	1.136517	-2.254779	0.556631	0.112929	5.329770	0.092843	0.013906	-0.022564	0.999640	0.002783	0.000565	0.026646	
33895	    0	10.621610	0.926909	-2.096722	0.670714	0.010873	5.640407	0.105896	0.012329	-0.020935	0.999597	0.003353	0.000054	0.028198	
33896	    0	12.244955	0.176993	-1.623888	0.908414	-0.095954	5.902023	0.122333	0.005455	-0.016161	0.999554	0.004541	-0.000480	0.029506	
33897	    0	13.876490	0.453032	-1.112484	1.249136	-0.221098	6.132747	0.138550	0.008850	-0.010925	0.999509	0.006245	-0.001105	0.030659	
33898	    0	14.812917	1.282833	-0.856804	1.681627	-0.356547	6.303573	0.147640	0.017557	-0.008170	0.999466	0.008407	-0.001782	0.031512	
33899	    0	15.633414	1.891205	-0.847926	2.121376	-0.473685	6.400755	0.155640	0.023987	-0.007874	0.999429	0.010605	-0.002368	0.031998	
33900	    0	16.607437	2.975003	-1.227338	2.489020	-0.548283	6.473130	0.165025	0.035249	-0.011404	0.999394	0.012443	-0.002741	0.032359	
33901	    0	17.344137	4.005785	-1.743795	2.730367	-0.556871	6.505416	0.172058	0.045898	-0.016357	0.999373	0.013649	-0.002784	0.032520	
33902	    0	18.279537	5.577124	-2.898044	2.850367	-0.534742	6.474708	0.180929	0.062050	-0.027640	0.999371	0.014249	-0.002673	0.032367	
33903	    0	19.198713	7.413296	-4.041550	2.786819	-0.463770	6.373361	0.189575	0.080750	-0.038879	0.999393	0.013931	-0.002318	0.031860	
33904	    0	19.750476	9.576401	-5.462055	2.562811	-0.461092	6.167992	0.194536	0.102480	-0.052885	0.999439	0.012812	-0.002305	0.030834	
33905	    0	20.285995	14.241836	-6.046731	2.012956	-0.335556	5.847339	0.198669	0.148865	-0.058655	0.999520	0.010063	-0.001678	0.029232	
33906	    0	19.400868	15.515910	-7.167260	1.511008	-0.277174	5.377517	0.189833	0.160835	-0.070207	0.999609	0.007554	-0.001386	0.026884	
33907	    0	18.068055	16.780671	-8.373984	1.075852	-0.337825	4.753586	0.176758	0.172485	-0.082520	0.999701	0.005379	-0.001689	0.023766	
33908	    0	16.461952	20.119123	-8.066437	0.490795	-0.449784	4.007806	0.160722	0.204635	-0.079801	0.999793	0.002454	-0.002249	0.020038	
33909	    0	14.419929	24.734063	-5.702493	-0.301375	-0.469039	3.274687	0.140259	0.249573	-0.057068	0.999862	-0.001507	-0.002345	0.016373	
33910	    0	12.759665	26.932675	-3.296288	-0.967054	-0.263603	2.467610	0.124307	0.270711	-0.034104	0.999911	-0.004835	-0.001318	0.012338	
33911	    0	10.282419	24.665416	-2.871767	-1.121345	-0.144197	1.384754	0.101135	0.247192	-0.030029	0.999960	-0.005607	-0.000721	0.006924	
33912	    0	8.751472	24.292501	-2.719670	-1.054769	-0.174523	0.188828	0.087310	0.242860	-0.028401	0.999985	-0.005274	-0.000873	0.000944	
33913	    0	7.741045	23.903138	-1.452086	-0.993163	-0.209047	-0.789648	0.078369	0.238647	-0.015625	0.999979	-0.004966	-0.001045	-0.003948	
33914	    0	7.747393	20.164352	-0.048124	-0.831424	-0.235179	-1.552984	0.079038	0.201030	-0.001225	0.999960	-0.004157	-0.001176	-0.007765	
33915	    0	8.627699	15.672828	1.779986	-0.472841	-0.197605	-2.167556	0.087952	0.155823	0.017517	0.999937	-0.002364	-0.000988	-0.010838	
33916	    0	10.455134	9.266434	3.556166	0.132374	-0.219542	-2.632599	0.105720	0.091254	0.035738	0.999912	0.000662	-0.001098	-0.013163	
33917	    0	10.374721	8.568651	4.389689	0.821911	-0.479146	-3.025182	0.104919	0.083923	0.044495	0.999874	0.004109	-0.002396	-0.015125	
33918	    0	6.191195	8.251025	-1.265950	1.809032	-0.648154	-3.144633	0.063239	0.081632	-0.011715	0.999829	0.009045	-0.003241	-0.015722	
33919	    0	22.279612	7.546672	-8.563082	2.409596	-0.411836	-4.152318	0.224487	0.071838	-0.084290	0.999709	0.012047	-0.002059	-0.020760	
33920	    0	42.640025	7.205700	4.562545	1.875525	-0.319900	-4.954347	0.427929	0.061032	0.046916	0.999647	0.009377	-0.001599	-0.024769	
33921	    0	22.651877	6.774606	-0.655988	1.601577	-1.182489	-4.594901	0.228027	0.062561	-0.004700	0.999686	0.008007	-0.005912	-0.022972	
33922	    0	24.692995	0.460731	-2.264719	0.717424	-1.177521	-4.642177	0.247077	-0.001049	-0.021190	0.999706	0.003587	-0.005887	-0.023209	
33923	    0	12.001203	1.975249	-0.116783	0.377119	-1.580963	-4.530009	0.120422	0.017029	-0.000183	0.999710	0.001885	-0.007904	-0.022648	
33924	    0	4.459626	13.331119	-3.811165	0.242256	-1.417101	-4.505959	0.047853	0.132303	-0.037620	0.999720	0.001211	-0.007085	-0.022528	
33925	    0	6.955773	15.224221	-6.148423	-0.270863	-0.971102	-4.075159	0.072937	0.150696	-0.061340	0.999780	-0.001354	-0.004855	-0.020374	
33926	    0	4.640097	10.718096	-6.860640	-0.511958	-0.782434	-3.354051	0.048456	0.106204	-0.068692	0.999848	-0.002560	-0.003912	-0.016769	
33927	    0	3.484798	7.667067	-4.167534	-0.723290	-0.455299	-2.639855	0.035950	0.076050	-0.041870	0.999904	-0.003616	-0.002276	-0.013199	
33928	    0	10.935957	6.608607	-2.339286	-0.638976	-0.209622	-2.194071	0.110100	0.064806	-0.023486	0.999933	-0.003195	-0.001048	-0.010970	
33929	    0	12.933127	3.963985	-3.934941	-0.450141	-0.106622	-1.790644	0.129700	0.038391	-0.039368	0.999957	-0.002251	-0.000533	-0.008953	
33930	    0	13.606947	4.099350	-6.236738	-0.249675	-0.007820	-1.580255	0.136390	0.039839	-0.062412	0.999968	-0.001248	-0.000039	-0.007901	
33931	    0	17.947510	3.593613	-6.275991	-0.363925	0.115396	-1.420606	0.179688	0.034546	-0.062927	0.999972	-0.001820	0.000577	-0.007103	
33932	    0	18.065908	1.714450	-5.522923	-0.778968	0.190546	-1.214038	0.180705	0.015832	-0.055465	0.999973	-0.003895	0.000953	-0.006070	
33933	    0	19.109559	0.235468	-4.150894	-1.014719	0.306132	-1.093303	0.191040	0.001099	-0.041809	0.999970	-0.005074	0.001531	-0.005466	
33934	    0	20.691225	0.781516	-2.051941	-1.090634	0.351337	-1.155866	0.206916	0.006506	-0.020921	0.999967	-0.005453	0.001757	-0.005779	
33935	    0	21.662529	0.479151	-1.380419	-1.438925	0.471694	-1.117723	0.216614	0.003479	-0.014343	0.999955	-0.007195	0.002358	-0.005589	
33936	    0	20.731668	-1.024225	-1.069515	-1.789509	0.495348	-1.115630	0.207228	-0.011497	-0.011109	0.999941	-0.008947	0.002477	-0.005578	
33937	    0	20.464565	-0.525317	-0.798573	-2.051594	0.488484	-1.165800	0.204590	-0.006531	-0.008423	0.999927	-0.010258	0.002442	-0.005829	
33938	    0	20.549655	-0.307586	-0.307077	-2.453118	0.469795	-1.150549	0.205466	-0.004299	-0.003506	0.999905	-0.012265	0.002349	-0.005753	
33939	    0	19.343519	-3.436104	-0.568010	-2.803910	0.441950	-1.056712	0.193237	-0.035461	-0.005615	0.999885	-0.014019	0.002210	-0.005283	
33940	    0	16.453969	-6.180574	-0.741572	-2.919506	0.433558	-0.997202	0.164213	-0.062728	-0.006861	0.999878	-0.014597	0.002168	-0.004986	
33941	    0	13.607818	-7.623350	-0.911059	-3.074020	0.544954	-0.973554	0.135681	-0.077026	-0.008301	0.999866	-0.015369	0.002725	-0.004868	
33942	    0	11.566231	-8.051619	-1.096147	-2.988372	0.663214	-0.987858	0.115228	-0.081242	-0.010134	0.999870	-0.014941	0.003316	-0.004939	
33943	    0	10.526929	-9.459262	-2.328806	-2.719792	0.774413	-1.063578	0.104675	-0.095459	-0.022400	0.999886	-0.013598	0.003872	-0.005318	
33944	    0	10.464646	-7.765948	-3.568778	-2.245974	0.840023	-1.371809	0.103960	-0.078772	-0.035245	0.999904	-0.011230	0.004200	-0.006859	
33945	    0	11.172767	-5.341476	-3.097029	-1.847136	0.855473	-1.882995	0.111084	-0.054749	-0.030945	0.999904	-0.009235	0.004277	-0.009415	
33946	    0	10.778956	-5.641598	-3.409513	-1.558930	0.768116	-2.306446	0.106997	-0.057919	-0.034060	0.999895	-0.007794	0.003840	-0.011532	
33947	    0	10.757998	-6.761256	-3.575143	-1.409776	0.592064	-2.639873	0.106567	-0.069275	-0.035583	0.999884	-0.007049	0.002960	-0.013199	
33948	    0	11.412424	-6.780223	-3.040776	-1.263102	0.491927	-2.971400	0.113024	-0.069678	-0.030251	0.999866	-0.006315	0.002460	-0.014856	
33949	    0	11.165026	-6.875518	-3.618461	-1.336741	0.531988	-3.256398	0.110413	-0.070801	-0.036011	0.999841	-0.006683	0.002660	-0.016281	
33950	    0	11.473224	-8.972630	-3.515000	-0.836609	0.559647	-3.487206	0.113045	-0.091854	-0.035087	0.999835	-0.004183	0.002798	-0.017435	
33951	    0	11.978735	-6.143473	-4.045010	-0.388168	0.437953	-3.711156	0.118530	-0.063721	-0.040588	0.999823	-0.001941	0.002190	-0.018555	
33952	    0	10.556497	-2.850608	-4.580942	-0.148592	0.282305	-3.842973	0.104926	-0.030560	-0.045936	0.999814	-0.000743	0.001411	-0.019214	
33953	    0	8.874364	-0.995293	-5.043958	-0.194371	0.106818	-3.875976	0.088501	-0.011719	-0.050476	0.999811	-0.000972	0.000534	-0.019379	
33954	    0	9.785198	-0.098955	-2.110298	-0.394844	0.096517	-3.666895	0.097801	-0.002825	-0.021146	0.999829	-0.001974	0.000483	-0.018333	
33955	    0	16.476550	-2.904422	-4.252431	-0.201997	-0.238048	-3.298338	0.164307	-0.031799	-0.042297	0.999863	-0.001010	-0.001190	-0.016491	
33956	    0	10.030697	-9.367107	-2.142418	-0.148206	-0.349820	-2.910909	0.098967	-0.095134	-0.021180	0.999892	-0.000741	-0.001749	-0.014554	
33957	    0	8.241844	-8.097903	-1.982471	-0.151830	-0.417151	-2.838995	0.081299	-0.082153	-0.019592	0.999896	-0.000759	-0.002086	-0.014194	
33958	    0	7.889042	-5.538894	-2.490827	-0.304422	-0.461211	-2.689828	0.078193	-0.056481	-0.024642	0.999906	-0.001522	-0.002306	-0.013449	
33959	    0	8.858565	-5.806491	-2.907235	-0.572220	-0.493444	-2.397219	0.087952	-0.059204	-0.028687	0.999921	-0.002861	-0.002467	-0.011986	
33960	    0	8.745850	-6.372189	-2.594641	-0.823421	-0.507748	-2.114725	0.086843	-0.064748	-0.025460	0.999932	-0.004117	-0.002539	-0.010573	
33961	    0	8.258546	-6.726330	-1.874672	-0.756848	-0.436981	-1.754026	0.082031	-0.068054	-0.018311	0.999951	-0.003784	-0.002185	-0.008770	
33962	    0	9.580674	-7.583796	-2.107710	-0.141908	-0.262072	-1.341449	0.095323	-0.076493	-0.020898	0.999976	-0.000710	-0.001310	-0.006707	
33963	    0	11.277014	-7.808260	-2.777785	0.759892	-0.107384	-0.914770	0.112427	-0.078491	-0.028015	0.999982	0.003799	-0.000537	-0.004574	
33964	    0	11.288760	-6.875216	-3.087642	1.495949	0.007248	-0.485425	0.112720	-0.068792	-0.031395	0.999969	0.007480	0.000036	-0.002427	
33965	    0	9.657248	-4.242591	-2.365254	1.693174	0.077058	-0.026703	0.096558	-0.042236	-0.024048	0.999964	0.008466	0.000385	-0.000134	
33966	    0	7.384764	-1.187199	-1.608897	1.595135	0.129129	0.525099	0.073868	-0.011549	-0.016230	0.999964	0.007976	0.000646	0.002625	
33967	    0	6.129871	-0.013654	-1.493993	1.298730	0.247195	1.123824	0.061279	0.000305	-0.015015	0.999962	0.006494	0.001236	0.005619	
33968	    0	5.496904	-0.294399	-1.802634	0.940720	0.407226	1.741057	0.054955	-0.002380	-0.018150	0.999949	0.004704	0.002036	0.008705	
33969	    0	5.219812	-0.928146	-2.021556	0.635545	0.544181	2.339233	0.052246	-0.008606	-0.020386	0.999923	0.003178	0.002721	0.011696	
33970	    0	4.851814	-0.991799	-2.360831	0.539227	0.645280	2.842626	0.048575	-0.009164	-0.023790	0.999889	0.002696	0.003226	0.014213	
33971	    0	4.889921	0.180453	-2.675489	0.546482	0.688968	3.309030	0.048767	0.002686	-0.026917	0.999853	0.002732	0.003445	0.016544	
33972	    0	5.464393	1.605347	-3.052042	0.457792	0.706336	3.793574	0.054217	0.017155	-0.030674	0.999811	0.002289	0.003531	0.018967	
33973	    0	6.148354	2.043765	-3.118015	0.192276	0.695284	4.326213	0.060913	0.021790	-0.031372	0.999759	0.000961	0.003476	0.021629	
33974	    0	6.855755	1.302804	-2.515520	-0.069434	0.641695	4.805463	0.068137	0.014660	-0.025379	0.999705	-0.000347	0.003208	0.024025	
33975	    0	7.448199	0.215961	-2.050424	-0.156421	0.494632	5.231315	0.074341	0.004089	-0.020691	0.999654	-0.000782	0.002473	0.026154	
33976	    0	8.672527	0.102536	-1.713430	-0.128572	0.296250	5.595367	0.086626	0.003439	-0.017264	0.999607	-0.000643	0.001481	0.027973	
33977	    0	10.433809	0.480398	-1.488171	-0.102821	0.131245	5.906010	0.104126	0.007874	-0.014954	0.999563	-0.000514	0.000656	0.029526	
33978	    0	12.310050	-0.255486	-1.016929	0.156618	-0.033002	6.135950	0.123103	0.001230	-0.010149	0.999529	0.000783	-0.000165	0.030675	
33979	    0	14.417147	-0.438185	-1.012507	0.681419	-0.250858	6.283091	0.144226	0.000183	-0.009949	0.999499	0.003407	-0.001254	0.031410	
