// Start Time: Unknown
// Update Rate: 100.0Hz
// Filter Profile: human (34.3)
// Firmware Version: 2.1.4
PacketCounter	SampleTimeFine	Acc_X	Acc_Y	Acc_Z	Gyr_X	Gyr_Y	Gyr_Z	VelInc_X	VelInc_Y	VelInc_Z	OriInc_q0	OriInc_q1	OriInc_q2	OriInc_q3	
53737	    0	28.931825	14.123926	-2.774257	2.351791	-1.812108	-5.761201	0.293457	0.133118	-0.023499	0.999475	0.011757	-0.009059	-0.028801	
53738	    0	27.423639	9.287730	5.760757	0.231018	-1.936467	-5.962396	0.276265	0.084592	0.060377	0.999508	0.001155	-0.009681	-0.029807	
53739	    0	4.623523	5.509338	4.496354	-0.558359	-2.030465	-5.390920	0.047241	0.053955	0.045288	0.999580	-0.002791	-0.010151	-0.026951	
53740	    0	-3.657268	15.856734	-4.004447	0.041966	-1.653272	-4.735680	-0.032473	0.159377	-0.040291	0.999685	0.000210	-0.008265	-0.023676	
53741	    0	3.623739	12.803019	-9.161543	-0.225846	-1.398374	-3.811145	0.039307	0.127197	-0.091492	0.999793	-0.001129	-0.006991	-0.019054	
53742	    0	0.364107	3.336556	-4.956411	-0.832789	-0.903365	-3.201069	0.004396	0.033092	-0.049684	0.999852	-0.004164	-0.004517	-0.016005	
53743	    0	9.245933	4.668391	-4.704589	-0.594924	-0.659967	-2.832898	0.093262	0.045227	-0.046875	0.999889	-0.002975	-0.003300	-0.014164	
53744	    0	17.537217	4.223497	-4.669266	-0.394453	-0.612471	-2.775287	0.176077	0.039703	-0.046234	0.999897	-0.001972	-0.003062	-0.013876	
53745	    0	11.109925	5.312663	-6.685747	-0.577562	-0.530831	-2.543715	0.111938	0.051514	-0.066711	0.999911	-0.002888	-0.002654	-0.012718	
53746	    0	11.545166	5.412178	-7.220918	-0.608268	-0.352296	-2.269608	0.116181	0.052587	-0.072166	0.999929	-0.003041	-0.001761	-0.011348	
53747	    0	17.134360	3.607195	-5.526265	-0.322539	-0.379951	-2.101176	0.171814	0.034180	-0.054993	0.999941	-0.001613	-0.001900	-0.010506	
53748	    0	15.115209	5.698347	-4.274818	-0.429732	-0.299458	-1.806667	0.151722	0.055523	-0.042642	0.999955	-0.002149	-0.001497	-0.009033	
53749	    0	9.540276	4.035841	-4.851306	-0.527959	-0.071526	-1.421370	0.095703	0.039551	-0.048584	0.999970	-0.002640	-0.000358	-0.007107	
53750	    0	9.507638	5.883632	-6.518490	-0.489048	0.110246	-1.202783	0.095391	0.058104	-0.065380	0.999978	-0.002445	0.000551	-0.006014	
53751	    0	12.976676	7.985588	-7.472637	-0.576023	0.276376	-1.016241	0.130066	0.078979	-0.075134	0.999982	-0.002880	0.001382	-0.005081	
53752	    0	15.502007	4.128268	-7.364949	-0.933081	0.433162	-0.777631	0.155018	0.040335	-0.074175	0.999979	-0.004665	0.002166	-0.003888	
53753	    0	19.566953	0.500959	-4.754567	-1.230633	0.535016	-0.701911	0.195557	0.004028	-0.048096	0.999970	-0.006153	0.002675	-0.003510	
53754	    0	20.907789	2.301726	-3.188236	-1.472681	0.488096	-0.670250	0.209074	0.022079	-0.032557	0.999964	-0.007363	0.002440	-0.003351	
53755	    0	22.455652	2.401276	-1.187872	-1.860080	0.533495	-0.735487	0.224609	0.023071	-0.012695	0.999946	-0.009300	0.002667	-0.003677	
53756	    0	21.946328	-1.158595	0.603089	-2.182821	0.490772	-0.798053	0.219429	-0.012399	0.005625	0.999929	-0.010914	0.002454	-0.003990	
53757	    0	18.725811	-3.273627	1.284411	-2.385779	0.451864	-0.923183	0.187134	-0.033447	0.012817	0.999915	-0.011929	0.002259	-0.004616	
53758	    0	17.736903	-2.411684	1.044156	-2.451210	0.411046	-1.114880	0.177253	-0.024978	0.010380	0.999907	-0.012256	0.002055	-0.005574	
53759	    0	17.852067	-3.075199	0.782126	-2.630709	0.404563	-1.221510	0.178345	-0.031738	0.007874	0.999892	-0.013153	0.002023	-0.006107	
53760	    0	15.595075	-6.983008	0.787408	-2.891278	0.407999	-1.160479	0.155560	-0.070613	0.008574	0.999876	-0.014456	0.002040	-0.005802	
53761	    0	12.272403	-7.579206	0.243036	-2.961665	0.429553	-1.091813	0.122314	-0.076416	0.003296	0.999872	-0.014808	0.002148	-0.005459	
53762	    0	11.215743	-6.847708	0.225740	-2.826613	0.535033	-1.155137	0.111767	-0.069085	0.002932	0.999880	-0.014132	0.002675	-0.005775	
53763	    0	10.269184	-8.811252	-1.032835	-2.267335	0.626393	-1.376385	0.102051	-0.088928	-0.009644	0.999907	-0.011336	0.003132	-0.006882	
53764	    0	10.186566	-8.108203	-2.827809	-1.229887	0.672356	-1.914641	0.100987	-0.082225	-0.028115	0.999929	-0.006149	0.003362	-0.009573	
53765	    0	11.573974	-6.476834	-2.545866	-0.382244	0.736449	-2.548294	0.114807	-0.066284	-0.025757	0.999909	-0.001911	0.003682	-0.012741	
53766	    0	11.837418	-5.411464	-3.484285	0.129514	0.735696	-3.098810	0.117388	-0.055916	-0.035312	0.999872	0.000648	0.003678	-0.015493	
53767	    0	11.992071	-7.755697	-4.141676	0.557932	0.700419	-3.616542	0.118347	-0.079590	-0.042053	0.999826	0.002789	0.003502	-0.018082	
53768	    0	12.689959	-8.811350	-4.494321	0.891370	0.536767	-4.076686	0.124949	-0.090471	-0.045680	0.999778	0.004457	0.002684	-0.020382	
53769	    0	12.883023	-8.201477	-3.988397	0.807258	0.478594	-4.396427	0.126892	-0.084656	-0.040527	0.999747	0.004036	0.002393	-0.021980	
53770	    0	12.583868	-8.367822	-3.285176	0.676979	0.363001	-4.571179	0.123824	-0.086411	-0.033367	0.999731	0.003385	0.001815	-0.022854	
53771	    0	11.660595	-5.250674	-4.156466	0.407447	0.231382	-4.653592	0.115295	-0.055115	-0.041809	0.999726	0.002037	0.001157	-0.023266	
53772	    0	10.482769	-2.655668	-6.289135	-0.202197	0.123416	-4.593300	0.104141	-0.029017	-0.062927	0.999735	-0.001011	0.000617	-0.022964	
53773	    0	13.607847	-0.367204	-6.809952	-1.440548	0.085647	-4.201090	0.135925	-0.007019	-0.068115	0.999753	-0.007202	0.000428	-0.021004	
53774	    0	20.205596	-7.353486	-6.742283	-2.233296	0.125895	-3.669830	0.200610	-0.077972	-0.066695	0.999768	-0.011166	0.000629	-0.018348	
53775	    0	20.362587	-12.497097	-4.364724	-2.168992	0.274677	-3.372419	0.201416	-0.128845	-0.042542	0.999798	-0.010844	0.001373	-0.016861	
53776	    0	21.297224	-11.121529	-3.684756	-1.507645	0.352687	-3.126112	0.211132	-0.114800	-0.036365	0.999847	-0.007538	0.001763	-0.015630	
53777	    0	20.834199	-9.702599	-3.097734	-0.773457	0.337994	-2.787879	0.206909	-0.100037	-0.030945	0.999893	-0.003867	0.001690	-0.013939	
53778	    0	18.568897	-8.067067	-2.464478	-0.238615	0.232893	-2.433838	0.184660	-0.082952	-0.024762	0.999924	-0.001193	0.001164	-0.012169	
53779	    0	15.118627	-5.884569	-1.743193	0.149539	0.053597	-2.030980	0.150574	-0.060364	-0.017517	0.999948	0.000748	0.000268	-0.010155	
53780	    0	12.092383	-4.246410	-2.248274	0.485044	-0.020981	-1.490799	0.120605	-0.043309	-0.022574	0.999969	0.002425	-0.000105	-0.007454	
53781	    0	9.635835	-3.935821	-2.923450	0.673870	-0.020599	-0.859074	0.096191	-0.039673	-0.029358	0.999985	0.003369	-0.000103	-0.004295	
53782	    0	6.907594	-3.114776	-2.805860	0.847819	-0.016213	-0.188637	0.069049	-0.031094	-0.028185	0.999990	0.004239	-0.000081	-0.000943	
53783	    0	4.097083	-1.485681	-2.983637	1.056677	-0.032616	0.543979	0.041016	-0.014587	-0.029907	0.999982	0.005283	-0.000163	0.002720	
53784	    0	2.290511	0.183922	-3.263547	0.990498	0.007248	1.349465	0.022890	0.002155	-0.032626	0.999965	0.004952	0.000036	0.006747	
53785	    0	1.524492	1.462543	-2.861322	0.701157	0.041390	2.206470	0.015076	0.014893	-0.028564	0.999932	0.003506	0.000207	0.011032	
53786	    0	1.454939	1.468602	-2.430370	0.448054	0.008583	3.040815	0.014322	0.014959	-0.024271	0.999882	0.002240	0.000043	0.015203	
53787	    0	2.186499	0.693885	-2.161842	0.248161	-0.027468	3.853847	0.021729	0.007385	-0.021606	0.999813	0.001241	-0.000137	0.019268	
53788	    0	2.777165	0.135534	-1.986601	0.087173	-0.104532	4.554761	0.027741	0.001996	-0.019851	0.999740	0.000436	-0.000523	0.022772	
53789	    0	3.377069	-0.386555	-1.785826	-0.023654	-0.210404	5.182466	0.033875	-0.002991	-0.017822	0.999663	-0.000118	-0.001052	0.025909	
53790	    0	4.439574	-0.932288	-1.293064	-0.109306	-0.329062	5.700123	0.044659	-0.008060	-0.012853	0.999592	-0.000546	-0.001645	0.028497	
53791	    0	5.837317	-1.180969	-0.721800	-0.222623	-0.430367	6.169350	0.058716	-0.010010	-0.007080	0.999521	-0.001113	-0.002151	0.030842	
53792	    0	7.115293	-1.299835	-0.469305	-0.312290	-0.550943	6.599490	0.071543	-0.010649	-0.004478	0.999450	-0.001561	-0.002754	0.032991	
53793	    0	8.185719	-1.002101	-0.346975	-0.433249	-0.678395	7.035772	0.082153	-0.007141	-0.003174	0.999372	-0.002166	-0.003391	0.035172	
53794	    0	9.161934	-0.837892	0.393497	-0.509953	-0.788873	7.423225	0.091829	-0.004962	0.004313	0.999300	-0.002549	-0.003943	0.037107	
53795	    0	10.396595	-0.850625	1.316361	-0.392823	-0.954679	7.732063	0.104126	-0.004456	0.013672	0.999239	-0.001964	-0.004772	0.038651	
53796	    0	11.900278	-0.269201	2.338085	-0.087952	-1.109228	7.921042	0.118853	0.002028	0.024040	0.999200	-0.000440	-0.005545	0.039595	
53797	    0	13.526919	0.695099	3.223649	0.439767	-1.217991	8.081785	0.134644	0.012329	0.033081	0.999163	0.002198	-0.006088	0.040398	
53798	    0	15.341730	1.918864	3.351531	1.091893	-1.233841	8.193302	0.152254	0.025256	0.034584	0.999126	0.005458	-0.006167	0.040955	
53799	    0	17.762990	4.142731	2.365134	1.718653	-1.107928	8.219315	0.175598	0.048462	0.025024	0.999103	0.008591	-0.005538	0.041084	
53800	    0	20.575577	7.507212	0.768417	2.217760	-0.819068	8.102533	0.202457	0.083222	0.009411	0.999109	0.011086	-0.004094	0.040501	
53801	    0	23.928307	11.546697	-0.143608	2.488654	-0.450835	7.866618	0.234497	0.124756	0.000610	0.999146	0.012440	-0.002254	0.039322	
53802	    0	26.791850	16.567329	-0.980065	2.464540	-0.104549	7.413461	0.261537	0.175550	-0.007540	0.999236	0.012320	-0.000523	0.037058	
53803	    0	26.594257	20.769039	-3.918661	2.437334	0.077264	6.621399	0.258850	0.216797	-0.036682	0.999377	0.012184	0.000386	0.033100	
53804	    0	24.792670	24.387991	-9.102350	2.390266	0.026898	5.498565	0.241067	0.251636	-0.088079	0.999550	0.011950	0.000134	0.027489	
53805	    0	19.262499	31.276776	-12.726894	1.860968	-0.257705	4.116410	0.186279	0.317810	-0.124084	0.999743	0.009304	-0.001288	0.020580	
53806	    0	12.693355	38.848686	-11.028562	0.802069	-0.625443	2.784640	0.121845	0.390644	-0.108335	0.999889	0.004010	-0.003127	0.013923	
53807	    0	8.297183	39.455013	-6.008524	-0.193026	-0.705537	1.603719	0.080017	0.395142	-0.060181	0.999961	-0.000965	-0.003528	0.008018	
53808	    0	11.019634	35.164662	-2.271709	-0.646975	-0.506784	0.157357	0.109979	0.351658	-0.023576	0.999990	-0.003235	-0.002534	0.000787	
53809	    0	11.054686	32.420028	0.254810	-0.325778	-0.314906	-1.390088	0.112793	0.323425	0.002197	0.999972	-0.001629	-0.001575	-0.006950	
53810	    0	12.104797	30.464573	-1.400801	0.497072	-0.263986	-2.773377	0.125275	0.302961	-0.013090	0.999900	0.002485	-0.001320	-0.013866	
53811	    0	22.289627	21.144606	-5.796128	1.727456	-0.223371	-4.393414	0.227539	0.206970	-0.055908	0.999721	0.008636	-0.001117	-0.021965	
53812	    0	46.181297	-6.551754	5.515586	1.272167	0.283467	-5.273514	0.459943	-0.078009	0.054033	0.999631	0.006360	0.001417	-0.026364	
53813	    0	25.436248	0.320400	-2.070105	1.804790	-1.263601	-5.296289	0.254456	-0.003357	-0.019104	0.999588	0.009023	-0.006317	-0.026478	
53814	    0	26.097709	3.314798	2.099839	1.376957	-1.599773	-6.012599	0.261633	0.025133	0.023281	0.999492	0.006884	-0.007998	-0.030058	
53815	    0	15.379841	7.320062	2.818190	0.466423	-2.015254	-5.922144	0.155579	0.068542	0.029907	0.999508	0.002332	-0.010075	-0.029606	
53816	    0	2.133975	14.934064	1.155236	-0.298540	-1.693568	-5.369898	0.025241	0.148715	0.011533	0.999602	-0.001493	-0.008467	-0.026846	
53817	    0	-0.370272	17.919182	-6.431371	-0.218030	-1.375705	-4.455971	0.000732	0.179138	-0.064514	0.999727	-0.001090	-0.006878	-0.022278	
53818	    0	1.247272	6.769935	-8.805359	-0.317591	-1.042806	-3.517350	0.014118	0.067321	-0.088090	0.999830	-0.001588	-0.005214	-0.017586	
53819	    0	3.136279	5.371256	-6.361346	-0.333991	-0.647764	-3.154892	0.032410	0.053101	-0.063599	0.999868	-0.001670	-0.003239	-0.015774	
53820	    0	14.028505	5.275064	-4.470498	-0.592060	-0.391592	-2.712529	0.141069	0.050709	-0.044581	0.999901	-0.002960	-0.001958	-0.013562	
53821	    0	15.407030	1.251586	-3.865276	-0.479712	-0.453199	-2.497170	0.154297	0.010498	-0.038330	0.999916	-0.002398	-0.002266	-0.012486	
53822	    0	11.548900	5.536339	-5.736192	-0.480092	-0.353822	-2.363836	0.116233	0.053855	-0.057287	0.999926	-0.002400	-0.001769	-0.011819	
53823	    0	14.059661	4.927147	-5.239303	-0.568974	-0.229650	-2.149245	0.141174	0.047607	-0.052368	0.999937	-0.002845	-0.001148	-0.010746	
53824	    0	16.543221	2.839643	-4.033284	-0.389487	-0.274854	-1.972042	0.165756	0.026685	-0.040158	0.999949	-0.001947	-0.001374	-0.009860	
53825	    0	14.410843	4.641422	-4.098940	-0.473029	-0.197413	-1.679251	0.144531	0.045105	-0.040955	0.999961	-0.002365	-0.000987	-0.008396	
53826	    0	9.602734	3.962327	-5.221414	-0.567632	-0.011444	-1.410307	0.096306	0.038796	-0.052320	0.999970	-0.002838	-0.000057	-0.007051	
53827	    0	10.174252	5.667566	-6.617904	-0.564389	0.135041	-1.258097	0.102051	0.055847	-0.066406	0.999975	-0.002822	0.000675	-0.006290	
53828	    0	13.973153	6.961902	-6.469363	-0.841529	0.345805	-1.061830	0.139985	0.068603	-0.065226	0.999975	-0.004208	0.001729	-0.005309	
53829	    0	16.412521	3.248574	-5.752300	-1.170361	0.483136	-0.869760	0.164124	0.031433	-0.058105	0.999970	-0.005852	0.002416	-0.004349	
53830	    0	17.249307	1.259075	-4.405659	-1.287283	0.514036	-0.808152	0.172427	0.011608	-0.044577	0.999968	-0.006436	0.002570	-0.004041	
53831	    0	18.147923	3.178634	-2.738386	-1.522085	0.568588	-0.760661	0.181519	0.030884	-0.028137	0.999959	-0.007610	0.002843	-0.003803	
53832	    0	18.751462	2.899511	-1.513685	-1.820406	0.616657	-0.726903	0.187570	0.028171	-0.015974	0.999947	-0.009102	0.003083	-0.003634	
53833	    0	18.364483	-1.202321	-0.178347	-2.037091	0.655570	-0.708786	0.183594	-0.012695	-0.002258	0.999936	-0.010185	0.003278	-0.003544	
53834	    0	16.317615	-1.719378	-0.049589	-2.049300	0.635543	-0.812930	0.163102	-0.017864	-0.000834	0.999934	-0.010246	0.003178	-0.004065	
53835	    0	16.329631	-1.717330	-0.189478	-2.107098	0.673692	-0.917075	0.163208	-0.017944	-0.002258	0.999928	-0.010535	0.003368	-0.004585	
53836	    0	16.967459	-3.420876	-0.398682	-2.239669	0.704403	-0.994519	0.169487	-0.035098	-0.004194	0.999918	-0.011198	0.003522	-0.004972	
53837	    0	15.507613	-7.100748	-0.201540	-2.433089	0.728057	-0.965911	0.154724	-0.071777	-0.001709	0.999907	-0.012165	0.003640	-0.004829	
53838	    0	13.100511	-7.297117	-0.896174	-2.402188	0.728629	-1.016457	0.130600	-0.073740	-0.008555	0.999907	-0.012011	0.003643	-0.005082	
53839	    0	12.051402	-6.898380	-1.111550	-2.284119	0.801874	-1.190985	0.120056	-0.069824	-0.010803	0.999908	-0.011420	0.004009	-0.005955	
53840	    0	10.069263	-8.849577	-1.663311	-1.796196	0.767155	-1.517907	0.099954	-0.089403	-0.016217	0.999923	-0.008981	0.003836	-0.007589	
53841	    0	9.300278	-8.388195	-2.512232	-1.016069	0.718706	-2.060749	0.092041	-0.084961	-0.025024	0.999928	-0.005080	0.003593	-0.010303	
53842	    0	10.855630	-5.570812	-2.880881	-0.464455	0.713564	-2.736757	0.107677	-0.057253	-0.029062	0.999897	-0.002322	0.003568	-0.013683	
53843	    0	13.023025	-6.409500	-2.931672	-0.182161	0.721776	-3.341075	0.129028	-0.066284	-0.029724	0.999853	-0.000911	0.003609	-0.016705	
53844	    0	13.962925	-9.144726	-3.209392	0.120934	0.621644	-3.847366	0.137735	-0.094090	-0.032580	0.999809	0.000605	0.003108	-0.019236	
53845	    0	14.742203	-9.445268	-3.359733	0.200859	0.581405	-4.268214	0.145264	-0.097534	-0.034119	0.999767	0.001004	0.002907	-0.021339	
53846	    0	15.226825	-10.351690	-4.051822	0.106058	0.534104	-4.512603	0.149773	-0.106894	-0.040977	0.999742	0.000530	0.002670	-0.022561	
53847	    0	14.731349	-9.100826	-4.039799	-0.118267	0.420610	-4.732959	0.145020	-0.094482	-0.040649	0.999717	-0.000591	0.002103	-0.023663	
53848	    0	14.347493	-8.246904	-4.171633	-0.207158	0.267627	-4.844379	0.141365	-0.085954	-0.041819	0.999704	-0.001036	0.001338	-0.024220	
53849	    0	13.471831	-5.216113	-5.326484	-0.351749	0.171106	-4.821484	0.133362	-0.055481	-0.053284	0.999707	-0.001759	0.000855	-0.024105	
53850	    0	15.957867	-3.234623	-7.777167	-0.503585	0.240729	-4.589871	0.158684	-0.036191	-0.077875	0.999732	-0.002518	0.001204	-0.022947	
53851	    0	23.595475	-3.534543	-8.758252	-0.785695	0.391417	-4.111020	0.234985	-0.040527	-0.087891	0.999779	-0.003928	0.001957	-0.020554	
53852	    0	27.084067	-11.712885	-6.779156	-0.701180	0.528556	-3.547294	0.268524	-0.122144	-0.068081	0.999832	-0.003506	0.002643	-0.017735	
53853	    0	22.657616	-13.729452	-2.478920	-0.138861	0.512145	-3.160993	0.224304	-0.140869	-0.025269	0.999871	-0.000694	0.002561	-0.015804	
53854	    0	18.177477	-10.303564	-1.377856	0.496499	0.303469	-2.742857	0.180318	-0.105480	-0.014313	0.999901	0.002482	0.001517	-0.013714	
53855	    0	13.724376	-7.202250	-1.937656	0.642600	0.151065	-2.233937	0.136414	-0.073486	-0.019714	0.999931	0.003213	0.000755	-0.011169	
53856	    0	10.835359	-5.048349	-2.871629	0.642213	0.074006	-1.718164	0.107904	-0.051319	-0.028920	0.999957	0.003211	0.000370	-0.008591	
53857	    0	8.760652	-4.489892	-3.309513	0.701337	0.024414	-1.156625	0.087341	-0.045288	-0.033264	0.999977	0.003507	0.000122	-0.005783	
53858	    0	6.757455	-3.834167	-3.190125	0.814823	0.011826	-0.527193	0.067472	-0.038389	-0.032062	0.999988	0.004074	0.000059	-0.002636	
53859	    0	4.753565	-2.678158	-2.934307	0.942425	0.047302	0.132752	0.047546	-0.026611	-0.029480	0.999989	0.004712	0.000237	0.000664	
53860	    0	3.277182	-1.719182	-3.164377	1.034363	0.104524	0.871665	0.032829	-0.016885	-0.031749	0.999976	0.005172	0.000523	0.004358	
53861	    0	2.442488	-0.915049	-3.265392	0.971237	0.144389	1.657130	0.024475	-0.008789	-0.032715	0.999953	0.004856	0.000722	0.008286	
53862	    0	2.198502	-0.286239	-3.293657	0.816941	0.194364	2.474855	0.021985	-0.002456	-0.032969	0.999914	0.004085	0.000972	0.012374	
53863	    0	2.517963	-0.460936	-3.230181	0.663216	0.259412	3.276215	0.025208	-0.004089	-0.032349	0.999859	0.003316	0.001297	0.016380	
53864	    0	3.125233	-0.780383	-2.965754	0.574724	0.278492	4.033369	0.031359	-0.007087	-0.029722	0.999791	0.002873	0.001392	0.020165	
53865	    0	3.671995	-0.832659	-2.770258	0.587709	0.248741	4.670385	0.036865	-0.007385	-0.027771	0.999722	0.002938	0.001244	0.023350	
53866	    0	4.667331	-0.999120	-2.411932	0.591920	0.198578	5.261274	0.046889	-0.008688	-0.024193	0.999649	0.002959	0.000993	0.026303	
53867	    0	6.200025	-1.278795	-2.354399	0.512958	0.151083	5.793053	0.062317	-0.010925	-0.023621	0.999577	0.002564	0.000755	0.028961	
53868	    0	7.513649	-1.429709	-2.168464	0.393742	0.103205	6.272586	0.075523	-0.011889	-0.021749	0.999506	0.001968	0.000516	0.031358	
53869	    0	8.566622	-1.366221	-2.109876	0.252772	0.010683	6.733452	0.086060	-0.010742	-0.021118	0.999432	0.001264	0.000053	0.033661	
53870	    0	9.251183	-0.742060	-1.969860	0.136595	-0.130109	7.138815	0.092710	-0.004100	-0.019642	0.999362	0.000683	-0.000650	0.035686	
53871	    0	10.000802	-0.273582	-1.418219	0.082417	-0.288269	7.531996	0.100037	0.001038	-0.014038	0.999290	0.000412	-0.001441	0.037651	
53872	    0	11.060434	-0.181507	-0.981329	0.248592	-0.490697	7.854011	0.110585	0.002541	-0.009541	0.999225	0.001243	-0.002453	0.039260	
53873	    0	12.380723	0.226086	-0.459122	0.590868	-0.686071	8.068011	0.123596	0.007263	-0.004150	0.999176	0.002954	-0.003429	0.040329	
53874	    0	13.887803	1.337010	-0.451345	1.077389	-0.846915	8.181247	0.138193	0.019055	-0.003835	0.999140	0.005385	-0.004233	0.040895	
53875	    0	16.087690	3.231279	-1.720864	1.581283	-0.853030	8.276552	0.159424	0.039062	-0.016235	0.999103	0.007904	-0.004264	0.041370	
53876	    0	19.164805	6.519537	-3.752607	1.838856	-0.779386	8.257679	0.188873	0.073370	-0.036137	0.999098	0.009192	-0.003896	0.041276	
53877	    0	22.330524	12.377462	-4.781836	1.676657	-0.643914	8.084891	0.218201	0.133057	-0.046021	0.999143	0.008381	-0.003219	0.040413	
53878	    0	24.250589	17.373540	-5.199111	1.367539	-0.540300	7.716064	0.235694	0.183265	-0.050117	0.999228	0.006836	-0.002701	0.038570	
53879	    0	24.123799	21.781328	-6.015826	1.230123	-0.573663	7.052602	0.233521	0.226501	-0.058105	0.999354	0.006149	-0.002868	0.035255	
53880	    0	23.529644	26.504546	-7.879738	1.094611	-0.623993	6.045921	0.227376	0.272423	-0.076602	0.999523	0.005472	-0.003119	0.030225	
53881	    0	21.097653	31.691083	-9.625959	0.579318	-0.646273	4.750523	0.203674	0.322083	-0.094666	0.999708	0.002896	-0.003231	0.023750	
53882	    0	15.926719	35.814984	-9.489863	0.027276	-0.787584	3.377702	0.153561	0.360788	-0.094237	0.999849	0.000136	-0.003938	0.016888	
53883	    0	10.884628	39.135009	-7.572867	-0.556004	-0.870533	2.017255	0.105225	0.392212	-0.076355	0.999935	-0.002780	-0.004353	0.010086	
53884	    0	7.847206	39.272087	-4.344926	-1.039896	-0.736815	0.681502	0.077298	0.392754	-0.045205	0.999973	-0.005199	-0.003684	0.003407	
53885	    0	8.730410	35.336163	-0.852910	-1.184665	-0.556188	-0.627905	0.088440	0.353027	-0.010376	0.999973	-0.005923	-0.002781	-0.003139	
53886	    0	13.522545	29.631910	1.063817	-0.933285	-0.517093	-1.955264	0.138088	0.295025	0.009614	0.999937	-0.004666	-0.002585	-0.009776	
53887	    0	12.056588	21.433340	5.234651	-0.279247	-0.520917	-2.971000	0.123596	0.212585	0.052368	0.999885	-0.001396	-0.002604	-0.014854	
53888	    0	17.067960	5.152184	6.232257	1.221923	-0.169192	-3.636965	0.171521	0.048025	0.062768	0.999815	0.006109	-0.000846	-0.018184	
53889	    0	41.880882	-18.732306	4.706184	2.821886	0.210597	-4.623216	0.414368	-0.197571	0.043884	0.999632	0.014108	0.001053	-0.023113	
53890	    0	34.936543	10.085969	7.668704	3.076928	-1.049425	-5.787577	0.351651	0.089491	0.079964	0.999449	0.015382	-0.005246	-0.028933	
53891	    0	30.476838	17.426633	3.688943	2.348738	-1.755639	-5.769592	0.309265	0.164917	0.041565	0.999476	0.011742	-0.008777	-0.028843	
53892	    0	24.166031	5.239916	6.839423	0.288052	-1.762080	-5.698860	0.242405	0.045398	0.070597	0.999554	0.001440	-0.008809	-0.028490	
53893	    0	0.333918	9.979200	1.361960	-0.109686	-1.845020	-5.184065	0.005798	0.099670	0.013611	0.999620	-0.000548	-0.009224	-0.025917	
53894	    0	-0.130162	14.214528	-7.401244	-0.084121	-1.428539	-4.356766	0.002323	0.142090	-0.074064	0.999737	-0.000421	-0.007142	-0.021782	
53895	    0	2.273602	8.774567	-10.610018	-0.433184	-1.233744	-3.462417	0.024902	0.087097	-0.106140	0.999828	-0.002166	-0.006168	-0.017311	
53896	    0	-0.329690	5.976602	-6.780485	-1.145604	-0.742182	-2.961290	-0.002163	0.059414	-0.068155	0.999866	-0.005728	-0.003711	-0.014806	
53897	    0	9.679037	4.647779	-5.300952	-1.069675	-0.438513	-2.491076	0.097473	0.044983	-0.053040	0.999906	-0.005348	-0.002192	-0.012455	
53898	    0	16.638997	1.633391	-4.916409	-0.616281	-0.389682	-2.455016	0.166668	0.014138	-0.048885	0.999918	-0.003081	-0.001948	-0.012275	
53899	    0	12.197560	3.819303	-6.398919	-0.562872	-0.310524	-2.275901	0.122498	0.036621	-0.063904	0.999929	-0.002814	-0.001553	-0.011379	
53900	    0	13.250783	4.330394	-6.447450	-0.407990	-0.243764	-2.167174	0.133044	0.041733	-0.064399	0.999938	-0.002040	-0.001219	-0.010836	
53901	    0	18.100113	3.579660	-5.374904	-0.375182	-0.180820	-2.009618	0.181396	0.033875	-0.053650	0.999947	-0.001876	-0.000904	-0.010048	
53902	    0	15.050689	3.694374	-5.120311	-0.562294	-0.094224	-1.699852	0.150837	0.035519	-0.051233	0.999959	-0.002811	-0.000471	-0.008499	
53903	    0	9.383938	3.367812	-5.350854	-0.588995	0.093270	-1.454178	0.094055	0.032837	-0.053650	0.999969	-0.002945	0.000466	-0.007271	
53904	    0	10.160277	5.341636	-6.907358	-0.639158	0.239947	-1.259433	0.101852	0.052554	-0.069365	0.999974	-0.003196	0.001200	-0.006297	
53905	    0	13.585204	6.593631	-7.432360	-0.892456	0.405124	-1.062784	0.136047	0.064880	-0.074890	0.999973	-0.004462	0.002026	-0.005314	
53906	    0	16.986747	2.897406	-5.352081	-1.168454	0.520330	-0.933275	0.169859	0.027866	-0.054128	0.999969	-0.005842	0.002602	-0.004666	
53907	    0	17.821096	1.156527	-3.415706	-1.390665	0.556953	-0.859843	0.178162	0.010559	-0.034729	0.999962	-0.006953	0.002785	-0.004299	
53908	    0	18.379876	2.717656	-1.938292	-1.605630	0.558289	-0.863661	0.183858	0.026223	-0.020109	0.999954	-0.008028	0.002791	-0.004318	
53909	    0	19.480896	2.091509	-0.409473	-1.842533	0.554095	-0.875871	0.194885	0.020020	-0.004822	0.999944	-0.009212	0.002770	-0.004379	
53910	    0	18.892099	-0.319243	0.559976	-2.103854	0.561155	-0.898191	0.188919	-0.003985	0.005109	0.999930	-0.010519	0.002806	-0.004491	
53911	    0	16.881839	-2.714409	0.595639	-2.232991	0.553145	-0.965143	0.168701	-0.027893	0.005798	0.999922	-0.011165	0.002766	-0.004826	
53912	    0	16.275268	-2.311001	-0.303423	-2.262941	0.531211	-1.115258	0.162612	-0.024053	-0.003198	0.999916	-0.011314	0.002656	-0.005576	
53913	    0	16.522612	-2.906047	-0.252858	-2.434618	0.554866	-1.209298	0.165039	-0.030090	-0.002625	0.999904	-0.012173	0.002774	-0.006046	
53914	    0	15.071465	-7.176477	-0.529909	-2.713688	0.572799	-1.195762	0.150268	-0.072731	-0.004747	0.999886	-0.013568	0.002864	-0.005979	
53915	    0	12.806717	-8.872276	-0.786792	-2.761950	0.602174	-1.215410	0.127502	-0.089600	-0.007019	0.999881	-0.013809	0.003011	-0.006077	
53916	    0	11.934852	-9.244315	-0.969309	-2.405061	0.674081	-1.486068	0.118626	-0.093437	-0.008974	0.999894	-0.012025	0.003370	-0.007430	
53917	    0	11.002329	-9.609765	-2.149535	-1.800593	0.683043	-1.944030	0.109009	-0.097351	-0.020996	0.999906	-0.009003	0.003415	-0.009720	
53918	    0	11.373241	-9.212722	-3.285144	-1.012836	0.660346	-2.581493	0.112421	-0.093750	-0.032752	0.999898	-0.005064	0.003302	-0.012907	
53919	    0	12.588928	-8.451902	-3.757770	-0.362986	0.672945	-3.335734	0.124329	-0.086670	-0.037842	0.999853	-0.001815	0.003365	-0.016678	
53920	    0	13.846962	-8.841599	-4.489787	0.263041	0.547446	-4.000555	0.136541	-0.091101	-0.045392	0.999795	0.001315	0.002737	-0.020001	
53921	    0	15.389357	-8.153202	-4.232825	0.334196	0.416028	-4.507833	0.151917	-0.084900	-0.042786	0.999742	0.001671	0.002080	-0.022537	
53922	    0	15.876585	-8.662021	-4.588025	0.062758	0.403442	-4.700906	0.156579	-0.090303	-0.046226	0.999722	0.000314	0.002017	-0.023502	
53923	    0	16.019019	-8.932412	-4.445058	-0.208875	0.330385	-4.827590	0.157898	-0.093201	-0.044617	0.999706	-0.001044	0.001652	-0.024136	
53924	    0	16.216424	-7.224860	-4.264963	-0.427290	0.230622	-4.940922	0.160263	-0.076315	-0.042675	0.999691	-0.002136	0.001153	-0.024702	
53925	    0	15.520694	-4.776349	-5.403796	-0.605644	0.169390	-4.884069	0.153931	-0.051697	-0.054016	0.999697	-0.003028	0.000847	-0.024418	
53926	    0	16.758971	-4.504788	-7.977825	-0.816801	0.281550	-4.582248	0.166382	-0.049195	-0.079818	0.999728	-0.004084	0.001408	-0.022909	
53927	    0	23.557731	-3.256394	-8.961684	-1.206869	0.378446	-4.030909	0.234680	-0.037842	-0.089844	0.999777	-0.006034	0.001892	-0.020153	
53928	    0	25.618927	-11.014126	-6.369888	-1.352007	0.581966	-3.437052	0.254056	-0.114950	-0.063674	0.999825	-0.006760	0.002910	-0.017184	
53929	    0	22.158004	-14.180626	-2.042320	-0.855100	0.525687	-3.006870	0.219360	-0.145203	-0.020386	0.999874	-0.004275	0.002628	-0.015034	
53930	    0	16.986710	-10.696737	-0.905518	-0.166516	0.319109	-2.593115	0.168447	-0.109165	-0.009234	0.999914	-0.000833	0.001595	-0.012965	
53931	    0	13.107521	-7.646601	-1.269879	0.318343	0.180057	-2.105753	0.130249	-0.077820	-0.012939	0.999943	0.001592	0.000900	-0.010529	
53932	    0	10.383530	-5.437146	-2.245790	0.659950	0.133325	-1.548595	0.103395	-0.055099	-0.022708	0.999964	0.003300	0.000667	-0.007743	
53933	    0	7.851845	-4.332350	-2.345418	0.876814	0.093842	-0.916296	0.078308	-0.043579	-0.023682	0.999979	0.004384	0.000469	-0.004581	
53934	    0	5.141073	-2.852394	-2.169029	1.037984	0.074387	-0.238038	0.051369	-0.028472	-0.021857	0.999986	0.005190	0.000372	-0.001190	
53935	    0	2.914433	-1.613606	-2.266030	1.136024	0.102425	0.526432	0.029175	-0.015930	-0.022766	0.999980	0.005680	0.000512	0.002632	
53936	    0	1.642656	-0.896461	-2.722807	1.133361	0.174906	1.356906	0.016462	-0.008698	-0.027292	0.999960	0.005667	0.000875	0.006784	
53937	    0	1.089307	-0.587527	-2.736349	1.018549	0.224501	2.208765	0.010925	-0.005615	-0.027405	0.999925	0.005093	0.001122	0.011044	
53938	    0	0.761003	-0.027817	-2.939514	0.843846	0.237284	3.031475	0.007577	-0.000039	-0.029405	0.999875	0.004219	0.001186	0.015157	
53939	    0	0.559531	0.351721	-2.966942	0.681538	0.221266	3.793571	0.005493	0.003723	-0.029663	0.999813	0.003407	0.001106	0.018967	
53940	    0	1.040170	0.254840	-2.703282	0.484508	0.221462	4.484176	0.010310	0.002846	-0.027038	0.999744	0.002422	0.001107	0.022419	
53941	    0	2.036768	-0.666383	-2.316501	0.317418	0.179501	5.116833	0.020508	-0.006104	-0.023193	0.999671	0.001587	0.000897	0.025581	
53942	    0	3.421770	-1.775586	-2.084387	0.223953	0.119034	5.660242	0.034689	-0.016755	-0.020884	0.999599	0.001120	0.000595	0.028297	
53943	    0	4.860021	-2.441913	-1.968022	0.192482	0.047310	6.160948	0.049316	-0.022888	-0.019714	0.999525	0.000962	0.000237	0.030800	
53944	    0	6.193351	-2.529854	-1.835512	0.156049	-0.037582	6.581160	0.062724	-0.023229	-0.018362	0.999458	0.000780	-0.000188	0.032900	
53945	    0	7.446375	-2.245920	-1.541416	0.123049	-0.122858	6.972391	0.075195	-0.019836	-0.015381	0.999392	0.000615	-0.000614	0.034855	
53946	    0	8.734744	-1.898640	-0.756249	0.123815	-0.214625	7.341891	0.087974	-0.015759	-0.007479	0.999325	0.000619	-0.001073	0.036701	
53947	    0	10.119003	-1.532737	-0.261338	0.279305	-0.373742	7.702259	0.101685	-0.011414	-0.002441	0.999255	0.001396	-0.001868	0.038502	
53948	    0	11.946949	-1.117863	0.855358	0.528288	-0.503676	8.021807	0.119768	-0.006401	0.008834	0.999188	0.002641	-0.002518	0.040098	
53949	    0	13.812135	-0.973813	2.023385	0.954139	-0.614343	8.223797	0.138306	-0.004150	0.020630	0.999138	0.004769	-0.003071	0.041107	
53950	    0	15.921749	-0.046802	2.082217	1.575179	-0.648311	8.305367	0.158990	0.005972	0.021368	0.999101	0.007874	-0.003241	0.041514	
53951	    0	18.467662	2.069496	0.519304	2.061519	-0.568563	8.286525	0.183594	0.028259	0.005981	0.999084	0.010304	-0.002842	0.041420	
53952	    0	22.281165	8.059191	-1.594259	2.072182	-0.223226	8.145633	0.219297	0.089730	-0.014798	0.999116	0.010358	-0.001116	0.040716	
53953	    0	24.834060	13.502383	-3.287493	1.895851	0.168656	7.872635	0.242737	0.144958	-0.031738	0.999180	0.009477	0.000843	0.039352	
53954	    0	25.376936	18.008457	-5.709394	1.877662	0.329287	7.333030	0.246837	0.189749	-0.055753	0.999282	0.009386	0.001646	0.036656	
53955	    0	24.681705	21.504148	-9.132206	2.119271	0.106832	6.360292	0.239746	0.223694	-0.089111	0.999437	0.010594	0.000534	0.031796	
53956	    0	22.070119	28.193091	-12.886026	2.115516	-0.292433	5.059878	0.213638	0.288735	-0.125514	0.999622	0.010576	-0.001462	0.025296	
53957	    0	15.658747	36.439615	-12.652095	1.520825	-0.577582	3.541026	0.150452	0.368042	-0.123291	0.999809	0.007604	-0.002888	0.017704	
53958	    0	12.456303	42.321431	-8.339277	0.616659	-0.770395	2.085160	0.120457	0.424738	-0.081615	0.999933	0.003083	-0.003852	0.010426	
53959	    0	8.454730	40.200977	-5.222088	0.054932	-0.697139	0.764469	0.083191	0.402344	-0.051819	0.999986	0.000275	-0.003486	0.003822	
53960	    0	10.912213	36.725799	-3.277882	-0.076676	-0.503351	-0.768664	0.110615	0.366822	-0.032642	0.999989	-0.000383	-0.002517	-0.003843	
53961	    0	9.403950	33.012267	-1.860913	0.484668	-0.482188	-2.206470	0.097717	0.329102	-0.017578	0.999933	0.002423	-0.002411	-0.011032	
53962	    0	13.832040	25.992315	-6.394694	1.880399	-0.685169	-3.625557	0.143221	0.257939	-0.061030	0.999785	0.009401	-0.003426	-0.018126	
53963	    0	39.110455	1.686808	-1.292933	2.190109	0.156423	-5.107011	0.391357	0.007019	-0.013123	0.999613	0.010949	0.000782	-0.025532	
53964	    0	38.352713	3.306892	1.182071	1.972311	-1.038520	-5.653679	0.384186	0.022082	0.014069	0.999537	0.009860	-0.005192	-0.028264	
53965	    0	30.053224	7.720875	-0.492264	1.892403	-1.721285	-5.757330	0.302612	0.068542	-0.001648	0.999503	0.009460	-0.008605	-0.028782	
53966	    0	25.026699	8.798148	4.817453	0.467954	-1.961667	-6.126703	0.252313	0.080155	0.050837	0.999479	0.002339	-0.009807	-0.030628	
53967	    0	6.682356	9.510609	2.827569	-0.321247	-1.998253	-5.703843	0.069214	0.093201	0.028809	0.999541	-0.001606	-0.009990	-0.028515	
53968	    0	-3.587413	12.949290	-5.055403	-0.118650	-1.596435	-4.865224	-0.032306	0.130278	-0.050899	0.999672	-0.000593	-0.007981	-0.024323	
53969	    0	1.626345	10.940513	-9.290040	-0.195136	-1.229187	-4.048459	0.019043	0.108948	-0.092896	0.999775	-0.000976	-0.006145	-0.020241	
53970	    0	-0.426537	4.676738	-6.372744	-0.461794	-0.909664	-3.475761	-0.003163	0.046681	-0.063851	0.999836	-0.002309	-0.004548	-0.017378	
53971	    0	7.979274	7.198213	-4.528390	-0.633838	-0.548576	-3.029757	0.080994	0.070618	-0.045288	0.999876	-0.003169	-0.002743	-0.015148	
53972	    0	16.704290	1.395695	-3.842990	-0.464455	-0.508516	-2.711194	0.167308	0.011601	-0.038033	0.999902	-0.002322	-0.002542	-0.013556	
53973	    0	12.318797	4.496890	-6.010760	-0.327120	-0.491347	-2.582626	0.123901	0.043274	-0.059875	0.999912	-0.001636	-0.002457	-0.012913	
53974	    0	12.232268	7.220536	-6.586400	-0.422869	-0.322922	-2.345332	0.123263	0.070624	-0.065816	0.999928	-0.002114	-0.001615	-0.011726	
53975	    0	16.262390	3.704119	-4.575016	-0.292784	-0.331885	-2.156873	0.163086	0.035217	-0.045532	0.999939	-0.001464	-0.001659	-0.010784	
53976	    0	16.330533	4.593340	-3.135732	-0.268750	-0.286488	-1.891547	0.163774	0.044344	-0.031183	0.999953	-0.001344	-0.001432	-0.009458	
53977	    0	10.688370	4.951186	-4.447717	-0.402074	-0.150873	-1.564806	0.107300	0.048584	-0.044495	0.999967	-0.002010	-0.000754	-0.007824	
53978	    0	10.127315	4.878883	-5.825615	-0.406650	0.043488	-1.374638	0.101592	0.047973	-0.058376	0.999974	-0.002033	0.000217	-0.006873	
53979	    0	12.984015	6.843817	-6.129096	-0.492099	0.194742	-1.202401	0.130188	0.067505	-0.061584	0.999978	-0.002460	0.000974	-0.006012	
53980	    0	16.250926	4.677541	-5.271504	-0.801474	0.338557	-1.013191	0.162653	0.045739	-0.053175	0.999977	-0.004007	0.001693	-0.005066	
53981	    0	17.728434	2.381324	-4.434820	-1.045808	0.373081	-0.917824	0.177307	0.022766	-0.044800	0.999973	-0.005229	0.001865	-0.004589	
53982	    0	17.752627	2.456691	-2.946652	-1.181995	0.355342	-0.874146	0.177578	0.023615	-0.029923	0.999971	-0.005910	0.001777	-0.004371	
53983	    0	18.841177	3.744078	-1.612360	-1.560042	0.396734	-0.862134	0.188538	0.036499	-0.016785	0.999958	-0.007800	0.001984	-0.004311	
53984	    0	18.524190	1.175174	-0.143331	-1.930655	0.401886	-0.823418	0.185285	0.010972	-0.001914	0.999943	-0.009653	0.002009	-0.004117	
53985	    0	17.153950	-0.971213	0.604879	-2.145435	0.419054	-0.847645	0.171509	-0.010376	0.005798	0.999930	-0.010727	0.002095	-0.004238	
53986	    0	16.344031	-0.868173	0.320796	-2.237949	0.417148	-0.941110	0.163404	-0.009417	0.002970	0.999924	-0.011189	0.002086	-0.004705	
53987	    0	16.647783	-1.737168	-0.117810	-2.438428	0.461020	-1.036103	0.166382	-0.018250	-0.001343	0.999909	-0.012192	0.002305	-0.005180	
53988	    0	15.677148	-5.564185	-0.194980	-2.653405	0.495928	-1.012837	0.156483	-0.056458	-0.001593	0.999896	-0.013267	0.002480	-0.005064	
53989	    0	13.282191	-6.698303	-1.118050	-2.725892	0.543233	-1.025428	0.132446	-0.067810	-0.010620	0.999889	-0.013629	0.002716	-0.005127	
53990	    0	12.780257	-6.901816	-1.943044	-2.612588	0.663972	-1.112214	0.127352	-0.069977	-0.018944	0.999893	-0.013062	0.003320	-0.005561	
53991	    0	11.935409	-9.183952	-2.505466	-2.196377	0.734732	-1.320687	0.118652	-0.092896	-0.024475	0.999910	-0.010982	0.003674	-0.006603	
53992	    0	10.372595	-8.713908	-3.290489	-1.477467	0.637260	-1.745265	0.102855	-0.088281	-0.032584	0.999929	-0.007387	0.003186	-0.008726	
53993	    0	10.402221	-5.654552	-3.050793	-0.741406	0.547805	-2.323211	0.103271	-0.057861	-0.030579	0.999922	-0.003707	0.002739	-0.011616	
53994	    0	11.295007	-4.376444	-2.161791	-0.359167	0.523206	-2.948491	0.112231	-0.045462	-0.021832	0.999886	-0.001796	0.002616	-0.014742	
53995	    0	12.308082	-6.314850	-2.661240	-0.192080	0.498988	-3.489103	0.121887	-0.065308	-0.026855	0.999844	-0.000960	0.002495	-0.017445	
53996	    0	13.839211	-9.555663	-2.222370	-0.069241	0.588646	-3.882276	0.136436	-0.098226	-0.022593	0.999806	-0.000346	0.002943	-0.019410	
53997	    0	15.093986	-10.715948	-2.753237	0.110825	0.565381	-4.213269	0.148560	-0.110291	-0.028015	0.999773	0.000554	0.002827	-0.021065	
53998	    0	15.456605	-9.405523	-3.467462	0.155271	0.394473	-4.502108	0.152328	-0.097474	-0.035051	0.999743	0.000776	0.001972	-0.022509	
53999	    0	15.377802	-8.323495	-3.998347	0.090035	0.182550	-4.690983	0.151733	-0.086792	-0.040161	0.999724	0.000450	0.000913	-0.023453	
54000	    0	14.664273	-7.224176	-3.959212	-0.007249	-0.005913	-4.702048	0.144892	-0.075664	-0.039585	0.999723	-0.000036	-0.000030	-0.023508	
54001	    0	15.909910	-3.747242	-6.128830	-0.130474	-0.055509	-4.574221	0.158203	-0.041138	-0.061218	0.999738	-0.000652	-0.000278	-0.022869	
54002	    0	20.016263	-4.864498	-6.090896	-0.147258	0.045017	-4.206968	0.199066	-0.052885	-0.060916	0.999778	-0.000736	0.000225	-0.021033	
54003	    0	26.360385	-5.574255	-8.152883	-0.012780	-0.032808	-3.743963	0.262512	-0.060669	-0.081482	0.999825	-0.000064	-0.000164	-0.018719	
54004	    0	23.205680	-10.778975	-4.887686	0.058749	0.008202	-3.234623	0.230271	-0.111509	-0.048919	0.999868	0.000294	0.000041	-0.016172	
54005	    0	19.101688	-9.086747	-2.969858	0.236710	-0.088504	-2.876382	0.189697	-0.093567	-0.029724	0.999895	0.001184	-0.000443	-0.014381	
54006	    0	14.308299	-6.328289	-2.748540	0.216108	-0.256163	-2.405226	0.142344	-0.064968	-0.027372	0.999926	0.001081	-0.001281	-0.012026	
54007	    0	10.400584	-4.340744	-3.236028	0.122072	-0.309567	-1.898223	0.103638	-0.044373	-0.032227	0.999953	0.000610	-0.001548	-0.009491	
54008	    0	8.613123	-3.641613	-3.610142	0.107003	-0.314334	-1.386463	0.085933	-0.036993	-0.035986	0.999974	0.000535	-0.001572	-0.006932	
54009	    0	7.272820	-3.538963	-3.356980	0.258637	-0.295831	-0.820926	0.072632	-0.035645	-0.033508	0.999990	0.001293	-0.001479	-0.004105	
54010	    0	5.605167	-2.973130	-3.017918	0.501252	-0.266266	-0.189781	0.056064	-0.029709	-0.030179	0.999995	0.002506	-0.001331	-0.000949	
54011	    0	4.062809	-2.069867	-2.677295	0.650980	-0.223542	0.509645	0.040710	-0.020508	-0.026794	0.999990	0.003255	-0.001118	0.002548	
54012	    0	3.214773	-1.153689	-2.531551	0.626569	-0.127412	1.256190	0.032235	-0.011255	-0.025331	0.999974	0.003133	-0.000637	0.006281	
54013	    0	3.091706	-0.331359	-2.904189	0.477800	0.022889	2.033271	0.030945	-0.002930	-0.029053	0.999945	0.002389	0.000114	0.010166	
54014	    0	3.159360	-0.542629	-2.649393	0.523775	0.091174	2.749914	0.031651	-0.004922	-0.026522	0.999902	0.002619	0.000456	0.013749	
54015	    0	3.606472	-0.917803	-2.527501	0.537328	0.172433	3.463923	0.036194	-0.008484	-0.025330	0.999846	0.002687	0.000862	0.017319	
54016	    0	4.090605	-0.975486	-1.953177	0.424607	0.237482	4.171487	0.041074	-0.008858	-0.019600	0.999779	0.002123	0.001187	0.020856	
54017	    0	4.655626	-1.744318	-1.707206	0.257135	0.245118	4.805458	0.046936	-0.016296	-0.017151	0.999709	0.001286	0.001225	0.024025	
54018	    0	5.574614	-2.712635	-1.558825	0.150317	0.213649	5.364109	0.056430	-0.025607	-0.015668	0.999639	0.000751	0.001068	0.026817	
54019	    0	6.649426	-3.004791	-1.548847	0.156425	0.158142	5.844949	0.067322	-0.028076	-0.015564	0.999572	0.000782	0.000791	0.029221	
54020	    0	7.420704	-2.301852	-1.530887	0.131629	0.086036	6.269529	0.074873	-0.020668	-0.015355	0.999508	0.000658	0.000430	0.031343	
54021	    0	7.909757	-1.456056	-1.350614	0.097865	-0.059520	6.680778	0.079529	-0.011902	-0.013489	0.999441	0.000489	-0.000298	0.033398	
54022	    0	8.573239	-1.119746	-1.062817	0.019841	-0.196116	7.076024	0.086067	-0.008155	-0.010545	0.999373	0.000099	-0.000980	0.035373	
54023	    0	9.733215	-1.261720	-0.290816	0.013736	-0.332528	7.468628	0.097717	-0.008972	-0.002747	0.999301	0.000069	-0.001662	0.037334	
54024	    0	11.446642	-2.135572	0.533868	0.254887	-0.492031	7.800755	0.115170	-0.016879	0.005598	0.999235	0.001274	-0.002460	0.038994	
54025	    0	13.590027	-2.029015	1.097182	0.705913	-0.644670	8.064960	0.136536	-0.014832	0.011353	0.999175	0.003529	-0.003222	0.040314	
54026	    0	16.098743	-0.864595	1.605145	1.251776	-0.753050	8.230889	0.161102	-0.002119	0.016631	0.999126	0.006257	-0.003764	0.041142	
54027	    0	18.771565	1.047296	1.276178	1.778195	-0.758404	8.365912	0.187012	0.018188	0.013611	0.999078	0.008888	-0.003791	0.041817	
54028	    0	21.768570	4.463877	-0.246711	2.030241	-0.690675	8.370715	0.215569	0.053709	-0.001205	0.999066	0.010148	-0.003452	0.041841	
54029	    0	25.060916	10.214033	-1.203434	1.997209	-0.459999	8.217788	0.246155	0.112427	-0.010376	0.999103	0.009983	-0.002299	0.041077	
54030	    0	26.217926	14.980593	-1.545096	1.891645	-0.203187	7.802962	0.256083	0.160013	-0.013707	0.999193	0.009456	-0.001016	0.039004	
54031	    0	25.091435	19.411722	-3.683484	2.005642	-0.080126	7.026710	0.243896	0.203125	-0.034729	0.999332	0.010026	-0.000401	0.035126	
54032	    0	24.143768	23.923654	-7.040387	2.097474	-0.027470	5.915087	0.234219	0.246956	-0.067808	0.999507	0.010486	-0.000137	0.029571	
54033	    0	21.013499	31.304842	-10.012137	1.765050	-0.153367	4.626938	0.202881	0.318665	-0.097168	0.999693	0.008824	-0.000767	0.023132	
54034	    0	15.066576	38.664357	-9.780542	1.062829	-0.449013	3.297783	0.144474	0.389571	-0.095411	0.999846	0.005314	-0.002245	0.016488	
54035	    0	9.862099	41.801300	-6.780943	0.245671	-0.579653	1.895173	0.094849	0.419006	-0.067017	0.999949	0.001228	-0.002898	0.009476	
54036	    0	10.403055	40.705587	-3.926001	-0.382615	-0.484277	0.419045	0.103273	0.407197	-0.039788	0.999992	-0.001913	-0.002421	0.002095	
54037	    0	10.265282	37.648706	-1.323590	-0.502017	-0.272943	-1.033026	0.104614	0.375916	-0.014038	0.999982	-0.002510	-0.001365	-0.005165	
54038	    0	13.638999	33.679649	-3.991883	0.416958	-0.321970	-2.545238	0.140725	0.335106	-0.038995	0.999915	0.002085	-0.001610	-0.012726	
54039	    0	28.657372	34.746495	-9.492770	2.015360	-0.235014	-5.014650	0.295288	0.341064	-0.091125	0.999634	0.010076	-0.001175	-0.025070	
54040	    0	48.537474	5.668195	1.577973	0.669574	0.046737	-5.790195	0.486747	0.042549	0.015824	0.999575	0.003347	0.000234	-0.028947	
54041	    0	26.884449	-5.473931	-0.943251	1.159819	-1.421351	-5.284045	0.267334	-0.061768	-0.007874	0.999608	0.005798	-0.007106	-0.026417	
54042	    0	21.516771	-0.998825	1.502321	0.963191	-1.673994	-6.220010	0.214581	-0.016747	0.016751	0.999470	0.004815	-0.008368	-0.031095	
54043	    0	12.753630	10.362825	4.183770	0.002289	-1.841850	-6.025930	0.130188	0.099731	0.043030	0.999503	0.000011	-0.009208	-0.030125	
54044	    0	0.175081	19.231932	-0.117937	-0.398307	-1.535810	-5.416063	0.006968	0.192175	-0.001522	0.999601	-0.001991	-0.007678	-0.027077	
54045	    0	-2.126748	12.848457	-8.686205	-0.253318	-1.400686	-4.311741	-0.017883	0.128784	-0.087158	0.999742	-0.001266	-0.007003	-0.021557	
54046	    0	-0.160491	2.777288	-6.837968	-0.227369	-1.043381	-3.615021	-0.000747	0.027714	-0.068417	0.999822	-0.001137	-0.005217	-0.018074	
54047	    0	6.150909	4.958321	-3.818118	-0.225650	-0.680574	-3.274689	0.062439	0.048523	-0.038025	0.999859	-0.001128	-0.003403	-0.016373	
54048	    0	17.173916	6.048389	-3.622496	-0.368704	-0.562308	-2.929226	0.172701	0.057893	-0.035849	0.999887	-0.001843	-0.002811	-0.014646	
54049	    0	13.947350	3.107319	-4.053109	-0.315677	-0.683616	-2.711576	0.140015	0.029114	-0.040100	0.999901	-0.001578	-0.003418	-0.013557	
54050	    0	11.102569	6.877982	-6.032993	-0.422298	-0.492872	-2.455014	0.112006	0.067282	-0.060198	0.999919	-0.002111	-0.002464	-0.012275	
54051	    0	14.610889	5.202070	-4.937452	-0.350197	-0.450717	-2.240040	0.146790	0.050293	-0.049133	0.999932	-0.001751	-0.002254	-0.011200	
54052	    0	16.335512	4.033370	-4.515873	-0.321394	-0.437553	-1.923021	0.163831	0.038688	-0.044864	0.999949	-0.001607	-0.002188	-0.009615	
54053	    0	11.436485	4.771604	-5.077032	-0.478369	-0.283626	-1.574725	0.114807	0.046692	-0.050720	0.999965	-0.002392	-0.001418	-0.007874	
54054	    0	9.159655	4.751141	-6.086871	-0.557523	-0.095178	-1.334011	0.091939	0.046729	-0.060956	0.999973	-0.002788	-0.000476	-0.006670	
54055	    0	10.924424	7.162621	-6.871396	-0.616269	0.067139	-1.120003	0.109619	0.070801	-0.068970	0.999979	-0.003081	0.000336	-0.005600	
54056	    0	13.645597	5.758850	-6.647432	-0.834470	0.255968	-0.900656	0.136627	0.056695	-0.066887	0.999980	-0.004172	0.001280	-0.004503	
54057	    0	17.656022	3.084070	-5.387591	-1.057252	0.392917	-0.801856	0.176575	0.029846	-0.054382	0.999975	-0.005286	0.001965	-0.004009	
54058	    0	18.662329	2.367336	-3.909954	-1.251423	0.408749	-0.743492	0.186628	0.022733	-0.039625	0.999971	-0.006257	0.002044	-0.003717	
54059	    0	18.827403	2.438985	-2.769594	-1.527424	0.470167	-0.718698	0.188293	0.023499	-0.028320	0.999961	-0.007637	0.002351	-0.003593	
54060	    0	19.734778	1.707554	-1.761875	-1.713970	0.494202	-0.759518	0.197366	0.016171	-0.018248	0.999952	-0.008570	0.002471	-0.003798	
54061	    0	19.065004	-0.360197	-0.728559	-1.930084	0.531016	-0.818650	0.190613	-0.004456	-0.007751	0.999941	-0.009650	0.002655	-0.004093	
54062	    0	17.811779	-1.619132	-0.429574	-2.126362	0.528730	-0.927756	0.178028	-0.017065	-0.004588	0.999928	-0.010632	0.002644	-0.004639	
54063	    0	17.477105	-1.334909	-0.546816	-2.303951	0.492873	-1.063567	0.174683	-0.014343	-0.005737	0.999916	-0.011519	0.002464	-0.005318	
54064	    0	17.282134	-4.246602	-0.041480	-2.535902	0.492493	-1.064526	0.172591	-0.043389	-0.000294	0.999902	-0.012679	0.002462	-0.005322	
54065	    0	15.526592	-6.641113	-0.298933	-2.688695	0.533505	-1.049842	0.154907	-0.067261	-0.002502	0.999892	-0.013443	0.002667	-0.005249	
54066	    0	13.196348	-7.371747	-0.801126	-2.765378	0.580619	-1.019135	0.131563	-0.074493	-0.007367	0.999887	-0.013826	0.002903	-0.005095	
54067	    0	11.771291	-6.776877	-1.014166	-2.677252	0.604461	-1.094858	0.117310	-0.068542	-0.009583	0.999890	-0.013386	0.003022	-0.005474	
54068	    0	10.681732	-6.839666	-1.475661	-2.353361	0.547617	-1.334614	0.106318	-0.069277	-0.014236	0.999905	-0.011766	0.002738	-0.006673	
54069	    0	10.789352	-4.885639	-1.474580	-1.727340	0.501455	-1.754807	0.107422	-0.049927	-0.014587	0.999921	-0.008636	0.002507	-0.008774	
54070	    0	11.368930	-5.203077	-1.459099	-1.197470	0.575655	-2.336191	0.113029	-0.053441	-0.014600	0.999909	-0.005987	0.002878	-0.011681	
54071	    0	11.255657	-7.757109	-2.658297	-0.594925	0.579093	-2.925223	0.111328	-0.079285	-0.026672	0.999884	-0.002975	0.002895	-0.014626	
54072	    0	11.893803	-8.874585	-2.513291	-0.129325	0.541143	-3.491202	0.117296	-0.090819	-0.025393	0.999844	-0.000647	0.002706	-0.017455	
54073	    0	12.929327	-8.906437	-3.168654	0.035860	0.531994	-3.895057	0.127441	-0.091553	-0.032043	0.999806	0.000179	0.002660	-0.019474	
54074	    0	13.106265	-9.701160	-3.499462	0.168813	0.437006	-4.172632	0.128924	-0.099687	-0.035361	0.999779	0.000844	0.002185	-0.020862	
54075	    0	12.758791	-7.513383	-3.591833	0.104531	0.275634	-4.375045	0.125854	-0.077881	-0.036133	0.999759	0.000523	0.001378	-0.021873	
54076	    0	11.857967	-4.524763	-4.207781	-0.215167	0.136387	-4.479212	0.117497	-0.047933	-0.042108	0.999748	-0.001076	0.000682	-0.022394	
54077	    0	10.399016	-1.087963	-5.990557	-0.799438	0.038913	-4.448316	0.103699	-0.013428	-0.059875	0.999744	-0.003997	0.000195	-0.022240	
54078	    0	10.422440	-0.412930	-7.007603	-1.693679	0.034907	-4.190611	0.104087	-0.006905	-0.070044	0.999744	-0.008468	0.000175	-0.020951	
54079	    0	21.147824	-3.087052	-8.625418	-2.322381	0.075537	-3.692920	0.210815	-0.035767	-0.085938	0.999762	-0.011611	0.000378	-0.018463	
54080	    0	23.276436	-12.318589	-6.820207	-2.079147	0.253503	-3.388629	0.230539	-0.127807	-0.067183	0.999802	-0.010395	0.001267	-0.016942	
54081	    0	22.619168	-13.175620	-4.847106	-1.305265	0.392171	-3.213664	0.223938	-0.135681	-0.048035	0.999847	-0.006526	0.001961	-0.016068	
54082	    0	21.448655	-10.414661	-3.520374	-0.313961	0.351346	-2.924454	0.212871	-0.107323	-0.035412	0.999890	-0.001570	0.001757	-0.014622	
54083	    0	18.250781	-7.819893	-3.129689	0.468458	0.213057	-2.551342	0.181458	-0.080444	-0.031677	0.999915	0.002342	0.001065	-0.012756	
54084	    0	14.127866	-5.054176	-2.913569	0.800532	0.111010	-2.132271	0.140714	-0.051927	-0.029420	0.999934	0.004003	0.000555	-0.010661	
54085	    0	11.048972	-3.837563	-3.410742	1.100176	0.075723	-1.587702	0.110168	-0.039062	-0.034363	0.999953	0.005501	0.000379	-0.007938	
54086	    0	8.827388	-4.499677	-3.759395	1.329246	0.115777	-0.967800	0.088034	-0.045172	-0.037945	0.999966	0.006646	0.000579	-0.004839	
54087	    0	6.448017	-3.973847	-3.564546	1.618404	0.138857	-0.318912	0.064392	-0.039551	-0.036011	0.999966	0.008092	0.000694	-0.001595	
54088	    0	4.154967	-2.529101	-3.376129	1.860837	0.163081	0.373655	0.041569	-0.024898	-0.034028	0.999954	0.009304	0.000815	0.001868	
54089	    0	2.427138	-0.959183	-3.205473	1.850165	0.203900	1.147484	0.024292	-0.009155	-0.032166	0.999940	0.009251	0.001019	0.005737	
54090	    0	1.625702	0.448441	-2.974500	1.569218	0.249297	2.002961	0.016172	0.004880	-0.029728	0.999918	0.007846	0.001246	0.010015	
54091	    0	1.390606	0.885048	-2.902408	1.158952	0.294697	2.868005	0.013733	0.009216	-0.028992	0.999879	0.005795	0.001473	0.014339	
54092	    0	1.525573	0.687978	-2.995927	0.805522	0.297564	3.710780	0.015079	0.007281	-0.029953	0.999818	0.004027	0.001488	0.018553	
54093	    0	1.963245	0.259991	-2.775403	0.547837	0.255797	4.465099	0.019531	0.003113	-0.027771	0.999745	0.002739	0.001279	0.022324	
54094	    0	2.793587	-0.086035	-2.425575	0.381321	0.206970	5.133243	0.027920	-0.000097	-0.024285	0.999668	0.001906	0.001035	0.025663	
54095	    0	3.901097	-0.730652	-1.967974	0.162529	0.149748	5.754885	0.039185	-0.006165	-0.019714	0.999585	0.000813	0.000749	0.028770	
54096	    0	5.172823	-1.332789	-1.368581	-0.068294	0.068867	6.259987	0.052107	-0.011705	-0.013700	0.999510	-0.000341	0.000344	0.031295	
54097	    0	6.550999	-2.087868	-0.967081	-0.138881	-0.041779	6.697572	0.066162	-0.018677	-0.009644	0.999438	-0.000694	-0.000209	0.033482	
54098	    0	8.276517	-2.519804	-0.594837	-0.161968	-0.163876	7.114005	0.083596	-0.022239	-0.005861	0.999367	-0.000810	-0.000819	0.035563	
54099	    0	9.906977	-1.845300	-0.016558	-0.249540	-0.292847	7.525889	0.099670	-0.014709	0.000000	0.999290	-0.001247	-0.001464	0.037621	
54100	    0	11.327718	-1.579491	0.963537	-0.188114	-0.448153	7.904211	0.113761	-0.011295	0.009902	0.999216	-0.000940	-0.002240	0.039511	
54101	    0	12.829053	-1.433070	2.118725	0.158164	-0.665470	8.172609	0.128662	-0.009094	0.021606	0.999159	0.000791	-0.003326	0.040852	
54102	    0	15.087357	-0.519110	2.802538	0.679025	-0.832039	8.324014	0.150800	0.000991	0.028649	0.999119	0.003394	-0.004159	0.041608	
54103	    0	17.969420	1.277239	2.633297	1.236529	-0.870016	8.412442	0.178833	0.020142	0.027222	0.999086	0.006181	-0.004349	0.042049	
54104	    0	20.476719	3.423983	1.329301	1.729737	-0.752682	8.402941	0.203039	0.042675	0.014404	0.999073	0.008646	-0.003762	0.042002	
54105	    0	23.449906	7.987899	-0.926121	1.991871	-0.454658	8.249095	0.230957	0.089539	-0.007874	0.999097	0.009956	-0.002273	0.041233	
54106	    0	25.998532	13.349773	-2.380541	1.961494	-0.073835	7.953197	0.254408	0.143914	-0.022333	0.999161	0.009805	-0.000369	0.039755	
54107	    0	27.170674	18.017892	-4.004687	1.958180	0.131448	7.389342	0.264771	0.190430	-0.038391	0.999269	0.009789	0.000657	0.036938	
54108	    0	26.216423	20.892293	-7.294493	2.242339	0.057804	6.497709	0.255157	0.218090	-0.070608	0.999409	0.011209	0.000289	0.032482	
54109	    0	23.409703	26.028650	-11.323446	2.324236	-0.145551	5.282563	0.227173	0.267639	-0.109985	0.999583	0.011620	-0.000728	0.026409	
54110	    0	17.175180	33.694479	-12.768792	1.798194	-0.445400	3.849704	0.165489	0.341298	-0.124259	0.999771	0.008990	-0.002227	0.019247	
54111	    0	12.957274	39.835202	-9.489861	0.854519	-0.756669	2.495653	0.124939	0.400330	-0.092712	0.999906	0.004272	-0.003783	0.012478	
54112	    0	8.586758	39.391113	-5.423617	0.061036	-0.785262	1.206408	0.083701	0.394437	-0.053784	0.999973	0.000305	-0.003926	0.006032	
54113	    0	7.511094	35.582319	-3.050111	-0.287629	-0.504113	-0.175476	0.075500	0.355713	-0.030823	0.999995	-0.001438	-0.002521	-0.000877	
54114	    0	7.650570	31.067945	-1.851950	-0.053788	-0.292590	-1.401150	0.078707	0.310128	-0.018489	0.999974	-0.000269	-0.001463	-0.007006	
54115	    0	10.740890	25.930868	-2.675267	0.470748	-0.372898	-2.617724	0.110840	0.257935	-0.025940	0.999909	0.002354	-0.001864	-0.013088	
54116	    0	8.443427	18.734916	-1.009691	1.138946	-0.601995	-3.566956	0.087786	0.185856	-0.008775	0.999820	0.005694	-0.003010	-0.017834	
54117	    0	14.557597	0.762463	-6.636678	1.712166	-0.543826	-3.867633	0.145874	0.005371	-0.065918	0.999772	0.008560	-0.002719	-0.019337	
54118	    0	40.775211	-21.787955	-1.219932	2.128642	0.051695	-4.643182	0.402547	-0.227118	-0.014688	0.999674	0.010642	0.000258	-0.023213	
54119	    0	29.463630	13.706539	-1.214617	2.870719	-1.442037	-5.908554	0.298584	0.128418	-0.008118	0.999434	0.014351	-0.007209	-0.029537	
54120	    0	33.190580	23.342701	-0.133473	1.668838	-1.745336	-5.984391	0.338674	0.223344	0.003493	0.999479	0.008343	-0.008725	-0.029917	
54121	    0	24.367082	5.661536	8.180709	-0.631041	-1.768555	-5.543546	0.244385	0.050110	0.083801	0.999572	-0.003155	-0.008842	-0.027714	
54122	    0	0.176483	7.837542	3.300636	-0.570366	-1.839669	-5.030286	0.003434	0.078397	0.032809	0.999637	-0.002851	-0.009197	-0.025148	
54123	    0	-0.333302	9.900760	-6.044196	0.058942	-1.504649	-4.333113	-0.000732	0.099060	-0.060425	0.999737	0.000295	-0.007523	-0.021664	
54124	    0	4.070758	8.262734	-6.879429	-0.146875	-1.236231	-3.697058	0.042649	0.081800	-0.068595	0.999809	-0.000734	-0.006181	-0.018484	
54125	    0	1.499439	5.211139	-5.753892	-0.810088	-0.898021	-3.085468	0.016052	0.051636	-0.057678	0.999863	-0.004050	-0.004490	-0.015427	
54126	    0	9.686063	4.747290	-4.612895	-0.572796	-0.668549	-2.727793	0.097649	0.046013	-0.045937	0.999897	-0.002864	-0.003343	-0.013638	
54127	    0	14.966209	4.892036	-6.284040	-0.382244	-0.574320	-2.564315	0.150452	0.046875	-0.062500	0.999911	-0.001911	-0.002872	-0.012821	
54128	    0	11.797115	6.671135	-8.358091	-0.686280	-0.386247	-2.234702	0.118866	0.065100	-0.083577	0.999929	-0.003431	-0.001931	-0.011173	
54129	    0	12.662437	2.928918	-6.135203	-0.493631	-0.321013	-2.058450	0.127014	0.027832	-0.061218	0.999942	-0.002468	-0.001605	-0.010292	
54130	    0	17.028120	4.643785	-3.667238	-0.298314	-0.243381	-1.878767	0.170752	0.044781	-0.036532	0.999953	-0.001492	-0.001217	-0.009394	
54131	    0	15.496089	5.477432	-3.485783	-0.450902	-0.165369	-1.504532	0.155396	0.053528	-0.034851	0.999969	-0.002254	-0.000827	-0.007523	
54132	    0	11.123847	3.641097	-4.887959	-0.516514	0.013542	-1.241693	0.111458	0.035593	-0.048980	0.999977	-0.002583	0.000068	-0.006208	
54133	    0	11.731684	5.303813	-6.301450	-0.474551	0.158883	-1.093299	0.117554	0.052246	-0.063232	0.999982	-0.002373	0.000794	-0.005466	
54134	    0	16.372838	5.758064	-5.648831	-0.725751	0.337794	-0.981910	0.163912	0.056570	-0.056972	0.999979	-0.003629	0.001689	-0.004910	
54135	    0	17.289760	2.908261	-5.248620	-1.051148	0.396732	-0.843055	0.172913	0.028076	-0.052979	0.999975	-0.005256	0.001984	-0.004215	
54136	    0	17.939924	0.812919	-3.515406	-1.306738	0.443272	-0.778588	0.179350	0.007199	-0.035601	0.999969	-0.006534	0.002216	-0.003893	
54137	    0	18.993702	3.229178	-2.378602	-1.692035	0.443275	-0.752270	0.190002	0.031372	-0.024475	0.999954	-0.008460	0.002216	-0.003761	
54138	    0	19.715521	1.681348	-0.805553	-2.179577	0.469028	-0.686089	0.197191	0.016045	-0.008696	0.999931	-0.010898	0.002345	-0.003430	
54139	    0	17.958902	-2.465789	0.154032	-2.425260	0.422680	-0.700398	0.179504	-0.025269	0.001465	0.999918	-0.012126	0.002113	-0.003502	
54140	    0	16.515081	-2.346833	0.532164	-2.530174	0.405133	-0.794816	0.165067	-0.024057	0.005289	0.999909	-0.012650	0.002026	-0.003974	
54141	    0	16.183635	-2.259214	0.449570	-2.621546	0.422873	-0.891142	0.161743	-0.023254	0.004456	0.999902	-0.013107	0.002114	-0.004456	
54142	    0	15.303438	-4.218443	0.373407	-2.705288	0.459497	-0.977360	0.152835	-0.042879	0.003960	0.999893	-0.013526	0.002297	-0.004887	
54143	    0	13.737291	-7.422916	0.415046	-2.828135	0.560019	-0.969733	0.137024	-0.074829	0.004822	0.999884	-0.014140	0.002800	-0.004848	
54144	    0	11.401840	-9.272984	-0.508468	-2.632614	0.639175	-0.998913	0.113539	-0.093357	-0.004222	0.999895	-0.013163	0.003196	-0.004994	
54145	    0	9.817369	-8.784857	-2.016617	-2.041680	0.672358	-1.296268	0.097534	-0.088684	-0.019592	0.999921	-0.010208	0.003362	-0.006481	
54146	    0	9.415618	-6.899458	-3.209423	-1.271848	0.646606	-1.823657	0.093417	-0.070052	-0.031954	0.999932	-0.006359	0.003233	-0.009118	
54147	    0	9.996051	-5.786213	-4.224999	-0.646800	0.600450	-2.424689	0.099121	-0.059204	-0.042358	0.999916	-0.003234	0.003002	-0.012123	
54148	    0	11.147372	-5.388113	-3.539217	-0.190170	0.577186	-3.002475	0.110545	-0.055579	-0.035660	0.999883	-0.000951	0.002886	-0.015012	
54149	    0	12.102798	-6.147390	-4.633808	0.173959	0.497653	-3.500549	0.119812	-0.063538	-0.046692	0.999843	0.000870	0.002488	-0.017502	
54150	    0	13.284607	-7.427270	-4.458548	0.354410	0.416212	-4.012000	0.131228	-0.076837	-0.044994	0.999795	0.001772	0.002081	-0.020059	
54151	    0	13.956705	-8.115709	-4.529131	0.271628	0.273345	-4.353679	0.137695	-0.084106	-0.045593	0.999761	0.001358	0.001367	-0.021767	
54152	    0	13.896354	-8.112380	-4.031211	0.035861	0.209254	-4.562202	0.137023	-0.084257	-0.040471	0.999739	0.000179	0.001046	-0.022809	
54153	    0	13.898334	-7.745483	-3.701395	-0.262476	0.113116	-4.713878	0.137085	-0.080750	-0.036987	0.999721	-0.001312	0.000566	-0.023567	
54154	    0	13.176555	-5.789113	-4.450833	-0.560624	-0.007058	-4.766540	0.130336	-0.061133	-0.044335	0.999712	-0.002803	-0.000035	-0.023830	
54155	    0	13.555630	-4.014891	-6.412565	-0.890243	-0.048833	-4.662761	0.134583	-0.043579	-0.063904	0.999718	-0.004451	-0.000244	-0.023312	
54156	    0	18.565665	-2.298302	-7.730712	-1.395727	0.101861	-4.318036	0.185056	-0.027522	-0.077220	0.999742	-0.006978	0.000509	-0.021588	
54157	    0	27.015341	-7.100039	-8.615800	-1.640436	0.292417	-3.772240	0.268616	-0.076782	-0.085938	0.999787	-0.008202	0.001462	-0.018860	
54158	    0	26.093997	-13.600673	-4.576179	-1.378518	0.420594	-3.367040	0.258502	-0.140686	-0.045348	0.999832	-0.006892	0.002103	-0.016834	
54159	    0	22.353801	-12.658308	-2.475443	-0.612474	0.323499	-3.011442	0.221558	-0.130005	-0.024719	0.999880	-0.003062	0.001617	-0.015057	
54160	    0	17.469408	-9.902308	-1.395366	0.008583	0.115207	-2.559160	0.173400	-0.101247	-0.014058	0.999917	0.000043	0.000576	-0.012795	
54161	    0	12.771554	-6.638152	-1.670198	0.270086	-0.012779	-2.088967	0.127014	-0.067688	-0.016785	0.999944	0.001350	-0.000064	-0.010445	
54162	    0	9.892338	-4.966306	-2.091233	0.446134	-0.064660	-1.543634	0.098543	-0.050378	-0.020992	0.999968	0.002231	-0.000323	-0.007718	
54163	    0	7.960937	-4.548929	-2.502738	0.623325	-0.058556	-0.919347	0.079407	-0.045776	-0.025146	0.999984	0.003117	-0.000293	-0.004597	
54164	    0	5.963618	-3.711576	-2.541838	0.817111	-0.035286	-0.261117	0.059592	-0.037089	-0.025559	0.999990	0.004086	-0.000176	-0.001306	
54165	    0	4.132294	-2.584916	-2.447193	0.986676	-0.007629	0.450899	0.041382	-0.025635	-0.024597	0.999985	0.004933	-0.000038	0.002254	
54166	    0	2.872891	-1.363386	-2.530955	1.068890	0.031662	1.232733	0.028808	-0.013321	-0.025386	0.999967	0.005344	0.000158	0.006164	
54167	    0	2.322184	-0.438351	-2.450694	0.946256	0.082399	2.057692	0.023254	-0.004028	-0.024536	0.999935	0.004731	0.000412	0.010288	
54168	    0	2.311163	-0.033549	-2.402136	0.776129	0.103764	2.881157	0.023100	0.000091	-0.024034	0.999888	0.003881	0.000519	0.014405	
54169	    0	2.663552	0.010818	-2.476527	0.599133	0.123603	3.673766	0.026611	0.000671	-0.024780	0.999826	0.002995	0.000618	0.018368	
54170	    0	3.133299	-0.238658	-2.172268	0.417171	0.121508	4.410151	0.031362	-0.001650	-0.021746	0.999754	0.002086	0.000607	0.022049	
54171	    0	3.606781	-0.838640	-1.901543	0.296052	0.088701	5.038987	0.036255	-0.007446	-0.019043	0.999681	0.001480	0.000443	0.025192	
54172	    0	4.513925	-1.566018	-1.461119	0.212697	0.014879	5.566935	0.045550	-0.014380	-0.014630	0.999612	0.001063	0.000074	0.027831	
54173	    0	5.977842	-2.240545	-1.300182	0.184850	-0.069438	6.060193	0.060425	-0.020569	-0.013000	0.999540	0.000924	-0.000347	0.030296	
54174	    0	7.510382	-2.544290	-1.293301	0.155095	-0.152806	6.504444	0.075888	-0.022973	-0.012894	0.999470	0.000775	-0.000764	0.032516	
54175	    0	8.890394	-2.366158	-1.039751	0.097866	-0.208324	6.905976	0.089661	-0.020569	-0.010315	0.999403	0.000489	-0.001041	0.034523	
54176	    0	9.506458	-1.817078	-0.221527	0.235610	-0.318598	7.278146	0.095645	-0.014694	-0.002082	0.999335	0.001178	-0.001593	0.036383	
54177	    0	10.721920	-1.484961	0.477534	0.569289	-0.491260	7.551861	0.107666	-0.010803	0.005005	0.999280	0.002846	-0.002456	0.037750	
54178	    0	12.384409	-0.853669	0.961827	1.039966	-0.668699	7.798504	0.124020	-0.003754	0.010005	0.999220	0.005198	-0.003343	0.038982	
54179	    0	14.683918	-0.108844	1.633489	1.536987	-0.750750	7.980273	0.146667	0.004639	0.016907	0.999167	0.007683	-0.003753	0.039890	
54180	    0	17.183893	1.092986	1.078829	2.051951	-0.750188	8.072153	0.171172	0.017733	0.011590	0.999125	0.010257	-0.003750	0.040349	
54181	    0	20.241547	4.383955	-0.213677	2.242170	-0.543944	8.039911	0.200439	0.051941	-0.001038	0.999125	0.011208	-0.002719	0.040188	
54182	    0	23.129639	8.697086	-1.617673	2.196163	-0.194413	7.890810	0.227637	0.096170	-0.014932	0.999161	0.010978	-0.000972	0.039443	
54183	    0	24.785717	12.168008	-2.461621	2.090995	0.081083	7.600082	0.242981	0.131226	-0.023376	0.999223	0.010452	0.000405	0.037991	
54184	    0	25.268433	16.448955	-4.003826	2.165143	0.142702	7.068718	0.246625	0.173700	-0.038368	0.999316	0.010823	0.000713	0.035336	
54185	    0	23.698479	20.414609	-6.679094	2.235252	0.055705	6.261071	0.230408	0.212158	-0.064514	0.999447	0.011174	0.000278	0.031300	
54186	    0	20.402847	24.892621	-9.836755	2.081564	-0.136965	5.121884	0.197615	0.255047	-0.095597	0.999618	0.010406	-0.000685	0.025606	
54187	    0	16.636433	31.155391	-10.150765	1.513971	-0.386075	3.841675	0.160522	0.315430	-0.098816	0.999784	0.007569	-0.001930	0.019207	
54188	    0	13.194649	36.026224	-7.361201	0.726722	-0.600643	2.564510	0.127528	0.362180	-0.071911	0.999907	0.003633	-0.003003	0.012822	
54189	    0	9.641430	37.238527	-4.109698	-0.057793	-0.527195	1.290904	0.094116	0.372986	-0.040955	0.999975	-0.000289	-0.002636	0.006454	
54190	    0	9.015094	35.267046	-2.537379	-0.611497	-0.292206	0.111389	0.089993	0.352641	-0.026320	0.999993	-0.003057	-0.001461	0.000557	
54191	    0	11.561960	32.445081	-2.728599	-0.823982	-0.200464	-1.139078	0.117493	0.323669	-0.028503	0.999974	-0.004120	-0.001002	-0.005695	
54192	    0	8.425622	27.289865	-2.473098	-0.483333	-0.234418	-2.267507	0.087372	0.271859	-0.025288	0.999931	-0.002417	-0.001172	-0.011337	
54193	    0	11.600756	26.062993	-11.971140	0.721208	-0.717966	-3.496745	0.120972	0.258972	-0.118347	0.999834	0.003606	-0.003590	-0.017483	
54194	    0	36.798113	17.301530	-7.410399	1.091149	0.147267	-5.545019	0.372541	0.163130	-0.073469	0.999600	0.005455	0.000736	-0.027721	
54195	    0	36.771847	4.721052	-2.720078	1.102040	-1.060644	-5.789286	0.369019	0.036682	-0.025024	0.999552	0.005509	-0.005302	-0.028942	
54196	    0	24.469089	-2.732918	-1.415901	1.746661	-2.088706	-5.732354	0.243908	-0.034218	-0.011888	0.999496	0.008732	-0.010442	-0.028657	
54197	    0	19.583032	2.973114	9.333077	0.316095	-1.758075	-5.715270	0.195740	0.023987	0.095093	0.999552	0.001580	-0.008789	-0.028572	
54198	    0	4.330355	26.085170	6.276270	0.084316	-1.857629	-5.405017	0.049744	0.259539	0.063314	0.999591	0.000422	-0.009287	-0.027021	
54199	    0	-0.358013	13.005269	-7.421224	0.287843	-1.580945	-4.226282	-0.000244	0.130188	-0.074036	0.999744	0.001439	-0.007904	-0.021130	
54200	    0	2.456887	7.189744	-6.599474	0.165758	-1.242137	-3.514112	0.026237	0.071501	-0.065776	0.999825	0.000829	-0.006210	-0.017570	
54201	    0	5.126572	3.946365	-5.607014	-0.315106	-0.861963	-2.858078	0.052063	0.038635	-0.055908	0.999887	-0.001575	-0.004310	-0.014290	
54202	    0	12.363129	4.668215	-3.842299	-0.334368	-0.719665	-2.583010	0.124357	0.045015	-0.038053	0.999908	-0.001672	-0.003598	-0.012915	
54203	    0	15.737649	4.629459	-4.667876	-0.309762	-0.690288	-2.421635	0.158081	0.044312	-0.046204	0.999919	-0.001549	-0.003451	-0.012108	
54204	    0	11.798133	7.337284	-6.391325	-0.608647	-0.490580	-2.073521	0.118889	0.071949	-0.063843	0.999938	-0.003043	-0.002453	-0.010367	
54205	    0	12.796647	2.535196	-5.153098	-0.363165	-0.382048	-1.889068	0.128296	0.024048	-0.051331	0.999951	-0.001816	-0.001910	-0.009445	
54206	    0	16.910797	5.177541	-5.666746	-0.211719	-0.326924	-1.749825	0.169644	0.050233	-0.056444	0.999959	-0.001059	-0.001635	-0.008749	
54207	    0	14.575119	3.851007	-6.495690	-0.466732	-0.141908	-1.377118	0.146057	0.037354	-0.064941	0.999973	-0.002334	-0.000710	-0.006886	
54208	    0	10.849239	3.321040	-7.374792	-0.404170	0.085068	-1.175316	0.108653	0.032423	-0.073860	0.999980	-0.002021	0.000425	-0.005877	
54209	    0	11.871663	6.145383	-7.231801	-0.350954	0.348093	-1.004034	0.118896	0.060730	-0.072632	0.999984	-0.001755	0.001740	-0.005020	
54210	    0	14.834357	6.173210	-6.884628	-0.522807	0.616649	-0.823979	0.148382	0.060940	-0.069464	0.999983	-0.002614	0.003083	-0.004120	
54211	    0	18.479519	2.842830	-6.458017	-0.792700	0.800520	-0.696569	0.184631	0.027527	-0.065430	0.999978	-0.003963	0.004003	-0.003483	
54212	    0	19.744494	0.616027	-4.714005	-0.958069	0.854500	-0.640684	0.197259	0.005300	-0.048010	0.999974	-0.004790	0.004272	-0.003203	
54213	    0	20.262663	2.352936	-2.828643	-1.321236	0.847636	-0.624855	0.202576	0.022705	-0.029297	0.999964	-0.006606	0.004238	-0.003124	
54214	    0	20.774352	1.512838	-1.182613	-1.854359	0.835434	-0.570880	0.207733	0.014420	-0.012830	0.999944	-0.009272	0.004177	-0.002854	
54215	    0	19.363870	-1.579696	0.276990	-2.240045	0.715082	-0.543989	0.193604	-0.016296	0.002258	0.999927	-0.011200	0.003575	-0.002720	
54216	    0	17.534297	-1.930274	1.207997	-2.504040	0.609797	-0.608843	0.175320	-0.019688	0.011790	0.999912	-0.012520	0.003049	-0.003044	
54217	    0	16.746856	-2.744295	1.367312	-2.768613	0.531787	-0.617239	0.167419	-0.027771	0.013611	0.999895	-0.013843	0.002659	-0.003086	
54218	    0	15.744448	-5.305678	1.720400	-2.945822	0.486011	-0.556013	0.157339	-0.053237	0.017605	0.999885	-0.014729	0.002430	-0.002780	
54219	    0	13.514216	-7.393047	1.883658	-2.985309	0.515767	-0.492878	0.135010	-0.073975	0.019592	0.999882	-0.014926	0.002579	-0.002464	
54220	    0	11.288688	-7.938687	0.769392	-2.721305	0.569935	-0.503748	0.112710	-0.079559	0.008454	0.999900	-0.013606	0.002850	-0.002519	
54221	    0	9.783836	-8.573759	-0.541124	-2.234704	0.635735	-0.670640	0.097534	-0.086121	-0.004761	0.999927	-0.011173	0.003179	-0.003353	
54222	    0	8.551814	-6.012454	-2.456178	-1.433204	0.620279	-1.139277	0.085097	-0.060785	-0.024392	0.999953	-0.007166	0.003101	-0.005696	
54223	    0	8.962350	-3.693506	-3.369718	-0.906199	0.641644	-1.824223	0.089172	-0.037903	-0.033813	0.999943	-0.004531	0.003208	-0.009121	
54224	    0	8.829870	-3.405502	-3.848216	-0.503554	0.575844	-2.443953	0.087762	-0.035227	-0.038648	0.999918	-0.002518	0.002879	-0.012219	
54225	    0	9.480205	-4.358997	-3.407559	-0.232515	0.460070	-2.999231	0.094055	-0.045044	-0.034241	0.999884	-0.001163	0.002300	-0.014996	
54226	    0	10.588333	-6.336102	-3.375699	0.059322	0.390454	-3.465828	0.104698	-0.065172	-0.033981	0.999847	0.000297	0.001952	-0.017328	
54227	    0	10.612291	-7.910396	-3.150127	0.340484	0.306722	-3.933210	0.104492	-0.081116	-0.031799	0.999804	0.001702	0.001534	-0.019665	
54228	    0	10.801795	-7.270624	-2.649923	0.513117	0.247784	-4.321631	0.106381	-0.074948	-0.026822	0.999762	0.002565	0.001239	-0.021606	
54229	    0	11.598362	-6.244109	-2.595124	0.416792	0.172439	-4.549041	0.114502	-0.065002	-0.026184	0.999739	0.002084	0.000862	-0.022743	
54230	    0	11.425776	-4.076083	-3.619101	-0.112353	0.122654	-4.699949	0.113235	-0.043450	-0.036237	0.999723	-0.000562	0.000613	-0.023498	
54231	    0	11.434835	-0.282418	-4.227732	-1.248289	0.193996	-4.636829	0.114197	-0.005737	-0.042358	0.999711	-0.006241	0.000970	-0.023182	
54232	    0	15.908585	-3.229666	-4.482023	-2.411710	0.292999	-4.343290	0.158261	-0.036279	-0.044631	0.999690	-0.012057	0.001465	-0.021714	
54233	    0	16.292212	-9.409182	-2.995414	-3.042171	0.400778	-4.089038	0.160889	-0.097839	-0.028809	0.999673	-0.015209	0.002004	-0.020443	
54234	    0	16.676591	-10.452189	-2.391813	-2.894306	0.554903	-3.881457	0.164627	-0.108067	-0.022830	0.999702	-0.014470	0.002774	-0.019405	
54235	    0	19.845994	-10.471821	-2.647056	-2.122469	0.740871	-3.637973	0.196411	-0.108582	-0.026062	0.999771	-0.010612	0.003704	-0.018188	
54236	    0	22.209521	-10.829652	-3.183816	-1.319388	0.853015	-3.336142	0.220109	-0.112190	-0.032048	0.999829	-0.006597	0.004265	-0.016680	
54237	    0	21.369797	-11.071265	-2.361165	-0.591303	0.839459	-2.982454	0.211914	-0.113953	-0.024170	0.999875	-0.002956	0.004197	-0.014912	
54238	    0	17.584423	-9.191195	-1.829996	-0.068094	0.647946	-2.622112	0.174559	-0.094213	-0.018835	0.999908	-0.000340	0.003240	-0.013110	
54239	    0	13.971242	-6.879558	-1.267848	0.082399	0.509082	-2.187393	0.138916	-0.070312	-0.013062	0.999936	0.000412	0.002545	-0.010937	
54240	    0	11.209872	-5.668267	-1.475188	0.289921	0.427442	-1.653120	0.111593	-0.057585	-0.015074	0.999962	0.001450	0.002137	-0.008265	
54241	    0	9.406499	-5.829928	-2.725365	0.673871	0.421909	-1.085671	0.093689	-0.058716	-0.027649	0.999977	0.003369	0.002110	-0.005428	
54242	    0	7.962749	-4.931816	-3.594221	1.111038	0.414088	-0.502018	0.079429	-0.049316	-0.036381	0.999979	0.005555	0.002070	-0.002510	
54243	    0	6.305408	-2.515580	-4.029222	1.371777	0.396923	0.116731	0.062988	-0.024841	-0.040588	0.999974	0.006859	0.001985	0.000584	
54244	    0	4.825306	-0.480185	-3.929143	1.407640	0.434690	0.840579	0.048186	-0.004322	-0.039428	0.999964	0.007038	0.002173	0.004203	
54245	    0	4.214862	0.714804	-4.011079	1.283479	0.469980	1.644929	0.041992	0.007751	-0.040161	0.999943	0.006417	0.002350	0.008224	
54246	    0	4.086507	0.965334	-3.903132	1.090656	0.480667	2.460938	0.040647	0.010367	-0.039074	0.999906	0.005453	0.002403	0.012304	
54247	    0	4.238698	1.016372	-4.316639	0.908705	0.451873	3.257146	0.042114	0.011047	-0.043213	0.999854	0.004543	0.002259	0.016285	
54248	    0	4.497509	0.910587	-4.440478	0.758606	0.397138	4.007620	0.044690	0.010172	-0.044456	0.999789	0.003793	0.001986	0.020037	
54249	    0	4.853541	0.728029	-4.407997	0.611934	0.303106	4.671149	0.048279	0.008545	-0.044128	0.999721	0.003059	0.001515	0.023354	
54250	    0	5.577283	0.602523	-4.330777	0.445418	0.192092	5.273291	0.055545	0.007588	-0.043345	0.999649	0.002227	0.000960	0.026363	
54251	    0	6.575772	0.340269	-4.412309	0.273362	0.035863	5.811366	0.065613	0.005371	-0.044128	0.999577	0.001367	0.000179	0.029053	
54252	    0	7.717684	0.094259	-4.570126	0.089470	-0.148416	6.309412	0.077129	0.003397	-0.045643	0.999501	0.000447	-0.000742	0.031542	
54253	    0	8.631503	0.259429	-4.300709	-0.050364	-0.374484	6.744904	0.086243	0.005493	-0.042847	0.999429	-0.000252	-0.001872	0.033718	
54254	    0	9.163662	0.251325	-3.747693	-0.061430	-0.599416	7.105044	0.091582	0.005756	-0.037204	0.999364	-0.000307	-0.002996	0.035518	
54255	    0	10.285861	0.514231	-3.390713	0.090048	-0.888078	7.422841	0.102722	0.008972	-0.033447	0.999301	0.000450	-0.004439	0.037106	
54256	    0	11.842431	1.332746	-2.617686	0.253168	-1.150800	7.656868	0.117946	0.017882	-0.025476	0.999249	0.001266	-0.005753	0.038275	
54257	    0	13.302203	1.954008	-2.135832	0.554803	-1.371173	7.820668	0.132263	0.024780	-0.020386	0.999207	0.002773	-0.006854	0.039093	
54258	    0	15.319140	2.929813	-2.119472	0.971106	-1.520573	7.900301	0.152027	0.035419	-0.019874	0.999179	0.004854	-0.007601	0.039491	
54259	    0	17.699145	4.676905	-2.811349	1.427856	-1.568086	7.886408	0.175171	0.053894	-0.026367	0.999166	0.007137	-0.007838	0.039421	
54260	    0	19.538048	6.839554	-3.101377	1.887265	-1.598604	7.711801	0.192780	0.076142	-0.028771	0.999180	0.009434	-0.007991	0.038548	
54261	    0	21.776742	11.666678	-2.019377	1.840870	-1.615555	7.429110	0.213379	0.124817	-0.017334	0.999235	0.009202	-0.008076	0.037136	
54262	    0	23.831144	18.332242	1.424488	1.156104	-1.262557	7.010837	0.231594	0.191428	0.016812	0.999349	0.005779	-0.006311	0.035047	
54263	    0	21.610753	19.597115	2.435732	0.741710	-0.907869	6.442649	0.209534	0.202698	0.026062	0.999463	0.003708	-0.004539	0.032207	
54264	    0	20.825495	19.366558	-0.212300	0.981465	-0.578768	5.606271	0.202722	0.199406	-0.000562	0.999591	0.004907	-0.002893	0.028028	
54265	    0	19.897020	21.276590	-3.529253	1.296354	-0.330956	4.515493	0.194153	0.217407	-0.033569	0.999722	0.006481	-0.001655	0.022575	
54266	    0	15.813452	25.978371	-5.920118	1.508226	-0.388930	3.334234	0.153882	0.262808	-0.056925	0.999830	0.007541	-0.001945	0.016670	
54267	    0	11.162234	31.842284	-5.727361	1.216349	-0.617998	2.164518	0.108337	0.319946	-0.054993	0.999918	0.006082	-0.003090	0.010822	
54268	    0	7.031592	34.856704	-2.788177	0.476650	-0.690847	1.084718	0.068518	0.349007	-0.026812	0.999976	0.002383	-0.003454	0.005424	
54269	    0	7.663767	32.089515	1.037676	-0.209046	-0.555230	0.044251	0.076538	0.320923	0.010254	0.999995	-0.001045	-0.002776	0.000221	
54270	    0	9.248889	26.841944	3.722159	-0.417521	-0.393488	-0.916485	0.093645	0.268069	0.036845	0.999985	-0.002088	-0.001967	-0.004582	
54271	    0	11.104511	22.957952	3.982698	-0.211337	-0.373655	-1.751733	0.112976	0.228638	0.039795	0.999959	-0.001057	-0.001868	-0.008759	
54272	    0	6.723720	19.533368	4.108302	0.388155	-0.544371	-2.327022	0.069390	0.194454	0.041648	0.999927	0.001941	-0.002722	-0.011635	
54273	    0	5.853751	18.561148	-14.698774	1.921194	-1.197695	-2.996239	0.062195	0.186096	-0.144836	0.999824	0.009605	-0.005988	-0.014980	
54274	    0	35.433451	13.835822	-17.749954	2.559840	-0.380952	-5.284309	0.358199	0.131179	-0.175110	0.999567	0.012797	-0.001904	-0.026418	
54275	    0	43.253187	14.845040	6.304037	1.440074	-1.000364	-5.738929	0.436218	0.135498	0.066223	0.999550	0.007199	-0.005001	-0.028690	
54276	    0	26.672047	2.569717	-1.702491	0.995377	-1.899381	-5.000540	0.267398	0.019093	-0.014381	0.999630	0.004976	-0.009496	-0.025000	
54277	    0	20.603430	1.925109	10.216676	-0.484336	-1.585584	-5.190919	0.205627	0.014160	0.103760	0.999628	-0.002421	-0.007927	-0.025951	
54278	    0	3.848280	19.705811	3.466428	-0.102054	-1.708976	-4.758961	0.042859	0.196091	0.034918	0.999680	-0.000510	-0.008544	-0.023792	
54279	    0	5.397293	11.351381	-4.747656	0.137530	-1.442828	-4.018708	0.056580	0.112427	-0.046997	0.999771	0.000688	-0.007214	-0.020092	
54280	    0	5.061464	8.511400	-7.458869	-0.222408	-1.131686	-3.263827	0.052415	0.084186	-0.074389	0.999849	-0.001112	-0.005658	-0.016318	
54281	    0	2.309319	3.447787	-4.677235	-0.494210	-0.883512	-2.590263	0.023743	0.034058	-0.046753	0.999903	-0.002471	-0.004417	-0.012951	
54282	    0	9.124105	4.716492	-6.258243	-0.316056	-0.628487	-2.356779	0.091984	0.045985	-0.062367	0.999924	-0.001580	-0.003142	-0.011784	
54283	    0	15.322969	6.933374	-6.901511	-0.680366	-0.439463	-2.152300	0.154114	0.067444	-0.068909	0.999933	-0.003402	-0.002197	-0.010761	
54284	    0	11.610965	3.206680	-7.114495	-0.917450	-0.294690	-1.770812	0.116490	0.030710	-0.071116	0.999949	-0.004587	-0.001473	-0.008854	
54285	    0	13.075458	2.687044	-5.015892	-0.450140	-0.257686	-1.715111	0.131042	0.025635	-0.050049	0.999959	-0.002251	-0.001288	-0.008575	
54286	    0	16.609958	6.210475	-4.512502	-0.448232	-0.137331	-1.509873	0.166593	0.060747	-0.045148	0.999969	-0.002241	-0.000687	-0.007549	
54287	    0	15.445731	2.936524	-5.996494	-0.737768	0.063515	-1.144418	0.154602	0.028259	-0.060120	0.999976	-0.003689	0.000318	-0.005722	
54288	    0	12.789035	2.306671	-6.604332	-0.679020	0.267603	-0.975996	0.127912	0.022218	-0.066291	0.999981	-0.003395	0.001338	-0.004880	
54289	    0	13.637872	4.939087	-7.196921	-0.644497	0.472262	-0.841527	0.136414	0.048584	-0.072449	0.999983	-0.003222	0.002361	-0.004208	
54290	    0	17.693164	5.157494	-7.157073	-0.915535	0.734717	-0.793464	0.176868	0.050543	-0.072453	0.999974	-0.004578	0.003674	-0.003967	
54291	    0	20.200480	0.342522	-5.473928	-1.210798	0.839433	-0.703438	0.201782	0.002380	-0.055603	0.999967	-0.006054	0.004197	-0.003517	
54292	    0	20.327554	-0.099227	-3.256256	-1.443883	0.862706	-0.699053	0.203127	-0.001942	-0.033427	0.999958	-0.007219	0.004313	-0.003495	
54293	    0	21.152368	2.273093	-1.245926	-1.810299	0.841538	-0.719465	0.211548	0.021851	-0.013550	0.999943	-0.009051	0.004208	-0.003597	
54294	    0	20.887440	-0.563319	0.587250	-2.311387	0.797293	-0.664920	0.208876	-0.006266	0.005110	0.999919	-0.011557	0.003986	-0.003325	
54295	    0	18.363259	-4.320207	1.293427	-2.600181	0.676940	-0.659964	0.183533	-0.043640	0.012878	0.999904	-0.013000	0.003385	-0.003300	
54296	    0	17.160818	-3.692471	1.654634	-2.782159	0.613235	-0.730350	0.171523	-0.037321	0.016538	0.999891	-0.013910	0.003066	-0.003652	
54297	    0	16.612671	-4.365153	1.722933	-2.899854	0.566886	-0.730161	0.166016	-0.044006	0.017395	0.999884	-0.014499	0.002834	-0.003651	
54298	    0	14.732227	-6.952271	2.383384	-3.010874	0.597978	-0.683813	0.147157	-0.069661	0.024442	0.999876	-0.015054	0.002990	-0.003419	
54299	    0	11.662755	-9.803721	1.570632	-2.817446	0.626396	-0.580618	0.116394	-0.098145	0.016724	0.999891	-0.014087	0.003132	-0.002903	
54300	    0	9.361104	-9.605725	0.492003	-2.151731	0.730532	-0.705354	0.093291	-0.096329	0.005614	0.999928	-0.010758	0.003653	-0.003527	
54301	    0	8.440457	-7.136674	-1.885194	-1.223009	0.772296	-1.139085	0.083923	-0.071960	-0.018738	0.999957	-0.006115	0.003861	-0.005695	
54302	    0	8.427469	-3.338538	-3.170232	-0.507364	0.790419	-1.844439	0.083836	-0.034241	-0.031948	0.999946	-0.002537	0.003952	-0.009222	
54303	    0	8.308431	-3.382994	-3.833757	-0.044824	0.738546	-2.448339	0.082520	-0.034851	-0.038635	0.999918	-0.000224	0.003693	-0.012241	
54304	    0	8.835690	-3.821671	-4.458147	0.364128	0.582528	-3.052645	0.087630	-0.039476	-0.044909	0.999877	0.001821	0.002913	-0.015263	
54305	    0	10.637905	-5.127935	-3.992677	0.701181	0.441958	-3.597464	0.105347	-0.053040	-0.040344	0.999829	0.003506	0.002210	-0.017986	
54306	    0	11.110905	-5.774402	-3.185223	0.817740	0.356128	-4.073057	0.109847	-0.059858	-0.032290	0.999783	0.004088	0.001781	-0.020364	
54307	    0	11.215827	-6.443030	-2.881161	0.811073	0.281739	-4.426187	0.110657	-0.066772	-0.029236	0.999745	0.004055	0.001409	-0.022129	
54308	    0	11.769304	-4.688060	-3.585577	0.477453	0.148024	-4.647678	0.116536	-0.049512	-0.036058	0.999726	0.002387	0.000740	-0.023236	
54309	    0	10.745423	-0.096300	-5.402956	-0.588854	0.103770	-4.729910	0.107361	-0.003662	-0.054077	0.999716	-0.002944	0.000519	-0.023647	
54310	    0	12.518647	0.766811	-5.447592	-2.245568	0.218605	-4.506016	0.125248	0.004233	-0.054673	0.999682	-0.011227	0.001093	-0.022528	
54311	    0	16.116002	-5.177925	-4.882001	-3.553272	0.383045	-4.230277	0.159912	-0.056030	-0.048157	0.999617	-0.017764	0.001915	-0.021149	
54312	    0	15.848112	-11.052258	-3.179927	-4.052914	0.518680	-4.064359	0.156104	-0.114330	-0.029915	0.999584	-0.020262	0.002593	-0.020319	
54313	    0	16.264322	-11.464290	-2.869183	-3.769960	0.687494	-3.877739	0.160278	-0.118286	-0.027039	0.999628	-0.018847	0.003437	-0.019386	
54314	    0	19.668182	-11.366213	-3.380982	-2.900588	0.906458	-3.659403	0.194402	-0.117716	-0.033007	0.999717	-0.014502	0.004532	-0.018295	
54315	    0	23.299729	-12.023892	-3.587031	-1.855403	1.055216	-3.403702	0.230713	-0.124512	-0.035950	0.999798	-0.009276	0.005276	-0.017017	
54316	    0	22.900978	-11.589376	-3.755629	-0.853198	0.952576	-3.144224	0.226968	-0.119635	-0.038136	0.999856	-0.004266	0.004763	-0.015720	
54317	    0	19.760320	-10.038437	-3.329647	-0.099186	0.763920	-2.796271	0.196045	-0.103149	-0.033997	0.999894	-0.000496	0.003819	-0.013981	
54318	    0	15.333717	-7.289939	-2.363050	0.211149	0.631540	-2.427165	0.152362	-0.074727	-0.024191	0.999920	0.001056	0.003158	-0.012136	
54319	    0	11.830200	-5.934599	-1.831475	0.545702	0.543223	-1.916538	0.117676	-0.060425	-0.018799	0.999947	0.002728	0.002716	-0.009583	
54320	    0	9.997089	-6.196420	-3.021712	1.048102	0.506599	-1.370639	0.099466	-0.062487	-0.030796	0.999959	0.005240	0.002533	-0.006853	
54321	    0	8.426410	-5.573301	-3.933234	1.540396	0.514419	-0.855267	0.083923	-0.055786	-0.039978	0.999957	0.007702	0.002572	-0.004276	
54322	    0	6.352561	-3.882573	-4.352442	2.009810	0.489244	-0.290876	0.063362	-0.038477	-0.044067	0.999945	0.010049	0.002446	-0.001454	
54323	    0	5.012793	-1.994866	-4.817452	2.333888	0.482380	0.386057	0.050049	-0.019287	-0.048523	0.999927	0.011669	0.002412	0.001930	
54324	    0	4.375765	-0.011106	-4.664266	2.336953	0.549523	1.174962	0.043627	0.000691	-0.046758	0.999910	0.011684	0.002748	0.005875	
54325	    0	4.132324	1.508406	-4.678680	2.111895	0.641084	2.010420	0.041016	0.015991	-0.046753	0.999888	0.010559	0.003205	0.010052	
54326	    0	3.867462	2.119988	-4.901743	1.832290	0.703847	2.848767	0.038191	0.022195	-0.048952	0.999850	0.009161	0.003519	0.014243	
54327	    0	3.791886	2.307959	-5.235428	1.547537	0.730946	3.655491	0.037292	0.024170	-0.052307	0.999796	0.007737	0.003654	0.018276	
54328	    0	3.811154	2.109638	-5.300348	1.211656	0.738019	4.411520	0.037434	0.022248	-0.053010	0.999731	0.006058	0.003690	0.022056	
54329	    0	4.414917	1.190537	-5.037377	0.872902	0.722014	5.108462	0.043640	0.013245	-0.050476	0.999658	0.004364	0.003610	0.025539	
54330	    0	5.398563	0.268894	-5.108536	0.653739	0.628177	5.706627	0.053716	0.004392	-0.051242	0.999582	0.003268	0.003140	0.028529	
54331	    0	6.644033	0.514058	-5.417278	0.400037	0.488362	6.267058	0.066101	0.007324	-0.054321	0.999504	0.002000	0.002441	0.031330	
54332	    0	7.608836	1.179725	-5.457432	0.055133	0.328890	6.761889	0.075541	0.014373	-0.054695	0.999427	0.000276	0.001644	0.033803	
54333	    0	8.338870	1.611444	-4.972460	-0.269949	0.134307	7.223558	0.082703	0.019043	-0.049805	0.999346	-0.001349	0.000671	0.036110	
54334	    0	8.899841	1.264838	-4.308601	-0.332149	-0.150144	7.564445	0.088470	0.015930	-0.043044	0.999283	-0.001660	-0.000751	0.037813	
54335	    0	9.937663	1.362473	-2.945676	-0.112180	-0.464557	7.771739	0.098816	0.017456	-0.029236	0.999242	-0.000561	-0.002322	0.038849	
54336	    0	11.310551	1.987386	-2.233312	0.400075	-0.781071	7.844863	0.112295	0.024334	-0.021848	0.999221	0.002000	-0.003904	0.039214	
54337	    0	13.643353	2.907316	-2.288791	0.999910	-1.018035	7.903125	0.135254	0.034546	-0.022034	0.999193	0.004998	-0.005089	0.039505	
54338	    0	16.451152	4.811979	-2.417192	1.544232	-1.166855	7.885619	0.162576	0.054736	-0.022814	0.999175	0.007719	-0.005833	0.039417	
54339	    0	19.073496	7.250952	-2.602785	2.099433	-1.298695	7.805524	0.187866	0.080139	-0.023987	0.999162	0.010494	-0.006492	0.039017	
54340	    0	21.234222	10.356331	-2.711858	2.524693	-1.456473	7.609565	0.208374	0.111861	-0.024214	0.999169	0.012620	-0.007280	0.038037	
54341	    0	23.042163	15.484299	-1.668076	2.417601	-1.535993	7.229147	0.224731	0.163208	-0.013000	0.999244	0.012085	-0.007678	0.036137	
54342	    0	23.421494	20.511445	0.926303	1.878935	-1.243657	6.666605	0.227138	0.212657	0.012665	0.999380	0.009393	-0.006217	0.033326	
54343	    0	20.808150	22.633774	0.496327	1.564280	-0.909381	5.971733	0.201172	0.232361	0.007690	0.999513	0.007820	-0.004546	0.029854	
54344	    0	19.016504	22.882685	-3.482127	1.467301	-0.511800	5.014042	0.184431	0.233744	-0.032641	0.999655	0.007336	-0.002559	0.025067	
54345	    0	17.184754	24.968178	-6.934641	1.357365	-0.298903	3.882874	0.167053	0.253418	-0.067383	0.999787	0.006786	-0.001494	0.019413	
54346	    0	13.177087	28.695394	-7.850514	1.191949	-0.386635	2.800288	0.127881	0.289223	-0.076536	0.999882	0.005960	-0.001933	0.014001	
54347	    0	9.574510	33.372758	-6.137952	0.534066	-0.521668	1.762417	0.092957	0.334717	-0.060242	0.999953	0.002670	-0.002608	0.008812	
54348	    0	7.350605	33.788576	-3.173213	-0.419046	-0.488283	0.738528	0.072336	0.338087	-0.032263	0.999988	-0.002095	-0.002441	0.003693	
54349	    0	8.551986	30.441345	-0.254145	-1.115234	-0.347140	-0.310518	0.085999	0.304260	-0.004089	0.999981	-0.005576	-0.001736	-0.001553	
54350	    0	9.043836	26.313629	1.251821	-1.407262	-0.258640	-1.145760	0.091929	0.262692	0.010787	0.999957	-0.007036	-0.001293	-0.005729	
54351	    0	10.816194	22.245845	1.518652	-1.408990	-0.311286	-1.828807	0.110168	0.221558	0.013794	0.999931	-0.007045	-0.001556	-0.009144	
54352	    0	7.533543	16.959135	2.882671	-0.876449	-0.428402	-2.284109	0.077206	0.168841	0.028250	0.999923	-0.004382	-0.002142	-0.011420	
54353	    0	14.458798	12.822184	-8.324011	1.124634	-0.594171	-3.372375	0.146973	0.126221	-0.082092	0.999837	0.005623	-0.002971	-0.016861	
54354	    0	47.954950	6.364625	-2.716239	1.303263	0.120559	-5.312247	0.481001	0.051059	-0.027092	0.999625	0.006516	0.000603	-0.026558	
54355	    0	30.166656	3.463058	-2.499130	1.749080	-1.623751	-5.116188	0.302612	0.027100	-0.022278	0.999601	0.008744	-0.008118	-0.025578	
54356	    0	25.807290	0.722925	-0.066125	1.004547	-1.927257	-5.295714	0.258134	0.000389	0.001840	0.999590	0.005022	-0.009635	-0.026475	
54357	    0	15.048152	6.183336	8.865931	-0.525733	-1.775399	-5.248938	0.151245	0.058105	0.089844	0.999612	-0.002628	-0.008876	-0.026241	
54358	    0	0.526636	18.665981	1.260522	-0.509509	-1.593385	-4.883736	0.009724	0.186490	0.012196	0.999666	-0.002547	-0.007966	-0.024416	
54359	    0	1.980598	13.147191	-7.551569	-0.312828	-1.454080	-3.956899	0.022949	0.130920	-0.075562	0.999776	-0.001564	-0.007270	-0.019783	
54360	    0	2.943919	7.448081	-5.873793	-0.598366	-1.160872	-3.251433	0.030984	0.073810	-0.058783	0.999846	-0.002992	-0.005804	-0.016256	
54361	    0	3.417745	7.123151	-4.157638	-0.887333	-0.814660	-2.803148	0.035339	0.070557	-0.041748	0.999883	-0.004436	-0.004073	-0.014015	
54362	    0	12.845237	3.231415	-4.417558	-0.680753	-0.602167	-2.480198	0.128971	0.030567	-0.043894	0.999912	-0.003404	-0.003011	-0.012401	
54363	    0	14.754772	0.731188	-6.630980	-0.473607	-0.632493	-2.333128	0.147827	0.005432	-0.065857	0.999924	-0.002368	-0.003162	-0.011665	
54364	    0	11.898710	5.802706	-7.451282	-0.626196	-0.458918	-2.147149	0.119770	0.056511	-0.074417	0.999934	-0.003131	-0.002295	-0.010736	
54365	    0	13.823165	4.093038	-4.987353	-0.462922	-0.408943	-2.001227	0.138733	0.039429	-0.049683	0.999945	-0.002315	-0.002045	-0.010006	
54366	    0	15.418780	4.549194	-4.790256	-0.355535	-0.311665	-1.774813	0.154657	0.044036	-0.047741	0.999957	-0.001778	-0.001558	-0.008874	
54367	    0	12.637498	4.223027	-4.875543	-0.455479	-0.131036	-1.454177	0.126709	0.041199	-0.048767	0.999970	-0.002277	-0.000655	-0.007271	
54368	    0	9.831795	4.693779	-6.502847	-0.338366	0.128365	-1.214989	0.098558	0.046229	-0.065170	0.999979	-0.001692	0.000642	-0.006075	
54369	    0	11.776523	6.137332	-7.909570	-0.273897	0.386240	-1.010900	0.117920	0.060669	-0.079407	0.999984	-0.001369	0.001931	-0.005054	
54370	    0	14.280298	5.693089	-8.264790	-0.422289	0.635150	-0.810246	0.142768	0.056177	-0.083220	0.999984	-0.002111	0.003176	-0.004051	
54371	    0	17.526756	3.467744	-6.489402	-0.642399	0.834852	-0.676732	0.175110	0.033875	-0.065735	0.999980	-0.003212	0.004174	-0.003384	
54372	    0	20.861733	1.963782	-4.506234	-0.906952	0.931176	-0.602918	0.208462	0.018802	-0.046120	0.999974	-0.004535	0.004656	-0.003015	
54373	    0	22.243107	1.914964	-2.852291	-1.159490	0.928507	-0.601966	0.222351	0.018311	-0.029663	0.999968	-0.005797	0.004642	-0.003010	
54374	    0	23.152707	1.872749	-1.129395	-1.587702	0.902953	-0.624094	0.231529	0.017909	-0.012484	0.999953	-0.007938	0.004515	-0.003120	
54375	    0	22.453782	-0.821911	0.992792	-2.017828	0.820178	-0.646224	0.224548	-0.008850	0.009094	0.999935	-0.010089	0.004101	-0.003231	
54376	    0	20.113532	-3.644375	1.989948	-2.299369	0.687045	-0.709171	0.201073	-0.036930	0.019631	0.999921	-0.011497	0.003435	-0.003546	
54377	    0	19.045752	-3.330998	1.739401	-2.506904	0.570696	-0.820948	0.190369	-0.033875	0.017273	0.999908	-0.012534	0.002853	-0.004105	
54378	    0	18.324310	-5.580745	2.093870	-2.798564	0.541325	-0.779752	0.183082	-0.056226	0.021228	0.999890	-0.013992	0.002707	-0.003899	
54379	    0	15.390184	-9.880514	2.172696	-2.936669	0.538084	-0.680569	0.153625	-0.098999	0.022766	0.999883	-0.014683	0.002690	-0.003403	
54380	    0	11.629400	-10.730443	1.014974	-2.701088	0.604269	-0.680756	0.115961	-0.107553	0.011250	0.999898	-0.013505	0.003021	-0.003404	
54381	    0	9.266919	-11.295283	-0.555996	-2.076006	0.683037	-0.863667	0.092163	-0.113403	-0.004700	0.999930	-0.010380	0.003415	-0.004318	
54382	    0	7.882962	-8.165776	-2.622775	-1.134318	0.692569	-1.409934	0.078160	-0.082358	-0.026033	0.999952	-0.005672	0.003463	-0.007050	
54383	    0	8.332845	-5.620493	-4.038066	-0.510990	0.704972	-2.128648	0.082581	-0.057190	-0.040527	0.999933	-0.002555	0.003525	-0.010643	
54384	    0	9.082109	-4.839556	-4.627803	0.033761	0.621818	-2.863033	0.089972	-0.049680	-0.046567	0.999892	0.000169	0.003109	-0.014315	
54385	    0	10.275540	-4.388613	-4.326094	0.353259	0.467134	-3.492156	0.101868	-0.045593	-0.043579	0.999843	0.001766	0.002336	-0.017460	
54386	    0	12.793075	-6.080619	-4.184937	0.487360	0.335143	-3.954769	0.126626	-0.063216	-0.042214	0.999800	0.002437	0.001676	-0.019773	
54387	    0	13.259466	-7.340536	-3.419887	0.486031	0.249692	-4.335367	0.130920	-0.076172	-0.034546	0.999761	0.002430	0.001248	-0.021675	
54388	    0	12.209775	-6.729251	-3.318442	0.387989	0.149740	-4.618486	0.120477	-0.070023	-0.033409	0.999731	0.001940	0.000749	-0.023090	
54389	    0	11.566026	-5.188990	-4.309075	-0.060087	0.028231	-4.744403	0.114380	-0.054626	-0.043091	0.999718	-0.000300	0.000141	-0.023720	
54390	    0	10.266818	-2.346829	-5.445501	-1.133837	-0.001908	-4.664869	0.102079	-0.026162	-0.054311	0.999711	-0.005669	-0.000010	-0.023322	
54391	    0	14.276594	-3.387014	-5.642180	-2.482857	0.084123	-4.260686	0.141968	-0.037598	-0.056030	0.999696	-0.012413	0.000421	-0.021301	
54392	    0	15.366994	-10.313901	-4.371220	-3.442769	0.122275	-3.881890	0.151594	-0.106828	-0.041987	0.999662	-0.017212	0.000611	-0.019407	
54393	    0	14.186375	-12.139767	-2.834673	-3.757895	0.222231	-3.541959	0.139648	-0.124390	-0.026184	0.999665	-0.018787	0.001111	-0.017708	
54394	    0	16.443404	-11.500682	-2.852152	-3.313552	0.405348	-3.213407	0.162498	-0.118083	-0.026913	0.999731	-0.016566	0.002027	-0.016066	
54395	    0	19.115008	-11.940323	-3.221152	-2.401876	0.523598	-2.858903	0.189331	-0.122498	-0.031250	0.999822	-0.012009	0.002618	-0.014294	
54396	    0	19.674800	-11.899097	-2.585682	-1.410916	0.550099	-2.511877	0.195161	-0.121630	-0.025543	0.999892	-0.007054	0.002750	-0.012559	
54397	    0	17.517705	-10.169389	-2.361072	-0.458536	0.422105	-2.166794	0.174011	-0.103638	-0.023743	0.999936	-0.002293	0.002110	-0.010834	
54398	    0	15.214457	-7.595020	-1.531136	0.043107	0.354009	-1.775575	0.151435	-0.077293	-0.015596	0.999959	0.000216	0.001770	-0.008878	
54399	    0	13.066282	-5.041723	-1.681641	0.459484	0.333407	-1.273356	0.130310	-0.051208	-0.017151	0.999975	0.002297	0.001667	-0.006367	
54400	    0	10.767267	-4.799180	-2.487905	0.948912	0.354388	-0.709729	0.107457	-0.048254	-0.025298	0.999980	0.004745	0.001772	-0.003549	
54401	    0	8.199662	-4.570240	-3.132771	1.421369	0.360301	-0.133516	0.081909	-0.045532	-0.031799	0.999972	0.007107	0.001801	-0.000668	
54402	    0	6.200638	-2.973285	-3.607074	1.836234	0.430495	0.483902	0.061999	-0.029249	-0.036474	0.999952	0.009181	0.002152	0.002419	
54403	    0	4.875769	-0.814178	-3.843156	2.154025	0.496686	1.149779	0.048706	-0.007446	-0.038635	0.999922	0.010770	0.002483	0.005749	
54404	    0	4.360861	0.852777	-4.180091	2.293290	0.531407	1.830550	0.043414	0.009405	-0.041812	0.999888	0.011466	0.002657	0.009152	
54405	    0	4.281318	1.551583	-3.922030	2.101427	0.629455	2.591067	0.042480	0.016479	-0.039185	0.999855	0.010507	0.003147	0.012955	
54406	    0	4.523190	1.940703	-4.042424	1.812476	0.686307	3.347415	0.044756	0.020525	-0.040396	0.999812	0.009062	0.003431	0.016736	
54407	    0	4.843476	2.010826	-4.283680	1.534397	0.711309	4.105714	0.047852	0.021423	-0.042847	0.999753	0.007671	0.003556	0.020527	
54408	    0	4.913876	2.045434	-4.136452	1.226552	0.676607	4.784889	0.048487	0.021873	-0.041398	0.999689	0.006132	0.003383	0.023922	
54409	    0	5.124684	1.852587	-4.107569	0.912590	0.595358	5.380162	0.050598	0.020081	-0.041138	0.999623	0.004562	0.002976	0.026897	
54410	    0	5.930271	1.302648	-4.352862	0.563515	0.479198	5.942851	0.058774	0.014901	-0.043630	0.999551	0.002817	0.002396	0.029710	
54411	    0	6.877987	1.307293	-4.445725	0.169402	0.323733	6.457119	0.068237	0.015320	-0.044556	0.999476	0.000847	0.001618	0.032280	
54412	    0	7.851962	1.977149	-4.138472	-0.352360	0.149567	7.004457	0.077734	0.022430	-0.041481	0.999385	-0.001761	0.000748	0.035015	
54413	    0	8.539805	1.678485	-3.380046	-0.644643	-0.112178	7.440389	0.084717	0.019836	-0.033813	0.999302	-0.003222	-0.000561	0.037193	
54414	    0	9.436262	1.252716	-2.010705	-0.555939	-0.448720	7.685280	0.093835	0.016085	-0.019938	0.999255	-0.002779	-0.002243	0.038417	
54415	    0	10.610945	1.642155	-1.006286	-0.028236	-0.798808	7.737394	0.105408	0.020508	-0.009644	0.999244	-0.000141	-0.003993	0.038677	
54416	    0	12.761005	2.109768	-0.970048	0.680717	-1.081935	7.745443	0.126715	0.026049	-0.008930	0.999229	0.003403	-0.005408	0.038717	
54417	    0	15.466664	3.293401	-1.468050	1.408189	-1.290474	7.763451	0.153320	0.039001	-0.013428	0.999201	0.007039	-0.006451	0.038807	
54418	    0	18.409934	5.910338	-1.727671	2.026547	-1.446552	7.761815	0.181733	0.066350	-0.015308	0.999169	0.010130	-0.007231	0.038798	
54419	    0	21.223568	8.746675	-1.765875	2.522414	-1.575913	7.655197	0.208801	0.095703	-0.014832	0.999157	0.012609	-0.007877	0.038265	
54420	    0	24.388479	13.694169	-1.152777	2.433654	-1.582944	7.397882	0.238668	0.145947	-0.007885	0.999210	0.012165	-0.007913	0.036980	
54421	    0	26.014346	19.259970	1.477730	1.790248	-1.184151	6.923665	0.253174	0.201294	0.018066	0.999343	0.008949	-0.005919	0.034611	
54422	    0	23.771292	20.373457	1.875861	1.641563	-0.793406	6.249387	0.231116	0.210857	0.021396	0.999470	0.008206	-0.003966	0.031241	
54423	    0	20.917006	21.155129	-3.157852	1.714741	-0.423487	5.332122	0.203491	0.217285	-0.029297	0.999605	0.008573	-0.002117	0.026657	
54424	    0	16.578953	23.896277	-8.727173	1.542220	-0.221652	4.192702	0.160818	0.243032	-0.085228	0.999749	0.007710	-0.001108	0.020962	
54425	    0	12.849484	28.709680	-10.305129	1.149993	-0.406665	3.070971	0.124268	0.289612	-0.101135	0.999863	0.005750	-0.002033	0.015354	
54426	    0	9.022903	34.583767	-6.531392	0.331503	-0.635159	1.955640	0.087047	0.346807	-0.064460	0.999946	0.001657	-0.003176	0.009778	
54427	    0	7.443888	33.346441	-1.963035	-0.594333	-0.475123	0.746158	0.073242	0.333679	-0.020447	0.999986	-0.002972	-0.002376	0.003731	
54428	    0	9.767625	29.922830	0.513609	-1.188477	-0.190355	-0.512127	0.098438	0.299001	0.003452	0.999978	-0.005942	-0.000952	-0.002561	
54429	    0	9.955461	26.724576	0.948558	-1.337265	-0.098421	-1.508357	0.101562	0.266541	0.007751	0.999949	-0.006686	-0.000492	-0.007542	
54430	    0	11.032109	23.169746	0.213890	-1.251258	-0.223548	-2.368617	0.113053	0.230377	0.000820	0.999909	-0.006256	-0.001118	-0.011843	
54431	    0	7.384873	15.569350	0.845968	-0.395027	-0.390640	-2.940478	0.076111	0.154602	0.008301	0.999887	-0.001975	-0.001953	-0.014702	
54432	    0	16.572356	11.661309	-12.652302	1.417075	-0.576825	-3.940685	0.168352	0.114203	-0.125225	0.999776	0.007085	-0.002884	-0.019702	
54433	    0	44.860705	-0.001600	-6.217365	1.702549	-0.129718	-5.562613	0.448425	-0.011963	-0.061951	0.999577	0.008512	-0.000648	-0.027809	
54434	    0	28.314035	6.439370	-1.076004	2.307135	-1.737886	-5.653186	0.284886	0.056457	-0.007607	0.999496	0.011534	-0.008688	-0.028261	
54435	    0	25.513049	5.415127	2.118036	1.068272	-1.844105	-5.542807	0.256287	0.046936	0.023804	0.999558	0.005341	-0.009219	-0.027710	
54436	    0	13.135495	9.565524	10.862189	-0.583345	-1.731149	-5.342812	0.132908	0.092437	0.109495	0.999601	-0.002916	-0.008655	-0.026711	
54437	    0	-1.666460	17.875261	-1.077478	0.031284	-1.700577	-4.673486	-0.012390	0.179077	-0.010864	0.999690	0.000156	-0.008502	-0.023365	
54438	    0	3.978076	14.307338	-6.798748	0.027277	-1.406000	-3.726252	0.042913	0.142303	-0.067674	0.999802	0.000136	-0.007030	-0.018630	
54439	    0	5.244383	6.057755	-5.190886	-0.470753	-1.098486	-2.868768	0.053589	0.059692	-0.051758	0.999879	-0.002354	-0.005492	-0.014343	
54440	    0	6.787307	3.440840	-4.479699	-0.658626	-0.859476	-2.398560	0.068470	0.033442	-0.044615	0.999913	-0.003293	-0.004297	-0.011992	
54441	    0	13.676258	4.095948	-4.404122	-0.314339	-0.765057	-2.309476	0.137390	0.039307	-0.043579	0.999925	-0.001572	-0.003825	-0.011547	
54442	    0	13.629881	6.852973	-6.666459	-0.724045	-0.646224	-2.064750	0.137210	0.066875	-0.066466	0.999934	-0.003620	-0.003231	-0.010324	
54443	    0	11.582260	3.485656	-6.814816	-0.951974	-0.440224	-1.763947	0.116272	0.033508	-0.068054	0.999947	-0.004760	-0.002201	-0.008820	
54444	    0	14.563276	3.277013	-5.429916	-0.541313	-0.428969	-1.739146	0.146026	0.031355	-0.054072	0.999956	-0.002707	-0.002145	-0.008696	
54445	    0	16.680340	5.789614	-5.104409	-0.639350	-0.313381	-1.453416	0.167297	0.056519	-0.050964	0.999967	-0.003197	-0.001567	-0.007267	
54446	    0	12.828247	3.120461	-5.808719	-0.802237	-0.107575	-1.112374	0.128484	0.030257	-0.058141	0.999976	-0.004011	-0.000538	-0.005562	
54447	    0	11.044891	4.396288	-6.738461	-0.711064	0.158883	-0.922399	0.110596	0.043213	-0.067627	0.999982	-0.003555	0.000794	-0.004612	
54448	    0	13.606092	6.638616	-8.185339	-0.737004	0.437357	-0.759892	0.136131	0.065566	-0.082394	0.999983	-0.003685	0.002187	-0.003799	
54449	    0	16.136766	3.907989	-7.918323	-1.010140	0.717359	-0.582127	0.161194	0.038208	-0.079956	0.999976	-0.005051	0.003587	-0.002911	
54450	    0	19.518945	0.672125	-6.621331	-1.245703	0.868044	-0.533491	0.194916	0.005785	-0.067098	0.999968	-0.006228	0.004340	-0.002667	
54451	    0	20.300984	0.080947	-4.037533	-1.494428	0.930036	-0.495918	0.202820	0.000000	-0.041321	0.999958	-0.007472	0.004650	-0.002480	
54452	    0	21.280076	2.065012	-2.366504	-1.871909	0.980587	-0.512705	0.212732	0.019876	-0.024897	0.999941	-0.009359	0.004903	-0.002563	
54453	    0	21.614273	-1.166292	0.286678	-2.272094	0.971438	-0.470746	0.216125	-0.012146	0.001953	0.999921	-0.011360	0.004857	-0.002354	
54454	    0	18.905539	-3.916719	1.438025	-2.457691	0.856615	-0.492110	0.189019	-0.039458	0.014054	0.999912	-0.012288	0.004283	-0.002460	
54455	    0	17.407717	-2.547722	1.865368	-2.616205	0.779940	-0.598164	0.174072	-0.025757	0.018311	0.999902	-0.013081	0.003900	-0.002991	
54456	    0	16.918704	-4.148819	2.229641	-2.777771	0.731304	-0.595114	0.169145	-0.041682	0.022256	0.999892	-0.013888	0.003656	-0.002975	
54457	    0	14.624237	-7.863374	2.485918	-2.813823	0.703646	-0.541707	0.146118	-0.078674	0.025452	0.999890	-0.014069	0.003518	-0.002708	
54458	    0	11.740180	-9.042747	1.195297	-2.576718	0.757050	-0.512139	0.117217	-0.090568	0.012675	0.999907	-0.012883	0.003785	-0.002561	
54459	    0	10.235483	-10.582118	-0.515670	-2.033851	0.859089	-0.650039	0.101990	-0.106201	-0.004517	0.999933	-0.010169	0.004295	-0.003250	
54460	    0	8.311300	-8.506078	-2.904919	-1.215952	0.849926	-1.076332	0.082530	-0.085682	-0.028881	0.999957	-0.006080	0.004250	-0.005382	
54461	    0	7.587927	-4.626996	-5.241346	-0.644505	0.765242	-1.802095	0.075256	-0.047119	-0.052551	0.999947	-0.003222	0.003826	-0.009010	
54462	    0	7.651546	-4.344194	-4.974084	-0.241668	0.689526	-2.532842	0.075785	-0.044465	-0.049950	0.999912	-0.001208	0.003448	-0.012664	
54463	    0	7.858575	-4.621940	-5.513098	0.135046	0.502990	-3.185410	0.077698	-0.047424	-0.055359	0.999869	0.000675	0.002515	-0.015926	
54464	    0	10.193516	-6.399291	-4.533653	0.300997	0.353452	-3.716305	0.100643	-0.065803	-0.045613	0.999825	0.001505	0.001767	-0.018580	
54465	    0	11.054243	-7.360437	-3.790192	0.231950	0.288602	-4.101852	0.108948	-0.075806	-0.038147	0.999787	0.001160	0.001443	-0.020508	
54466	    0	11.522982	-8.230823	-3.125585	0.157751	0.241681	-4.405379	0.113342	-0.084794	-0.031460	0.999756	0.000789	0.001208	-0.022025	
54467	    0	12.036670	-7.372589	-3.284603	0.035098	0.167289	-4.626115	0.118591	-0.076477	-0.032959	0.999732	0.000175	0.000836	-0.023129	
54468	    0	11.948640	-5.870311	-3.833441	-0.374638	0.127995	-4.731432	0.118028	-0.061579	-0.038297	0.999718	-0.001873	0.000640	-0.023655	
54469	    0	11.119860	-4.392164	-4.822501	-0.980471	0.061995	-4.698632	0.110107	-0.046753	-0.048035	0.999711	-0.004902	0.000310	-0.023491	
54470	    0	12.006702	-1.552928	-5.526729	-2.169445	0.097475	-4.401840	0.119651	-0.018764	-0.055134	0.999699	-0.010846	0.000487	-0.022007	
54471	    0	15.820985	-6.689445	-5.537031	-3.210603	0.163287	-3.928034	0.156799	-0.070862	-0.054382	0.999678	-0.016051	0.000816	-0.019638	
54472	    0	16.362569	-12.489820	-3.565152	-3.388175	0.332484	-3.559282	0.161304	-0.128366	-0.033766	0.999697	-0.016939	0.001662	-0.017795	
54473	    0	19.034380	-12.977736	-3.014200	-2.605631	0.539629	-3.261807	0.188110	-0.133240	-0.028931	0.999778	-0.013027	0.002698	-0.016308	
54474	    0	21.299983	-12.503361	-3.082494	-1.569061	0.653108	-2.963401	0.211014	-0.128410	-0.030518	0.999854	-0.007845	0.003265	-0.014816	
54475	    0	20.748456	-12.103890	-2.473449	-0.566691	0.677511	-2.587208	0.205811	-0.123779	-0.025085	0.999907	-0.002833	0.003387	-0.012936	
54476	    0	18.006594	-9.931282	-2.366096	0.264555	0.551236	-2.238896	0.178873	-0.101288	-0.024288	0.999932	0.001323	0.002756	-0.011194	
54477	    0	14.961796	-6.967968	-1.939036	0.696003	0.432594	-1.841004	0.148926	-0.070984	-0.019958	0.999949	0.003480	0.002163	-0.009205	
54478	    0	12.189229	-4.869340	-2.291753	1.042952	0.402074	-1.347559	0.121514	-0.049392	-0.023418	0.999961	0.005215	0.002010	-0.006738	
54479	    0	10.120047	-4.469874	-3.353151	1.420610	0.411420	-0.797281	0.100952	-0.044861	-0.034058	0.999965	0.007103	0.002057	-0.003986	
54480	    0	8.410042	-3.790354	-4.072432	1.735902	0.436026	-0.231555	0.083967	-0.037644	-0.041235	0.999959	0.008679	0.002180	-0.001158	
54481	    0	6.464583	-2.229447	-4.552777	1.951633	0.485429	0.369269	0.064575	-0.021729	-0.045898	0.999948	0.009758	0.002427	0.001846	
54482	    0	5.056598	-0.541558	-4.769323	2.058650	0.593009	1.025415	0.050449	-0.004664	-0.047894	0.999929	0.010293	0.002965	0.005127	
54483	    0	4.449575	0.822873	-4.827254	1.997628	0.700400	1.727349	0.044250	0.009094	-0.048340	0.999907	0.009988	0.003502	0.008636	
54484	    0	4.241624	1.796456	-4.882389	1.865083	0.757821	2.446086	0.042004	0.018935	-0.048810	0.999874	0.009325	0.003789	0.012230	
54485	    0	4.228316	2.442826	-5.143644	1.642700	0.772328	3.161796	0.041687	0.025513	-0.051392	0.999833	0.008213	0.003861	0.015808	
54486	    0	4.460844	2.710720	-5.186104	1.312350	0.764139	3.866092	0.043871	0.028300	-0.051847	0.999784	0.006561	0.003820	0.019329	
54487	    0	4.772152	2.079560	-4.753966	0.946895	0.720472	4.542196	0.047058	0.022095	-0.047607	0.999724	0.004734	0.003602	0.022709	
54488	    0	5.170768	1.137678	-4.384040	0.653532	0.617097	5.131348	0.051255	0.012839	-0.043959	0.999660	0.003267	0.003085	0.025654	
54489	    0	5.986476	0.334936	-4.240322	0.412234	0.494452	5.660250	0.059631	0.005127	-0.042542	0.999594	0.002061	0.002472	0.028297	
54490	    0	6.931169	0.579553	-4.311222	0.179128	0.332122	6.148929	0.069017	0.007959	-0.043221	0.999525	0.000896	0.001660	0.030740	
54491	    0	7.599317	1.063875	-3.864095	-0.040252	0.139643	6.581541	0.075562	0.013123	-0.038696	0.999458	-0.000201	0.000698	0.032902	
54492	    0	8.498909	0.955126	-3.287495	-0.090808	-0.104353	6.953306	0.084606	0.012483	-0.032836	0.999395	-0.000454	-0.000522	0.034760	
54493	    0	9.615307	1.126038	-2.062429	0.008394	-0.369152	7.193785	0.095703	0.014709	-0.020447	0.999351	0.000042	-0.001845	0.035961	
54494	    0	10.788309	1.455853	-1.035154	0.361143	-0.636626	7.333317	0.107285	0.018518	-0.009978	0.999321	0.001805	-0.003182	0.036658	
54495	    0	12.555996	1.903691	-0.409567	0.855646	-0.834851	7.403774	0.124756	0.023682	-0.003479	0.999296	0.004277	-0.004173	0.037010	
54496	    0	14.706599	3.388631	-0.423826	1.450893	-1.001603	7.451543	0.145685	0.039358	-0.003234	0.999267	0.007253	-0.005007	0.037249	
54497	    0	16.827993	5.600896	-0.634326	2.139062	-1.125431	7.420706	0.166077	0.062256	-0.004761	0.999238	0.010693	-0.005626	0.037094	
54498	    0	18.823462	8.405269	-1.162552	2.802044	-1.269286	7.231284	0.185093	0.090924	-0.009202	0.999228	0.014007	-0.006345	0.036147	
54499	    0	21.444452	14.525732	-0.601570	2.868767	-1.288150	6.897098	0.209290	0.152588	-0.002502	0.999281	0.014340	-0.006439	0.034477	
54500	    0	22.685767	20.493531	1.653606	2.388664	-0.951574	6.396988	0.220065	0.211822	0.020097	0.999406	0.011941	-0.004757	0.031979	
54501	    0	19.861844	21.579218	0.186646	2.302157	-0.629335	5.726016	0.192322	0.221313	0.005005	0.999518	0.011509	-0.003146	0.028625	
54502	    0	18.581269	22.538422	-5.310054	2.418039	-0.320091	4.709605	0.180510	0.230294	-0.050044	0.999648	0.012089	-0.001600	0.023545	
54503	    0	16.938637	27.713194	-9.517551	2.146302	-0.232522	3.534188	0.164551	0.281067	-0.091980	0.999785	0.010731	-0.001163	0.017670	
54504	    0	12.192731	32.519955	-10.497246	1.402522	-0.390638	2.480020	0.118078	0.327404	-0.102448	0.999896	0.007012	-0.001953	0.012400	
54505	    0	8.760430	34.540713	-8.578348	0.418286	-0.513463	1.407637	0.085388	0.346191	-0.084839	0.999969	0.002091	-0.002567	0.007038	
54506	    0	10.085738	34.031237	-5.921381	-0.655367	-0.458909	0.216103	0.100627	0.340225	-0.060098	0.999991	-0.003277	-0.002295	0.001081	
54507	    0	11.116748	31.544441	-3.629052	-1.361673	-0.403600	-0.984204	0.112793	0.314636	-0.038208	0.999962	-0.006808	-0.002018	-0.004921	
54508	    0	11.048199	27.201746	-1.285117	-1.433411	-0.333413	-2.063425	0.113303	0.270758	-0.014607	0.999919	-0.007167	-0.001667	-0.010317	
54509	    0	16.806954	32.695581	-3.067021	0.042918	-0.521881	-3.684447	0.174133	0.323792	-0.030151	0.999826	0.000215	-0.002609	-0.018421	
54510	    0	36.280494	37.434435	-2.516307	0.855580	-0.082601	-6.076813	0.373964	0.363196	-0.023440	0.999529	0.004277	-0.000413	-0.030379	
54511	    0	29.475483	-2.576934	-1.280105	0.940060	-1.207695	-5.296997	0.294006	-0.033508	-0.011169	0.999619	0.004700	-0.006038	-0.026482	
54512	    0	17.713427	-17.233000	-0.536801	1.297365	-2.051825	-5.191941	0.172633	-0.176819	-0.004719	0.999589	0.006486	-0.010258	-0.025956	
54513	    0	7.028378	2.153753	3.457361	1.223180	-1.999018	-5.606942	0.070496	0.019348	0.035400	0.999537	0.006115	-0.009994	-0.028030	
54514	    0	3.695315	31.243352	-1.326532	1.046702	-1.949379	-5.206421	0.045185	0.311391	-0.011220	0.999599	0.005233	-0.009746	-0.026029	
54515	    0	3.677825	17.185101	-4.827205	0.193803	-1.601351	-4.141576	0.040710	0.171082	-0.047791	0.999753	0.000969	-0.008006	-0.020706	
54516	    0	1.926721	5.742016	-6.635940	-0.114256	-1.279510	-3.112177	0.020581	0.057069	-0.066263	0.999858	-0.000571	-0.006397	-0.015560	
54517	    0	9.572194	6.128438	-4.414545	-0.244721	-0.948366	-2.684875	0.096741	0.059937	-0.043762	0.999897	-0.001224	-0.004742	-0.013424	
54518	    0	15.629277	6.483203	-2.791938	-0.400745	-0.885225	-2.387113	0.157173	0.062904	-0.027352	0.999916	-0.002004	-0.004426	-0.011935	
54519	    0	14.360544	3.918040	-3.735111	-0.352295	-0.852985	-2.108048	0.144165	0.037598	-0.036804	0.999933	-0.001761	-0.004265	-0.010540	
54520	    0	11.599508	4.845130	-5.821140	-0.452240	-0.706113	-1.868090	0.116645	0.047233	-0.057908	0.999948	-0.002261	-0.003531	-0.009340	
54521	    0	13.743203	5.210650	-6.991206	-0.469214	-0.567444	-1.685357	0.138062	0.050781	-0.069641	0.999957	-0.002346	-0.002837	-0.008427	
54522	    0	16.093146	4.276282	-7.256912	-0.484472	-0.426488	-1.477639	0.161395	0.041396	-0.072327	0.999967	-0.002422	-0.002132	-0.007388	
54523	    0	14.273825	4.090359	-6.550290	-0.451664	-0.229456	-1.258860	0.143066	0.039856	-0.065430	0.999976	-0.002258	-0.001147	-0.006294	
54524	    0	14.364521	4.681079	-6.754484	-0.476458	0.056649	-1.066023	0.143872	0.045883	-0.067696	0.999983	-0.002382	0.000283	-0.005330	
54525	    0	16.574954	6.147172	-7.046508	-0.552180	0.349428	-0.879674	0.165894	0.060547	-0.070923	0.999985	-0.002761	0.001747	-0.004398	
54526	    0	20.265073	5.177520	-7.146340	-0.815588	0.580601	-0.763707	0.202637	0.050708	-0.072260	0.999980	-0.004078	0.002903	-0.003819	
54527	    0	21.880939	0.633758	-5.744274	-1.136027	0.688368	-0.638586	0.218628	0.005310	-0.058228	0.999972	-0.005680	0.003442	-0.003193	
54528	    0	22.516556	1.316268	-4.491080	-1.495000	0.717745	-0.644311	0.225042	0.012097	-0.045812	0.999960	-0.007475	0.003589	-0.003222	
54529	    0	23.237947	0.411252	-2.369354	-2.086495	0.746934	-0.642409	0.232300	0.003113	-0.024597	0.999933	-0.010432	0.003735	-0.003212	
54530	    0	21.349339	-2.899251	-1.165682	-2.554018	0.662633	-0.618572	0.213363	-0.029804	-0.011987	0.999907	-0.012770	0.003313	-0.003093	
54531	    0	19.228098	-4.802834	0.277050	-2.964137	0.580811	-0.622583	0.192139	-0.048584	0.002930	0.999881	-0.014820	0.002904	-0.003113	
54532	    0	17.155059	-5.695135	1.391809	-3.259430	0.495743	-0.600461	0.171414	-0.057234	0.014424	0.999859	-0.016296	0.002479	-0.003002	
54533	    0	14.832754	-7.081839	2.461191	-3.392962	0.487734	-0.552396	0.148193	-0.070801	0.025452	0.999848	-0.016964	0.002439	-0.002762	
54534	    0	11.708993	-8.533989	2.673642	-3.228717	0.576999	-0.475905	0.116966	-0.085176	0.027775	0.999863	-0.016143	0.002885	-0.002379	
54535	    0	9.249728	-9.484761	1.343114	-2.706810	0.673698	-0.547046	0.092285	-0.094910	0.014404	0.999899	-0.013534	0.003368	-0.002735	
54536	    0	8.123210	-7.901631	-0.886830	-1.771768	0.707639	-0.835052	0.080871	-0.079431	-0.008452	0.999946	-0.008859	0.003538	-0.004175	
54537	    0	8.566488	-3.203719	-4.197200	-0.949684	0.695812	-1.548029	0.085266	-0.032898	-0.042114	0.999952	-0.004748	0.003479	-0.007740	
54538	    0	9.935785	-3.274074	-4.766425	-0.312431	0.634398	-2.208568	0.098836	-0.033909	-0.047926	0.999932	-0.001562	0.003172	-0.011043	
54539	    0	10.039774	-3.403919	-5.291760	0.177771	0.425925	-2.816868	0.099792	-0.035400	-0.053162	0.999898	0.000889	0.002130	-0.014084	
54540	    0	10.925343	-4.377685	-4.669996	0.330750	0.199327	-3.334583	0.108458	-0.045512	-0.046883	0.999859	0.001654	0.000997	-0.016672	
54541	    0	10.426863	-5.039868	-3.281627	0.330563	0.110633	-3.788986	0.103271	-0.052307	-0.032959	0.999819	0.001653	0.000553	-0.018944	
54542	    0	10.758872	-5.617571	-2.839534	0.257129	0.045780	-4.166715	0.106381	-0.058364	-0.028494	0.999782	0.001286	0.000229	-0.020832	
54543	    0	11.331931	-4.422400	-3.734106	-0.134861	-0.031283	-4.445252	0.112305	-0.046753	-0.037292	0.999752	-0.000674	-0.000156	-0.022224	
54544	    0	11.704690	-2.109019	-4.109277	-0.965207	-0.026896	-4.587212	0.116525	-0.023965	-0.040966	0.999725	-0.004826	-0.000134	-0.022934	
54545	    0	15.057528	-2.188228	-3.752677	-2.044885	0.020029	-4.487302	0.150024	-0.025635	-0.037292	0.999696	-0.010223	0.000100	-0.022434	
54546	    0	16.071502	-8.983846	-2.111137	-2.707200	0.051885	-4.298482	0.158726	-0.093539	-0.019903	0.999677	-0.013535	0.000259	-0.021490	
54547	    0	14.265228	-10.994779	-1.529638	-3.038170	0.023654	-4.160006	0.140320	-0.113098	-0.013611	0.999668	-0.015189	0.000118	-0.020798	
54548	    0	13.429809	-10.695845	-1.973512	-3.252385	0.033764	-3.956655	0.132140	-0.109889	-0.017986	0.999672	-0.016260	0.000169	-0.019781	
54549	    0	14.146931	-10.657132	-2.649339	-3.270288	0.088701	-3.670872	0.139465	-0.109558	-0.024780	0.999698	-0.016350	0.000443	-0.018353	
54550	    0	17.385163	-10.971799	-3.501462	-2.681177	0.283454	-3.370928	0.171916	-0.113085	-0.033758	0.999766	-0.013405	0.001417	-0.016853	
54551	    0	21.036930	-11.778705	-4.041136	-1.679889	0.434135	-3.074806	0.208435	-0.121338	-0.039856	0.999844	-0.008399	0.002171	-0.015373	
54552	    0	21.650736	-11.599909	-3.517463	-0.716425	0.468652	-2.755833	0.214798	-0.119093	-0.035256	0.999895	-0.003582	0.002343	-0.013779	
54553	    0	18.693695	-9.698981	-2.367928	0.103953	0.341042	-2.368984	0.185730	-0.099182	-0.024048	0.999928	0.000520	0.001705	-0.011845	
54554	    0	14.312218	-6.458510	-1.513353	0.624477	0.225834	-1.960980	0.142463	-0.065936	-0.015499	0.999946	0.003122	0.001129	-0.009805	
54555	    0	10.665162	-4.397788	-1.863295	1.074424	0.207522	-1.390857	0.106323	-0.044617	-0.018982	0.999960	0.005372	0.001038	-0.006954	
54556	    0	9.024729	-4.001816	-3.003025	1.440256	0.279621	-0.797472	0.090045	-0.040159	-0.030445	0.999965	0.007201	0.001398	-0.003987	
54557	    0	7.571672	-3.299491	-3.437684	1.710532	0.349622	-0.204470	0.075623	-0.032776	-0.034790	0.999961	0.008553	0.001748	-0.001022	
54558	    0	5.830699	-1.698544	-3.597122	1.990164	0.430687	0.439080	0.058266	-0.016498	-0.036263	0.999946	0.009951	0.002153	0.002195	
54559	    0	4.405257	-0.054283	-3.967460	2.067045	0.542463	1.155119	0.043945	0.000122	-0.039795	0.999926	0.010335	0.002712	0.005775	
54560	    0	3.543976	1.868791	-3.977295	1.892534	0.699829	1.955097	0.035113	0.019408	-0.039715	0.999901	0.009462	0.003499	0.009775	
54561	    0	3.277814	3.213389	-3.943653	1.584888	0.795782	2.794012	0.032166	0.032898	-0.039307	0.999863	0.007924	0.003979	0.013969	
54562	    0	3.546498	3.454109	-4.456419	1.234136	0.844248	3.676847	0.034631	0.035458	-0.044495	0.999803	0.006170	0.004221	0.018383	
54563	    0	3.520946	3.382300	-4.546786	0.830153	0.847130	4.503276	0.034241	0.034790	-0.045471	0.999728	0.004150	0.004235	0.022514	
54564	    0	3.560365	2.619590	-4.412331	0.471171	0.788400	5.247546	0.034724	0.027219	-0.044198	0.999645	0.002356	0.003942	0.026235	
54565	    0	4.194790	1.596075	-4.021943	0.138875	0.657178	5.889992	0.041321	0.017212	-0.040344	0.999560	0.000694	0.003285	0.029446	
54566	    0	5.359533	1.054074	-3.712281	-0.192104	0.516029	6.474299	0.053122	0.012230	-0.037271	0.999472	-0.000960	0.002580	0.032366	
54567	    0	6.712612	1.410733	-3.011555	-0.576901	0.338243	7.004466	0.066528	0.016357	-0.030273	0.999381	-0.002884	0.001691	0.035015	
54568	    0	7.634672	1.170323	-1.592396	-0.736981	0.083180	7.449554	0.075835	0.014476	-0.016006	0.999299	-0.003684	0.000416	0.037239	
54569	    0	8.821794	0.612304	0.370571	-0.562998	-0.231991	7.698446	0.087891	0.009521	0.003784	0.999254	-0.002814	-0.001160	0.038483	
54570	    0	10.117926	0.547094	2.114802	0.147094	-0.582842	7.750174	0.100804	0.009367	0.021448	0.999245	0.000735	-0.002913	0.038741	
54571	    0	12.595803	1.268220	2.385686	1.107500	-0.845554	7.724456	0.125244	0.017395	0.024475	0.999229	0.005536	-0.004227	0.038612	
54572	    0	15.702260	3.203326	1.953952	1.967577	-1.003153	7.717106	0.155535	0.037855	0.020676	0.999194	0.009835	-0.005014	0.038575	
54573	    0	18.733690	7.083906	1.452217	2.569543	-1.065174	7.751366	0.184326	0.077820	0.016479	0.999152	0.012844	-0.005324	0.038746	
54574	    0	20.254281	9.715239	1.586353	3.007801	-1.033890	7.679289	0.198531	0.104564	0.018433	0.999136	0.015035	-0.005168	0.038385	
54575	    0	21.560749	11.941528	1.498807	3.280226	-0.917311	7.472039	0.210876	0.127075	0.018005	0.999157	0.016397	-0.004585	0.037350	
54576	    0	22.647145	15.061183	1.432311	3.184741	-0.614703	7.076715	0.220911	0.158234	0.017488	0.999242	0.015920	-0.003073	0.035375	
54577	    0	22.318094	17.545956	-0.490502	3.007395	-0.219583	6.543621	0.217285	0.182678	-0.001953	0.999351	0.015034	-0.001098	0.032711	
54578	    0	21.493796	18.192606	-4.869167	2.925812	0.166541	5.774744	0.209515	0.188716	-0.046140	0.999475	0.014627	0.000833	0.028869	
54579	    0	19.893349	21.010593	-9.718065	2.735483	0.360344	4.761343	0.193665	0.216064	-0.094604	0.999621	0.013676	0.001801	0.023804	
54580	    0	17.174867	25.615478	-13.012024	2.142311	0.180449	3.766927	0.166751	0.260702	-0.127496	0.999764	0.010711	0.000902	0.018833	
54581	    0	11.930409	31.226546	-13.107384	1.097150	-0.241671	2.848927	0.114990	0.314636	-0.129211	0.999883	0.005486	-0.001208	0.014244	
54582	    0	6.951932	34.199200	-9.847372	-0.125696	-0.474365	1.928743	0.066451	0.342581	-0.098529	0.999950	-0.000628	-0.002372	0.009644	
54583	    0	6.708402	32.591532	-6.293311	-1.080904	-0.360111	0.898751	0.065735	0.325867	-0.064575	0.999973	-0.005404	-0.001801	0.004494	
54584	    0	8.321140	28.869738	-4.457995	-1.563089	-0.226977	-0.102998	0.083412	0.288295	-0.046740	0.999969	-0.007815	-0.001135	-0.000515	
54585	    0	7.160137	24.483438	-3.508757	-1.557181	-0.177577	-0.966658	0.072815	0.244202	-0.036926	0.999957	-0.007786	-0.000888	-0.004833	
54586	    0	9.546765	21.531851	-2.608615	-1.254872	-0.384339	-1.896519	0.097554	0.214231	-0.027246	0.999933	-0.006274	-0.001922	-0.009482	
54587	    0	6.012321	17.268487	-1.088264	-0.257881	-0.581949	-2.582626	0.062378	0.171875	-0.010925	0.999911	-0.001289	-0.002910	-0.012913	
54588	    0	17.885625	17.562267	-12.968819	1.285648	-0.540010	-3.981504	0.182663	0.172838	-0.128081	0.999777	0.006428	-0.002700	-0.019906	
54589	    0	43.268675	3.566052	-6.036302	0.981259	-0.330202	-5.298495	0.433533	0.024475	-0.059509	0.999635	0.004906	-0.001651	-0.026489	
54590	    0	28.323315	-0.627573	-3.412731	1.652560	-1.965026	-5.085107	0.283274	-0.013211	-0.031434	0.999594	0.008262	-0.009824	-0.025422	
54591	    0	25.443578	0.223537	0.961294	0.660981	-1.901490	-5.184079	0.254272	-0.004395	0.012024	0.999613	0.003304	-0.009506	-0.025917	
54592	    0	13.737042	14.011107	8.083044	-0.252376	-1.984674	-5.329661	0.140230	0.136502	0.082039	0.999595	-0.001262	-0.009922	-0.026645	
54593	    0	1.543038	12.813949	-1.945664	0.015260	-1.828756	-4.513996	0.018494	0.127747	-0.019287	0.999703	0.000076	-0.009143	-0.022568	
54594	    0	3.260566	11.318516	-4.812055	0.150882	-1.527707	-3.891656	0.035166	0.112554	-0.047773	0.999781	0.000754	-0.007638	-0.019457	
54595	    0	3.345670	7.751136	-5.698069	-0.280774	-1.184708	-3.058762	0.034973	0.076904	-0.056885	0.999864	-0.001404	-0.005923	-0.015293	
54596	    0	3.254960	4.981817	-4.773639	-0.454727	-0.922233	-2.582061	0.033408	0.049282	-0.047696	0.999903	-0.002274	-0.004611	-0.012910	
54597	    0	13.640191	3.259015	-5.202053	-0.204282	-0.698871	-2.417819	0.136963	0.030884	-0.051575	0.999920	-0.001021	-0.003494	-0.012089	
54598	    0	15.279541	7.656539	-6.388291	-0.537312	-0.609411	-2.161455	0.153804	0.074736	-0.063618	0.999933	-0.002687	-0.003047	-0.010807	
54599	    0	11.781056	3.770381	-5.638256	-0.597392	-0.472840	-1.858552	0.118286	0.036438	-0.056213	0.999949	-0.002987	-0.002364	-0.009293	
54600	    0	14.719226	5.237865	-5.432175	-0.376516	-0.407225	-1.742387	0.147751	0.050991	-0.054118	0.999958	-0.001883	-0.002036	-0.008712	
54601	    0	17.010082	5.404659	-4.323831	-0.571447	-0.279811	-1.395430	0.170532	0.052734	-0.043152	0.999970	-0.002857	-0.001399	-0.006977	
54602	    0	13.226585	2.666794	-5.062232	-0.568584	-0.168801	-1.062590	0.132447	0.025821	-0.050585	0.999981	-0.002843	-0.000844	-0.005313	
54603	    0	11.552965	4.637157	-6.145739	-0.391962	0.064087	-0.926212	0.115723	0.045715	-0.061584	0.999987	-0.001960	0.000320	-0.004631	
54604	    0	13.113686	5.959902	-7.279242	-0.495150	0.359155	-0.730517	0.131222	0.058939	-0.073174	0.999989	-0.002476	0.001796	-0.003653	
54605	    0	17.000451	3.941317	-6.733952	-0.686649	0.612071	-0.641635	0.169922	0.038635	-0.067993	0.999984	-0.003433	0.003060	-0.003208	
54606	    0	18.912460	1.229485	-6.321519	-0.933082	0.728231	-0.547413	0.188925	0.011480	-0.063958	0.999978	-0.004665	0.003641	-0.002737	
54607	    0	19.769363	0.978955	-3.732064	-1.171695	0.781257	-0.540929	0.197571	0.009033	-0.038147	0.999971	-0.005858	0.003906	-0.002705	
54608	    0	20.431871	1.486154	-2.113402	-1.581214	0.786029	-0.488479	0.204268	0.014191	-0.022051	0.999958	-0.007906	0.003930	-0.002442	
54609	    0	20.172842	-0.277709	0.040739	-1.961555	0.736441	-0.453195	0.201721	-0.003235	-0.000305	0.999942	-0.009808	0.003682	-0.002266	
54610	    0	18.384989	-2.289794	1.478202	-2.182819	0.643554	-0.484859	0.183841	-0.023185	0.014442	0.999932	-0.010914	0.003218	-0.002424	
