// Start Time: Unknown
// Update Rate: 100.0Hz
// Filter Profile: human (34.3)
// Firmware Version: 2.1.4
PacketCounter	SampleTimeFine	Acc_X	Acc_Y	Acc_Z	Gyr_X	Gyr_Y	Gyr_Z	VelInc_X	VelInc_Y	VelInc_Z	OriInc_q0	OriInc_q1	OriInc_q2	OriInc_q3	
  416	    0	12.939086	24.293471	-3.775218	-1.645168	-0.457023	2.948331	0.125883	0.244488	-0.039469	0.999854	-0.008225	-0.002285	0.014741	
  417	    0	8.400631	20.880329	-4.474947	-1.257918	-0.399787	1.567868	0.082458	0.209167	-0.045898	0.999947	-0.006289	-0.001999	0.007839	
  418	    0	8.795385	22.336594	-2.918217	-0.729945	-0.411416	0.195695	0.087796	0.223344	-0.029817	0.999990	-0.003650	-0.002057	0.000978	
  419	    0	8.449654	21.481420	-1.410910	-0.456812	-0.457766	-0.857548	0.085449	0.214417	-0.014404	0.999985	-0.002284	-0.002289	-0.004288	
  420	    0	8.506640	17.672273	-0.436944	-0.222972	-0.482565	-1.667044	0.086546	0.176001	-0.004358	0.999961	-0.001115	-0.002413	-0.008335	
  421	    0	9.781659	13.575434	0.857209	0.170139	-0.453768	-2.233172	0.099304	0.134644	0.008911	0.999934	0.000851	-0.002269	-0.011166	
  422	    0	9.761694	9.970097	2.481898	0.716804	-0.424589	-2.575953	0.098836	0.098343	0.025382	0.999907	0.003584	-0.002123	-0.012879	
  423	    0	8.823154	7.155225	3.177846	1.410921	-0.437181	-2.691756	0.089111	0.070129	0.032471	0.999882	0.007054	-0.002186	-0.013458	
  424	    0	6.632378	4.962787	2.643510	2.112300	-0.482392	-2.621396	0.066899	0.048470	0.027112	0.999855	0.010561	-0.002412	-0.013106	
  425	    0	6.403797	3.157066	0.952209	2.705730	-0.594364	-2.478933	0.064392	0.030640	0.010132	0.999826	0.013528	-0.002972	-0.012394	
  426	    0	8.264189	3.762575	-5.795563	3.517817	-1.023185	-2.452286	0.083396	0.037613	-0.056869	0.999757	0.017588	-0.005116	-0.012260	
  427	    0	15.715793	20.806148	-36.232032	6.008171	-2.201578	-3.649201	0.164978	0.215820	-0.354126	0.999321	0.030034	-0.011005	-0.018242	
  428	    0	52.554270	48.715125	-6.984262	1.855251	-0.292262	-6.504538	0.541121	0.470335	-0.064644	0.999427	0.009274	-0.001461	-0.032516	
  429	    0	45.139049	40.573989	12.893053	-1.000126	-0.727919	-4.807775	0.460510	0.395386	0.128601	0.999691	-0.005000	-0.003639	-0.024036	
  430	    0	35.476740	-21.910667	1.645745	-2.884787	-0.834171	-4.035231	0.350173	-0.225921	0.021151	0.999683	-0.014422	-0.004170	-0.020174	
  431	    0	2.415518	-8.633430	1.936525	-1.965360	-0.956832	-4.680391	0.022034	-0.086670	0.020325	0.999666	-0.009826	-0.004784	-0.023399	
  432	    0	-1.132205	-5.901724	-3.918450	-0.190370	-0.737255	-4.521575	-0.012508	-0.058781	-0.039173	0.999737	-0.000952	-0.003686	-0.022606	
  433	    0	7.866478	3.664444	-5.564252	0.635776	-0.891193	-4.500982	0.079712	0.035034	-0.055176	0.999731	0.003179	-0.004456	-0.022503	
  434	    0	2.436789	13.878177	-3.924540	0.361273	-0.988063	-3.554357	0.027022	0.138388	-0.038866	0.999827	0.001806	-0.004940	-0.017771	
  435	    0	-1.253736	14.345031	-3.243240	-0.263031	-0.582141	-2.624592	-0.010559	0.143555	-0.032654	0.999908	-0.001315	-0.002911	-0.013123	
  436	    0	9.741935	7.631160	-2.773254	-0.408371	-0.324255	-2.054253	0.098241	0.075249	-0.027728	0.999944	-0.002042	-0.001621	-0.010271	
  437	    0	15.619474	7.549137	-6.112716	-0.705727	-0.141718	-1.505297	0.156799	0.074097	-0.061279	0.999965	-0.003529	-0.000709	-0.007526	
  438	    0	16.342759	4.915720	-7.997824	-0.987443	0.014687	-1.057634	0.163677	0.047896	-0.080229	0.999973	-0.004937	0.000073	-0.005288	
  439	    0	20.180379	3.300948	-7.236099	-0.659756	-0.018311	-0.962072	0.201965	0.031799	-0.072449	0.999983	-0.003299	-0.000092	-0.004810	
  440	    0	22.115405	1.337800	-4.398212	-1.003654	0.046730	-0.878722	0.221199	0.012185	-0.044097	0.999977	-0.005018	0.000234	-0.004394	
  441	    0	20.951731	1.356059	-3.829379	-1.915011	0.150492	-0.707257	0.209534	0.012451	-0.038574	0.999948	-0.009575	0.000752	-0.003536	
  442	    0	19.972443	-2.603980	-2.651379	-2.203417	0.016404	-0.629630	0.199638	-0.026958	-0.026237	0.999934	-0.011017	0.000082	-0.003148	
  443	    0	18.418947	-2.461574	0.061948	-2.092597	-0.102236	-0.851459	0.184082	-0.025391	0.000977	0.999935	-0.010463	-0.000511	-0.004257	
  444	    0	18.709025	-0.371722	1.919231	-2.379100	0.004959	-0.874734	0.187073	-0.004307	0.019237	0.999919	-0.011895	0.000025	-0.004374	
  445	    0	16.626272	-1.656594	0.604738	-2.847967	0.149542	-0.808745	0.166199	-0.017151	0.006165	0.999889	-0.014239	0.000748	-0.004044	
  446	    0	14.424688	-2.200111	-1.790258	-2.962611	0.144964	-0.847278	0.144138	-0.022875	-0.017673	0.999881	-0.014812	0.000725	-0.004236	
  447	    0	13.862495	-2.391523	-2.578350	-3.163291	0.171097	-0.928539	0.138489	-0.024963	-0.025513	0.999864	-0.015816	0.000855	-0.004642	
  448	    0	13.544889	-6.444477	-2.409197	-3.517918	0.247206	-0.937132	0.135115	-0.065491	-0.023113	0.999833	-0.017589	0.001236	-0.004685	
  449	    0	12.572978	-7.454587	-2.816163	-3.616547	0.283258	-1.024688	0.125305	-0.075684	-0.026978	0.999822	-0.018082	0.001416	-0.005123	
  450	    0	12.362768	-5.859066	-4.599178	-3.370468	0.270095	-1.256248	0.123192	-0.060131	-0.045154	0.999837	-0.016851	0.001350	-0.006281	
  451	    0	13.328740	-3.804946	-6.157780	-2.968744	0.247395	-1.715172	0.132874	-0.040100	-0.061157	0.999852	-0.014843	0.001237	-0.008575	
  452	    0	13.574333	-4.546160	-6.955930	-2.581907	0.193223	-2.106001	0.135181	-0.047781	-0.069083	0.999861	-0.012909	0.000966	-0.010530	
  453	    0	12.047223	-5.587774	-7.971234	-2.210908	0.040438	-2.455251	0.119751	-0.058228	-0.079102	0.999863	-0.011054	0.000202	-0.012276	
  454	    0	11.153256	-4.964045	-6.614100	-1.949213	-0.074962	-2.781620	0.110847	-0.051826	-0.065601	0.999855	-0.009746	-0.000375	-0.013907	
  455	    0	10.906575	-3.710410	-4.882958	-1.788422	-0.155457	-3.029026	0.108521	-0.039185	-0.048401	0.999845	-0.008942	-0.000777	-0.015144	
  456	    0	11.541608	-3.035930	-3.895036	-1.756384	-0.161561	-3.185830	0.114941	-0.032533	-0.038578	0.999834	-0.008781	-0.000808	-0.015928	
  457	    0	11.365959	-2.290735	-3.091876	-1.805219	-0.105101	-3.244205	0.113281	-0.025024	-0.030640	0.999827	-0.009026	-0.000525	-0.016220	
  458	    0	10.715380	-1.968102	-2.158130	-1.780231	-0.081830	-3.265760	0.106820	-0.021618	-0.021351	0.999826	-0.008901	-0.000409	-0.016328	
  459	    0	9.853011	-2.214194	-0.432714	-1.449473	-0.016786	-3.319731	0.098145	-0.023804	-0.004150	0.999836	-0.007247	-0.000084	-0.016598	
  460	    0	12.003218	1.330754	-1.392572	-1.023154	-0.100141	-3.358823	0.120239	0.011218	-0.013927	0.999846	-0.005116	-0.000501	-0.016793	
  461	    0	12.108724	-1.024891	-1.249174	-1.121572	-0.060847	-3.122091	0.120911	-0.012207	-0.012390	0.999862	-0.005608	-0.000304	-0.015610	
  462	    0	10.818173	-3.944588	-1.510234	-1.204923	-0.054362	-2.929810	0.107592	-0.041115	-0.014829	0.999874	-0.006024	-0.000272	-0.014648	
  463	    0	9.796068	-5.611564	-2.307860	-1.203774	-0.061038	-2.800096	0.097168	-0.057617	-0.022705	0.999884	-0.006019	-0.000305	-0.014000	
  464	    0	9.155733	-5.954534	-2.636653	-1.263853	-0.070765	-2.604766	0.090779	-0.060896	-0.025952	0.999895	-0.006319	-0.000354	-0.013023	
  465	    0	8.531045	-5.477612	-2.665213	-1.325267	-0.091365	-2.399520	0.084656	-0.055969	-0.026245	0.999906	-0.006626	-0.000457	-0.011997	
  466	    0	8.026466	-5.198455	-2.458999	-1.410715	-0.128559	-2.175964	0.079707	-0.053025	-0.024167	0.999915	-0.007053	-0.000643	-0.010880	
  467	    0	7.652724	-4.998891	-2.313762	-1.509705	-0.132755	-1.947071	0.076050	-0.050903	-0.022705	0.999924	-0.007548	-0.000664	-0.009735	
  468	    0	6.956335	-4.974928	-2.005595	-1.600684	-0.141719	-1.704827	0.069149	-0.050498	-0.019605	0.999931	-0.008003	-0.000709	-0.008524	
  469	    0	6.138931	-5.032522	-1.652470	-1.637873	-0.186924	-1.456481	0.061035	-0.050903	-0.016052	0.999939	-0.008189	-0.000935	-0.007282	
  470	    0	5.557544	-4.717665	-1.416288	-1.635962	-0.236325	-1.218245	0.055303	-0.047627	-0.013709	0.999947	-0.008180	-0.001182	-0.006091	
  471	    0	5.586002	-4.205916	-1.108050	-1.555465	-0.252537	-0.991073	0.055664	-0.042419	-0.010681	0.999956	-0.007777	-0.001263	-0.004955	
  472	    0	6.870251	-3.627399	-1.031408	-1.192675	-0.205614	-0.735671	0.068579	-0.036587	-0.010026	0.999974	-0.005963	-0.001028	-0.003678	
  473	    0	9.699041	-3.442991	-1.907552	-0.411225	-0.046349	-0.410462	0.096924	-0.034668	-0.018982	0.999995	-0.002056	-0.000232	-0.002052	
  474	    0	12.258433	-3.290020	-3.039983	0.243187	0.144005	-0.028801	0.122558	-0.032881	-0.030528	0.999998	0.001216	0.000720	-0.000144	
  475	    0	12.821676	-2.489885	-2.463547	0.739291	0.274087	0.422670	0.128235	-0.024536	-0.024902	0.999990	0.003696	0.001370	0.002113	
  476	    0	11.353426	-0.802476	-1.631617	1.050767	0.329593	0.878341	0.113541	-0.007440	-0.016543	0.999974	0.005254	0.001648	0.004392	
  477	    0	9.060990	1.467437	0.259048	1.148239	0.385480	1.322955	0.090515	0.015259	0.002502	0.999959	0.005741	0.001927	0.006615	
  478	    0	7.974796	3.335246	0.796122	1.070043	0.444802	1.774249	0.079466	0.034016	0.007965	0.999944	0.005350	0.002224	0.008871	
  479	    0	7.549972	3.305383	0.193098	0.915550	0.512136	2.204187	0.075134	0.033875	0.001892	0.999925	0.004578	0.002561	0.011021	
  480	    0	7.164774	1.950480	-0.710484	0.815036	0.542086	2.591788	0.071367	0.020460	-0.007216	0.999904	0.004075	0.002710	0.012959	
  481	    0	7.029479	1.252680	-1.276003	0.854717	0.498982	2.934382	0.070068	0.013611	-0.012878	0.999880	0.004273	0.002495	0.014671	
  482	    0	6.926202	1.011870	-1.645855	0.938652	0.407620	3.268402	0.069050	0.011326	-0.016548	0.999853	0.004693	0.002038	0.016341	
  483	    0	6.820363	0.955905	-1.435477	0.983487	0.296229	3.627229	0.067993	0.010864	-0.014404	0.999822	0.004917	0.001481	0.018135	
  484	    0	6.888355	0.748759	-1.314191	1.043584	0.130090	3.968327	0.068707	0.008921	-0.013143	0.999789	0.005218	0.000650	0.019840	
  485	    0	7.574653	0.469327	-1.493503	1.120851	-0.025751	4.313254	0.075623	0.006409	-0.014893	0.999751	0.005604	-0.000129	0.021564	
  486	    0	8.797504	-0.258187	-1.718472	1.276901	-0.139250	4.600008	0.088014	-0.000448	-0.017131	0.999715	0.006384	-0.000696	0.022998	
  487	    0	10.228476	-0.612094	-2.036316	1.523755	-0.259237	4.858925	0.102417	-0.003479	-0.020264	0.999675	0.007618	-0.001296	0.024292	
  488	    0	11.993864	-0.106554	-2.270407	1.649103	-0.347180	5.129865	0.119949	0.002197	-0.022487	0.999635	0.008245	-0.001736	0.025646	
  489	    0	13.793571	0.307777	-1.741939	1.717800	-0.407465	5.414550	0.137817	0.006958	-0.017090	0.999594	0.008588	-0.002037	0.027069	
  490	    0	14.962386	0.179390	-0.775078	1.822931	-0.444859	5.638380	0.149509	0.006079	-0.007376	0.999558	0.009113	-0.002224	0.028188	
  491	    0	15.018057	0.104400	-0.780242	2.143625	-0.499041	5.738208	0.150085	0.005432	-0.007385	0.999527	0.010716	-0.002495	0.028687	
  492	    0	14.890995	0.885877	-1.238582	2.485113	-0.508583	5.755992	0.148601	0.013288	-0.011861	0.999505	0.012424	-0.002542	0.028775	
  493	    0	14.469534	1.506500	-1.911123	2.833471	-0.502100	5.734474	0.144226	0.019470	-0.018494	0.999485	0.014165	-0.002510	0.028667	
  494	    0	14.023185	2.015202	-2.907037	3.164470	-0.473488	5.678037	0.139644	0.024575	-0.028374	0.999469	0.015820	-0.002367	0.028385	
  495	    0	14.120277	3.375263	-4.462476	3.359064	-0.432474	5.633796	0.140259	0.038452	-0.043701	0.999459	0.016792	-0.002162	0.028164	
  496	    0	14.988659	5.597059	-5.878067	3.378143	-0.390123	5.635897	0.148325	0.061144	-0.057487	0.999458	0.016888	-0.001950	0.028174	
  497	    0	15.806253	7.912074	-7.010224	3.173805	-0.392219	5.591024	0.155884	0.084595	-0.068481	0.999481	0.015866	-0.001961	0.027950	
  498	    0	15.852297	10.982755	-7.712920	2.667642	-0.423496	5.403768	0.155622	0.115071	-0.075286	0.999543	0.013336	-0.002117	0.027015	
  499	    0	15.823152	13.951515	-7.439627	2.049710	-0.309030	5.159661	0.154663	0.144287	-0.072693	0.999613	0.010247	-0.001545	0.025795	
  500	    0	14.854222	12.612450	-8.149073	1.722523	-0.288613	4.792542	0.145569	0.130331	-0.080169	0.999674	0.008612	-0.001443	0.023960	
  501	    0	14.649196	13.383806	-9.351150	1.493202	-0.372156	4.291906	0.143738	0.137634	-0.092224	0.999740	0.007465	-0.001861	0.021458	
  502	    0	15.468088	16.871166	-9.027773	0.896700	-0.439290	3.731197	0.151690	0.171962	-0.089176	0.999813	0.004483	-0.002196	0.018655	
  503	    0	13.957997	20.192655	-7.446156	0.100712	-0.559068	3.196857	0.136536	0.204163	-0.073975	0.999867	0.000504	-0.002795	0.015984	
  504	    0	11.338466	21.078932	-4.993114	-0.567072	-0.602741	2.579768	0.110806	0.212088	-0.050195	0.999907	-0.002835	-0.003014	0.012898	
  505	    0	10.186923	20.474505	-3.165372	-0.910203	-0.475129	1.800569	0.100098	0.205505	-0.032349	0.999946	-0.004551	-0.002376	0.009003	
  506	    0	8.954292	19.136335	-2.413169	-0.855070	-0.367930	0.896079	0.088730	0.191657	-0.024787	0.999979	-0.004275	-0.001840	0.004480	
  507	    0	8.269149	18.546770	-1.648726	-0.605775	-0.343896	0.019074	0.082703	0.185425	-0.016907	0.999993	-0.003029	-0.001719	0.000095	
  508	    0	8.260251	17.362593	-0.654448	-0.331689	-0.358201	-0.745204	0.083261	0.173306	-0.006683	0.999990	-0.001658	-0.001791	-0.003726	
  509	    0	8.544361	14.788881	0.156051	-0.026703	-0.390438	-1.419080	0.086487	0.147278	0.001709	0.999972	-0.000134	-0.001952	-0.007095	
  510	    0	9.173724	11.973700	1.276749	0.429351	-0.414855	-1.926073	0.092857	0.118818	0.013215	0.999949	0.002147	-0.002074	-0.009630	
  511	    0	9.163906	9.433863	2.871620	0.972964	-0.404369	-2.290405	0.092651	0.093140	0.029358	0.999920	0.004865	-0.002022	-0.011452	
  512	    0	10.981317	7.301953	2.203226	1.610817	-0.438325	-2.524091	0.110672	0.071445	0.022854	0.999885	0.008054	-0.002192	-0.012620	
  513	    0	10.248022	7.940443	-1.474175	2.604268	-0.682111	-2.826870	0.103638	0.078125	-0.013367	0.999809	0.013021	-0.003410	-0.014133	
  514	    0	20.171427	19.563791	-21.770343	4.735799	-1.332891	-4.078987	0.207141	0.196510	-0.211688	0.999489	0.023675	-0.006663	-0.020391	
  515	    0	46.197642	42.208786	-4.509501	1.657576	-0.254102	-6.154913	0.474731	0.407959	-0.041077	0.999491	0.008286	-0.001270	-0.030769	
  516	    0	43.310736	33.125201	9.399753	-0.734212	-0.459336	-4.834852	0.440735	0.321003	0.093813	0.999698	-0.003671	-0.002296	-0.024172	
  517	    0	34.702852	-20.729790	2.376267	-2.262909	-0.794298	-4.204970	0.342468	-0.214233	0.027527	0.999706	-0.011313	-0.003971	-0.021023	
  518	    0	4.160634	-7.001311	3.430355	-1.262985	-1.002415	-4.698664	0.039776	-0.070743	0.034951	0.999691	-0.006314	-0.005012	-0.023491	
  519	    0	-1.557277	1.115219	-2.143039	-0.098999	-0.629475	-4.335369	-0.015259	0.011475	-0.021484	0.999760	-0.000495	-0.003147	-0.021675	
  520	    0	7.341695	4.645689	-6.034854	0.381117	-0.530092	-4.168629	0.074525	0.045026	-0.060065	0.999777	0.001905	-0.002650	-0.020842	
  521	    0	4.903852	6.776771	-6.864142	0.281729	-0.505854	-3.396011	0.050354	0.067017	-0.068420	0.999851	0.001409	-0.002529	-0.016979	
  522	    0	2.375269	9.843481	-6.472383	-0.100329	-0.243766	-2.586628	0.025102	0.098083	-0.064743	0.999915	-0.000502	-0.001219	-0.012933	
  523	    0	11.391400	7.170168	-5.377811	-0.478372	0.119975	-2.096598	0.114624	0.070374	-0.054016	0.999942	-0.002392	0.000600	-0.010483	
  524	    0	16.429726	4.838153	-4.422974	-0.566490	0.250438	-1.663230	0.164636	0.046887	-0.044570	0.999960	-0.002832	0.001252	-0.008316	
  525	    0	18.227869	5.073164	-4.780525	-0.524717	0.308994	-1.412978	0.182556	0.049316	-0.048218	0.999969	-0.002624	0.001545	-0.007065	
  526	    0	21.131521	2.351276	-4.606271	-0.452236	0.232126	-1.244554	0.211402	0.022093	-0.046359	0.999977	-0.002261	0.001161	-0.006223	
  527	    0	22.367485	1.048566	-3.051112	-0.967417	0.237467	-1.165783	0.223694	0.009033	-0.030823	0.999970	-0.004837	0.001187	-0.005829	
  528	    0	21.960938	0.546506	-1.697943	-1.759560	0.231175	-1.019686	0.219613	0.004194	-0.017274	0.999948	-0.008798	0.001156	-0.005098	
  529	    0	20.038314	-2.346475	0.568543	-2.074289	0.076296	-1.068902	0.200256	-0.024475	0.005859	0.999931	-0.010371	0.000381	-0.005344	
  530	    0	19.199083	-1.803305	2.763817	-2.305283	0.035096	-1.062803	0.191897	-0.018733	0.027818	0.999919	-0.011526	0.000175	-0.005314	
  531	    0	18.159253	-0.666850	3.474363	-2.791507	0.122838	-0.987280	0.181580	-0.007080	0.034729	0.999889	-0.013957	0.000614	-0.004936	
  532	    0	15.533545	-2.823096	1.667052	-3.163861	0.214777	-0.836982	0.155234	-0.028614	0.016954	0.999866	-0.015819	0.001074	-0.004185	
  533	    0	12.544477	-3.090506	-0.296706	-3.276792	0.271620	-0.868267	0.125305	-0.031494	-0.002625	0.999855	-0.016383	0.001358	-0.004341	
  534	    0	11.461316	-4.405851	-1.946197	-3.428829	0.330370	-0.823636	0.114398	-0.044857	-0.018887	0.999843	-0.017143	0.001652	-0.004118	
  535	    0	10.555581	-5.055490	-3.065095	-3.447906	0.379392	-0.831648	0.105286	-0.051514	-0.029968	0.999841	-0.017239	0.001897	-0.004158	
  536	    0	9.672654	-4.605003	-4.635155	-3.210030	0.418111	-0.990343	0.096398	-0.047266	-0.045801	0.999856	-0.016049	0.002090	-0.004951	
  537	    0	10.020524	-2.203937	-6.475133	-2.777785	0.411241	-1.365717	0.099915	-0.023621	-0.064636	0.999878	-0.013888	0.002056	-0.006828	
  538	    0	11.206413	-1.707093	-6.686028	-2.370349	0.430886	-1.742046	0.111761	-0.018838	-0.066885	0.999889	-0.011851	0.002154	-0.008710	
  539	    0	11.564416	-1.904602	-7.622538	-1.990388	0.363935	-2.064586	0.115295	-0.020996	-0.076233	0.999895	-0.009952	0.001820	-0.010323	
  540	    0	11.825037	-2.158260	-7.559628	-1.638851	0.295077	-2.367293	0.117867	-0.023599	-0.075583	0.999895	-0.008194	0.001475	-0.011836	
  541	    0	11.917898	-1.469863	-6.626734	-1.364186	0.212296	-2.643683	0.118896	-0.016724	-0.066284	0.999888	-0.006821	0.001061	-0.013218	
  542	    0	11.890514	-0.125725	-5.158813	-1.219609	0.111775	-2.902151	0.118838	-0.003297	-0.051639	0.999875	-0.006098	0.000559	-0.014510	
  543	    0	11.292962	1.647018	-3.962353	-1.171930	0.038339	-3.134302	0.113159	0.014465	-0.039734	0.999860	-0.005859	0.000192	-0.015671	
  544	    0	9.191044	3.518041	-3.323202	-1.251285	0.046351	-3.278710	0.092461	0.033459	-0.033466	0.999846	-0.006256	0.000232	-0.016393	
  545	    0	9.030311	3.670322	-2.418950	-1.371076	0.091748	-3.312098	0.090881	0.035034	-0.024475	0.999839	-0.006855	0.000459	-0.016560	
  546	    0	11.923143	3.627884	-1.152022	-1.296874	0.155838	-3.279093	0.119795	0.034242	-0.011840	0.999844	-0.006484	0.000779	-0.016395	
  547	    0	11.759390	-1.748460	0.609214	-1.147514	0.267232	-3.129723	0.117310	-0.019287	0.006042	0.999860	-0.005737	0.001336	-0.015648	
  548	    0	10.163998	-4.595746	1.341966	-0.727495	0.301183	-3.139824	0.100923	-0.047497	0.013438	0.999868	-0.003637	0.001506	-0.015698	
  549	    0	9.135127	-4.340398	-0.477142	-0.465223	0.337997	-3.181596	0.090637	-0.044861	-0.004822	0.999868	-0.002326	0.001690	-0.015907	
  550	    0	9.836329	-4.216485	-1.938388	-0.523399	0.419253	-3.161759	0.097639	-0.043763	-0.019476	0.999869	-0.002617	0.002096	-0.015808	
  551	    0	10.667890	-4.216644	-2.768958	-0.651577	0.419062	-3.064855	0.105957	-0.043884	-0.027771	0.999875	-0.003258	0.002095	-0.015324	
  552	    0	10.606816	-4.142051	-2.936133	-0.867688	0.413530	-2.957845	0.105378	-0.043110	-0.029395	0.999879	-0.004338	0.002068	-0.014789	
  553	    0	9.987958	-4.012044	-3.025186	-1.124426	0.386062	-2.808489	0.099243	-0.041687	-0.030212	0.999884	-0.005622	0.001930	-0.014042	
  554	    0	9.206983	-4.507749	-2.736884	-1.351216	0.369658	-2.625944	0.091415	-0.046465	-0.027227	0.999888	-0.006756	0.001848	-0.013129	
  555	    0	8.437087	-5.243729	-2.721881	-1.436473	0.336468	-2.426992	0.083679	-0.053650	-0.026978	0.999899	-0.007182	0.001682	-0.012135	
  556	    0	7.995017	-5.609079	-2.966678	-1.435513	0.313768	-2.223271	0.079272	-0.057186	-0.029384	0.999910	-0.007177	0.001569	-0.011116	
  557	    0	7.756886	-5.533326	-3.282448	-1.433409	0.281532	-1.991323	0.076965	-0.056335	-0.032532	0.999924	-0.007167	0.001408	-0.009956	
  558	    0	7.348694	-5.337303	-3.249679	-1.421006	0.249487	-1.782838	0.072966	-0.054255	-0.032205	0.999934	-0.007105	0.001247	-0.008914	
  559	    0	7.225297	-4.862939	-2.795857	-1.344323	0.226788	-1.559476	0.071838	-0.049377	-0.027710	0.999946	-0.006721	0.001134	-0.007797	
  560	    0	8.551949	-4.218836	-2.288783	-0.980961	0.274280	-1.332299	0.085204	-0.042869	-0.022796	0.999965	-0.004905	0.001371	-0.006661	
  561	    0	11.462627	-3.678794	-3.489447	-0.234796	0.320436	-1.023107	0.114380	-0.037415	-0.035034	0.999985	-0.001174	0.001602	-0.005116	
  562	    0	14.330227	-3.771496	-4.027260	0.237084	0.378228	-0.627901	0.143106	-0.038116	-0.040588	0.999992	0.001185	0.001891	-0.003139	
  563	    0	14.040454	-2.784056	-3.325781	0.537301	0.337220	-0.202942	0.140320	-0.027893	-0.033569	0.999994	0.002687	0.001686	-0.001015	
  564	    0	10.752265	-0.069588	-2.246717	0.717928	0.213433	0.185967	0.107499	-0.000515	-0.022584	0.999992	0.003590	0.001067	0.000930	
  565	    0	8.766074	1.975616	-1.067018	0.636485	0.170136	0.662997	0.087585	0.020081	-0.010681	0.999989	0.003182	0.000851	0.003315	
  566	    0	8.164865	2.043319	-1.182239	0.546078	0.177194	1.137360	0.081520	0.020929	-0.011838	0.999979	0.002730	0.000886	0.005687	
  567	    0	7.366515	0.503923	-1.753839	0.550277	0.148775	1.599140	0.073608	0.005676	-0.017578	0.999964	0.002751	0.000744	0.007996	
  568	    0	6.233359	-0.195194	-2.312964	0.635159	0.076105	2.024498	0.062340	-0.001247	-0.023158	0.999943	0.003176	0.000381	0.010122	
  569	    0	5.682021	-0.060420	-2.490788	0.799010	-0.020600	2.420872	0.056824	0.000183	-0.024902	0.999918	0.003995	-0.000103	0.012104	
  570	    0	5.859417	0.557078	-2.375769	0.940549	-0.127606	2.839767	0.058521	0.006514	-0.023691	0.999887	0.004703	-0.000638	0.014198	
  571	    0	6.247668	1.058779	-2.204194	0.968981	-0.241673	3.285379	0.062317	0.011719	-0.021912	0.999852	0.004845	-0.001208	0.016426	
  572	    0	6.711619	1.001216	-2.011637	0.993599	-0.375008	3.686940	0.066953	0.011347	-0.019937	0.999816	0.004968	-0.001875	0.018434	
  573	    0	7.471958	0.537766	-2.250725	1.026231	-0.525514	4.088900	0.074646	0.007019	-0.022278	0.999774	0.005131	-0.002627	0.020443	
  574	    0	8.793497	-0.025568	-2.343485	1.092247	-0.643216	4.483629	0.087984	0.001843	-0.023146	0.999728	0.005461	-0.003216	0.022416	
  575	    0	10.291559	-0.841547	-2.040958	1.301141	-0.722580	4.823052	0.103149	-0.005798	-0.020081	0.999681	0.006505	-0.003613	0.024113	
  576	    0	11.822376	-1.008355	-2.002676	1.559258	-0.814347	5.132923	0.118508	-0.006890	-0.019607	0.999632	0.007795	-0.004071	0.025661	
  577	    0	12.946791	-0.354957	-1.815038	1.793157	-0.898677	5.422203	0.129578	0.000122	-0.017578	0.999581	0.008965	-0.004493	0.027107	
  578	    0	13.979801	0.554271	-1.665682	1.972315	-0.963933	5.705387	0.139639	0.009687	-0.015902	0.999533	0.009860	-0.004819	0.028522	
  579	    0	14.437015	0.632355	-1.420028	2.206797	-1.013929	5.917604	0.144165	0.010742	-0.013367	0.999488	0.011032	-0.005069	0.029583	
  580	    0	14.431837	0.749277	-1.591321	2.579214	-1.071175	6.059245	0.144081	0.012058	-0.015005	0.999443	0.012894	-0.005355	0.030291	
  581	    0	14.688305	1.485690	-1.899464	2.911957	-1.074242	6.180278	0.146423	0.019653	-0.017944	0.999402	0.014557	-0.005370	0.030895	
  582	    0	14.724598	2.111695	-2.211382	3.244896	-1.032285	6.258762	0.146592	0.026058	-0.020960	0.999365	0.016221	-0.005160	0.031287	
  583	    0	14.726313	3.159195	-3.044666	3.540826	-0.972010	6.311674	0.146301	0.036743	-0.029114	0.999333	0.017700	-0.004859	0.031551	
  584	    0	15.390562	4.994476	-4.290539	3.684499	-0.904670	6.333454	0.152394	0.055557	-0.041224	0.999318	0.018418	-0.004522	0.031660	
  585	    0	16.441735	7.392839	-5.127438	3.596532	-0.832361	6.297174	0.162170	0.079956	-0.049194	0.999333	0.017979	-0.004161	0.031479	
  586	    0	17.852072	11.105303	-5.549293	3.047412	-0.770342	6.197650	0.175157	0.117337	-0.053058	0.999396	0.015234	-0.003851	0.030982	
  587	    0	19.153067	14.831324	-4.986019	2.263272	-0.559141	6.024454	0.187073	0.154541	-0.047607	0.999478	0.011314	-0.002795	0.030117	
  588	    0	18.378406	14.519878	-5.689619	1.808245	-0.466226	5.682839	0.179681	0.150847	-0.055127	0.999553	0.009040	-0.002331	0.028410	
  589	    0	18.614568	15.081530	-7.410095	1.575090	-0.408985	5.160389	0.182312	0.156128	-0.072510	0.999634	0.007874	-0.002045	0.025799	
  590	    0	18.686520	17.064581	-8.345941	1.226919	-0.420800	4.506333	0.183124	0.175306	-0.082006	0.999724	0.006134	-0.002104	0.022530	
  591	    0	16.383590	20.115804	-8.037677	0.709579	-0.534664	3.827150	0.160156	0.204529	-0.079224	0.999806	0.003548	-0.002673	0.019135	
  592	    0	13.491682	22.358700	-5.890037	0.083927	-0.621631	3.109109	0.131601	0.225675	-0.058393	0.999874	0.000420	-0.003108	0.015545	
  593	    0	11.869982	23.347013	-3.352860	-0.488103	-0.595108	2.314053	0.116089	0.234741	-0.033752	0.999926	-0.002440	-0.002975	0.011570	
  594	    0	11.602907	23.484805	-1.476166	-0.934422	-0.415998	1.415652	0.114395	0.235590	-0.015622	0.999962	-0.004672	-0.002080	0.007078	
  595	    0	10.305057	21.695022	-0.614560	-1.003843	-0.302126	0.480655	0.102539	0.217163	-0.007080	0.999983	-0.005019	-0.001511	0.002403	
  596	    0	9.459620	19.702188	-0.007818	-0.857357	-0.237275	-0.405885	0.094996	0.196827	-0.000810	0.999988	-0.004287	-0.001186	-0.002029	
  597	    0	9.434059	17.629720	0.852812	-0.647550	-0.206758	-1.142129	0.095337	0.175781	0.008057	0.999977	-0.003238	-0.001034	-0.005711	
  598	    0	9.207485	14.714849	1.495168	-0.368505	-0.228503	-1.740860	0.093334	0.146367	0.014788	0.999959	-0.001842	-0.001143	-0.008704	
  599	    0	9.438681	11.677298	2.419385	-0.022889	-0.234037	-2.211807	0.095642	0.115723	0.024292	0.999938	-0.000114	-0.001170	-0.011059	
  600	    0	9.889410	7.626199	4.459612	0.490583	-0.210386	-2.504226	0.099791	0.074906	0.044886	0.999918	0.002453	-0.001052	-0.012521	
  601	    0	9.003159	5.146474	5.063662	1.176684	-0.202949	-2.604001	0.090637	0.049988	0.051025	0.999897	0.005883	-0.001015	-0.013020	
  602	    0	9.099586	3.505580	3.448696	1.709054	-0.258266	-2.614891	0.091396	0.033566	0.034896	0.999877	0.008545	-0.001291	-0.013074	
  603	    0	6.187610	5.392537	-3.331786	2.175440	-0.650057	-2.612435	0.062683	0.053467	-0.032532	0.999849	0.010877	-0.003250	-0.013062	
  604	    0	2.662225	30.565154	-54.547884	5.019390	-2.939790	-3.509624	0.040074	0.318578	-0.537067	0.999423	0.025092	-0.014696	-0.017545	
  605	    0	53.897673	46.178946	8.683999	0.710423	0.822023	-6.447224	0.553833	0.443787	0.086182	0.999465	0.003551	0.004109	-0.032230	
  606	    0	42.661931	10.291528	10.992156	-0.881440	-0.335523	-3.729860	0.428261	0.095424	0.110208	0.999815	-0.004407	-0.001678	-0.018648	
  607	    0	27.210881	-18.518019	4.145263	-1.922740	-0.371386	-3.563936	0.268677	-0.189575	0.043762	0.999793	-0.009613	-0.001857	-0.017818	
  608	    0	0.706720	-0.377652	4.834258	-0.155840	-0.661889	-3.711921	0.006836	-0.003867	0.048368	0.999822	-0.000779	-0.003309	-0.018559	
  609	    0	3.750048	1.780588	-2.467294	1.037858	-0.569191	-3.819529	0.037903	0.017212	-0.024475	0.999800	0.005189	-0.002846	-0.019096	
  610	    0	14.321258	5.722114	-1.285349	1.191785	-0.490219	-3.626475	0.144250	0.054686	-0.012170	0.999814	0.005959	-0.002451	-0.018131	
  611	    0	8.104374	10.124442	-5.385594	0.636313	-0.317203	-2.764986	0.082520	0.100281	-0.053406	0.999898	0.003181	-0.001586	-0.013824	
  612	    0	7.675782	7.803820	-4.179441	0.239949	-0.185207	-2.212761	0.077654	0.077232	-0.041630	0.999937	0.001200	-0.000926	-0.011064	
  613	    0	12.758053	8.927423	-7.688952	-0.494963	0.062562	-1.672385	0.128296	0.088013	-0.077148	0.999962	-0.002475	0.000313	-0.008362	
  614	    0	15.970923	2.963409	-3.870868	-0.910959	0.215151	-1.267256	0.159850	0.028444	-0.039012	0.999969	-0.004555	0.001076	-0.006336	
  615	    0	17.464151	2.558443	-3.054134	-0.639919	0.160981	-1.017767	0.174744	0.024597	-0.030762	0.999981	-0.003200	0.000805	-0.005089	
  616	    0	20.648499	3.854708	-3.527502	-0.869756	0.241663	-0.814824	0.206596	0.037551	-0.035689	0.999981	-0.004349	0.001208	-0.004074	
  617	    0	21.642974	0.541455	-4.654459	-1.497477	0.329594	-0.731668	0.216370	0.004272	-0.046936	0.999964	-0.007487	0.001648	-0.003658	
  618	    0	21.463953	-3.311148	-3.276735	-1.987876	0.324637	-0.649464	0.214477	-0.034134	-0.032780	0.999944	-0.009939	0.001623	-0.003247	
  619	    0	21.438753	-2.169631	-1.689546	-2.307185	0.250441	-0.645462	0.214294	-0.022583	-0.016907	0.999927	-0.011536	0.001252	-0.003227	
  620	    0	19.778837	-2.449072	-0.635536	-2.587206	0.301942	-0.687429	0.197693	-0.025252	-0.006330	0.999908	-0.012936	0.001510	-0.003437	
  621	    0	16.572851	-5.917210	-0.294397	-2.818208	0.406661	-0.657677	0.165527	-0.059753	-0.002441	0.999893	-0.014091	0.002033	-0.003288	
  622	    0	13.540048	-6.333954	-1.179929	-2.985119	0.458545	-0.638415	0.135171	-0.063941	-0.011158	0.999881	-0.014925	0.002293	-0.003192	
  623	    0	12.490019	-4.441972	-2.172998	-3.070198	0.515960	-0.667600	0.124695	-0.045166	-0.021362	0.999873	-0.015350	0.002580	-0.003338	
  624	    0	12.266007	-5.592056	-2.932459	-3.121896	0.570704	-0.781666	0.122356	-0.056851	-0.028791	0.999866	-0.015609	0.002853	-0.003908	
  625	    0	10.931613	-7.535460	-4.083226	-2.920652	0.583863	-0.979654	0.108826	-0.076477	-0.040039	0.999877	-0.014603	0.002919	-0.004898	
  626	    0	10.799748	-5.817382	-5.803222	-2.358894	0.519388	-1.391265	0.107436	-0.059604	-0.057614	0.999903	-0.011794	0.002597	-0.006956	
  627	    0	11.270903	-3.190367	-6.364081	-1.869259	0.473991	-1.905881	0.112244	-0.033569	-0.063599	0.999907	-0.009346	0.002370	-0.009529	
  628	    0	11.372752	-3.726371	-7.106426	-1.460693	0.328646	-2.273821	0.113173	-0.039071	-0.070970	0.999907	-0.007303	0.001643	-0.011369	
  629	    0	11.593642	-3.239341	-7.076917	-1.290940	0.219925	-2.617739	0.115417	-0.034363	-0.070679	0.999892	-0.006454	0.001100	-0.013088	
  630	    0	11.894251	-3.075756	-6.341673	-1.322612	0.165565	-2.911120	0.118422	-0.032903	-0.063302	0.999871	-0.006613	0.000828	-0.014555	
  631	    0	11.330022	-2.755780	-5.436205	-1.361724	0.169381	-3.180854	0.112793	-0.029724	-0.054260	0.999849	-0.006808	0.000847	-0.015903	
  632	    0	10.972130	-2.387824	-4.930956	-1.340179	0.129516	-3.428653	0.109255	-0.026084	-0.049211	0.999830	-0.006701	0.000648	-0.017142	
  633	    0	11.150961	-1.394226	-4.056899	-1.374140	0.116165	-3.619611	0.111206	-0.016235	-0.040527	0.999812	-0.006870	0.000581	-0.018097	
  634	    0	12.124725	0.397532	-2.665055	-1.350111	0.099570	-3.748570	0.121278	0.001522	-0.026727	0.999801	-0.006750	0.000498	-0.018742	
  635	    0	13.471002	-0.523539	-2.702523	-1.352777	-0.000572	-3.647844	0.134583	-0.007874	-0.026978	0.999810	-0.006763	-0.000003	-0.018238	
  636	    0	12.358175	-4.602833	-1.196909	-1.250912	-0.098997	-3.508008	0.122754	-0.048260	-0.011611	0.999826	-0.006254	-0.000495	-0.017539	
  637	    0	10.769886	-5.433842	-1.494624	-1.117768	-0.203525	-3.463174	0.106750	-0.056274	-0.014526	0.999833	-0.005589	-0.001018	-0.017315	
  638	    0	9.978918	-5.490271	-1.620115	-1.200932	-0.238432	-3.395074	0.098856	-0.056682	-0.015746	0.999837	-0.006004	-0.001192	-0.016974	
  639	    0	9.793210	-5.416664	-2.153285	-1.364208	-0.201999	-3.280813	0.097046	-0.055908	-0.021057	0.999841	-0.006821	-0.001010	-0.016403	
  640	    0	9.975439	-5.705542	-2.198245	-1.491811	-0.156029	-3.109705	0.098866	-0.058759	-0.021471	0.999850	-0.007459	-0.000780	-0.015548	
  641	    0	9.769921	-5.762162	-2.219871	-1.588322	-0.134283	-2.900828	0.096863	-0.059204	-0.021667	0.999863	-0.007941	-0.000671	-0.014503	
  642	    0	9.298442	-6.105369	-2.103885	-1.610441	-0.114255	-2.696911	0.092160	-0.062467	-0.020487	0.999876	-0.008052	-0.000571	-0.013484	
  643	    0	8.768236	-6.158103	-1.728018	-1.632751	-0.108151	-2.491853	0.086914	-0.062805	-0.016724	0.999888	-0.008163	-0.000541	-0.012459	
  644	    0	8.321908	-6.038514	-1.342329	-1.621108	-0.092700	-2.248073	0.082539	-0.061421	-0.012890	0.999904	-0.008105	-0.000463	-0.011240	
  645	    0	7.969704	-5.921791	-1.339322	-1.611945	-0.082400	-2.008875	0.079102	-0.060120	-0.012878	0.999916	-0.008060	-0.000412	-0.010044	
  646	    0	7.491366	-5.723197	-1.430355	-1.541364	-0.083735	-1.756708	0.074412	-0.057995	-0.013827	0.999931	-0.007707	-0.000419	-0.008783	
  647	    0	6.973323	-5.295300	-1.472174	-1.492910	-0.118258	-1.520567	0.069336	-0.053589	-0.014282	0.999943	-0.007464	-0.000591	-0.007603	
  648	    0	6.451564	-4.810456	-1.195775	-1.498438	-0.130656	-1.289770	0.064211	-0.048607	-0.011553	0.999950	-0.007492	-0.000653	-0.006449	
  649	    0	6.353424	-4.550320	-0.828602	-1.392382	-0.103570	-1.070418	0.063293	-0.045898	-0.007935	0.999961	-0.006962	-0.000518	-0.005352	
  650	    0	7.828408	-4.326835	-0.735022	-0.864988	0.007439	-0.839620	0.078101	-0.043628	-0.007165	0.999981	-0.004325	0.000037	-0.004198	
  651	    0	11.023684	-3.963540	-2.220245	0.146485	0.194741	-0.540925	0.110107	-0.039917	-0.022339	0.999995	0.000732	0.000974	-0.002705	
  652	    0	13.831571	-3.811666	-3.760951	1.061064	0.369646	-0.130654	0.138221	-0.038006	-0.038067	0.999984	0.005305	0.001848	-0.000653	
  653	    0	14.016426	-2.715949	-3.505969	1.583309	0.444799	0.382237	0.140137	-0.026611	-0.035583	0.999964	0.007916	0.002224	0.001911	
  654	    0	10.520266	0.808834	-2.247614	1.893461	0.440415	0.868241	0.105116	0.008759	-0.022627	0.999943	0.009467	0.002202	0.004341	
  655	    0	8.071019	3.589738	-0.377785	1.765481	0.508320	1.412995	0.080444	0.036499	-0.003662	0.999932	0.008827	0.002542	0.007065	
  656	    0	7.102332	4.375179	-0.185157	1.541179	0.589959	1.940589	0.070589	0.044452	-0.001719	0.999918	0.007706	0.002950	0.009703	
  657	    0	6.741054	2.864214	-1.090993	1.421406	0.664734	2.446070	0.067017	0.029541	-0.010925	0.999894	0.007107	0.003324	0.012230	
  658	    0	6.486728	1.291085	-2.150215	1.465291	0.722536	2.833874	0.064596	0.013986	-0.021636	0.999866	0.007326	0.003613	0.014169	
  659	    0	6.593662	0.643691	-2.510358	1.643463	0.683059	3.180108	0.065735	0.007690	-0.025269	0.999833	0.008217	0.003415	0.015900	
  660	    0	7.094497	0.970659	-2.341506	1.853686	0.599138	3.507659	0.070687	0.011166	-0.023528	0.999798	0.009268	0.002995	0.017537	
  661	    0	7.251308	1.847908	-2.131095	1.934395	0.496713	3.863830	0.072083	0.020081	-0.021301	0.999763	0.009671	0.002483	0.019318	
  662	    0	7.243855	2.835256	-2.272466	1.803940	0.390850	4.233546	0.071770	0.030081	-0.022599	0.999733	0.009019	0.001954	0.021166	
  663	    0	7.331039	2.931141	-2.528657	1.596991	0.285558	4.604034	0.072571	0.031189	-0.025146	0.999701	0.007984	0.001428	0.023018	
  664	    0	7.838739	2.410390	-2.726425	1.469966	0.183698	4.946495	0.077731	0.026232	-0.027148	0.999666	0.007349	0.000918	0.024730	
  665	    0	8.671622	2.086039	-2.651174	1.446712	0.042158	5.245093	0.086121	0.023315	-0.026367	0.999629	0.007233	0.000211	0.026222	
  666	    0	9.645543	2.504706	-2.434873	1.520364	-0.124758	5.513752	0.095728	0.027877	-0.024084	0.999591	0.007601	-0.000624	0.027565	
  667	    0	10.886626	2.980890	-1.932855	1.585053	-0.284619	5.764868	0.107971	0.033081	-0.018921	0.999552	0.007924	-0.001423	0.028820	
  668	    0	11.935434	2.986566	-1.549813	1.735585	-0.433610	5.947497	0.118426	0.033528	-0.014960	0.999517	0.008677	-0.002168	0.029733	
  669	    0	12.886467	2.744737	-1.566328	1.955176	-0.551700	6.076326	0.127991	0.031494	-0.015015	0.999487	0.009774	-0.002758	0.030376	
  670	    0	13.922298	2.885152	-1.870539	2.228756	-0.631637	6.148300	0.138302	0.033316	-0.017913	0.999460	0.011142	-0.003158	0.030736	
  671	    0	15.166388	3.452377	-2.308309	2.426019	-0.621146	6.137446	0.150574	0.039429	-0.022156	0.999451	0.012128	-0.003105	0.030682	
  672	    0	16.129506	4.365924	-2.919849	2.563371	-0.598253	6.061703	0.159951	0.048886	-0.028114	0.999454	0.012815	-0.002991	0.030303	
  673	    0	17.397529	6.161110	-3.793611	2.540468	-0.560860	5.995482	0.172119	0.067261	-0.036621	0.999466	0.012700	-0.002804	0.029972	
  674	    0	18.201962	8.164056	-4.617445	2.280999	-0.501526	5.896221	0.179611	0.087476	-0.044746	0.999496	0.011403	-0.002507	0.029476	
  675	    0	18.008293	9.217993	-5.567332	2.097836	-0.524221	5.702330	0.177490	0.097839	-0.054199	0.999535	0.010488	-0.002621	0.028507	
  676	    0	18.557568	12.856386	-5.921419	1.495561	-0.442373	5.437431	0.182111	0.133983	-0.057820	0.999599	0.007477	-0.002212	0.027184	
  677	    0	17.899360	14.242160	-5.109319	0.937758	-0.271446	5.093955	0.175354	0.147156	-0.050171	0.999663	0.004688	-0.001357	0.025467	
  678	    0	16.244319	12.496693	-5.615903	0.771403	-0.199527	4.654935	0.159529	0.128918	-0.055507	0.999721	0.003857	-0.000998	0.023273	
  679	    0	15.306754	12.605628	-5.960114	0.839294	-0.216500	4.082785	0.150513	0.129395	-0.058899	0.999782	0.004196	-0.001082	0.020412	
  680	    0	14.553653	15.335711	-5.677865	0.725022	-0.270476	3.478616	0.142914	0.156062	-0.056022	0.999841	0.003625	-0.001352	0.017392	
  681	    0	12.814627	18.203804	-4.448992	0.345815	-0.360121	2.919876	0.125549	0.183960	-0.043945	0.999889	0.001729	-0.001801	0.014599	
  682	    0	11.123593	18.578519	-2.938808	-0.008774	-0.406656	2.283910	0.109164	0.187038	-0.029173	0.999932	-0.000044	-0.002033	0.011419	
  683	    0	11.003223	18.585851	-1.586121	-0.229457	-0.377659	1.588458	0.108582	0.186707	-0.015869	0.999966	-0.001147	-0.001888	0.007942	
  684	    0	10.730890	19.125545	-0.623883	-0.327684	-0.239373	0.864795	0.106488	0.191707	-0.006425	0.999989	-0.001638	-0.001197	0.004324	
  685	    0	9.241326	18.262122	-0.881357	-0.253868	-0.158691	0.148010	0.092285	0.182678	-0.008972	0.999998	-0.001269	-0.000793	0.000740	
  686	    0	8.640021	16.645547	-1.515529	-0.074577	-0.137520	-0.504494	0.086830	0.166231	-0.015158	0.999996	-0.000373	-0.000688	-0.002522	
  687	    0	8.499562	14.748759	-1.535507	0.184632	-0.192834	-1.094061	0.085815	0.147034	-0.015137	0.999984	0.000923	-0.000964	-0.005470	
  688	    0	8.584131	13.014052	-1.158903	0.425534	-0.234988	-1.588077	0.086884	0.129478	-0.011211	0.999965	0.002128	-0.001175	-0.007940	
  689	    0	9.064764	10.526015	-0.178369	0.630962	-0.242428	-1.959264	0.091675	0.104370	-0.001343	0.999946	0.003155	-0.001212	-0.009796	
  690	    0	12.459281	8.792598	0.120061	0.855659	-0.330361	-2.306807	0.125593	0.086474	0.001780	0.999923	0.004278	-0.001652	-0.011534	
  691	    0	9.480534	9.102934	-1.007434	1.264233	-0.473610	-2.479636	0.095947	0.089905	-0.009277	0.999900	0.006321	-0.002368	-0.012398	
  692	    0	11.890272	16.294432	-16.988793	2.449207	-0.942487	-3.141241	0.122256	0.163101	-0.167320	0.999790	0.012245	-0.004712	-0.015705	
  693	    0	40.094276	18.119124	-9.601351	1.774224	0.011445	-4.880309	0.405212	0.172180	-0.094482	0.999662	0.008870	0.000057	-0.024399	
  694	    0	36.748005	20.750820	2.761190	0.742030	-0.758817	-4.698063	0.372107	0.198695	0.029766	0.999709	0.003710	-0.003794	-0.023488	
  695	    0	31.326558	14.180039	2.254790	-0.440829	-0.678315	-4.610101	0.316345	0.134583	0.023315	0.999725	-0.002204	-0.003391	-0.023048	
  696	    0	21.631380	-13.170953	7.310512	-1.362157	-0.841978	-4.303166	0.213108	-0.135812	0.074923	0.999736	-0.006810	-0.004210	-0.021514	
  697	    0	-0.162555	-1.839099	1.246344	-0.623373	-0.871158	-4.310199	-0.002075	-0.018311	0.012512	0.999753	-0.003117	-0.004355	-0.021549	
  698	    0	0.524416	6.017269	-5.500028	0.345063	-0.714352	-4.012197	0.006647	0.060143	-0.054874	0.999790	0.001725	-0.003572	-0.020060	
  699	    0	5.786792	11.017541	-6.411528	0.342578	-0.697936	-3.480714	0.059998	0.109253	-0.063721	0.999841	0.001713	-0.003489	-0.017403	
  700	    0	2.014340	10.945585	-5.718026	-0.309572	-0.451292	-2.601509	0.021693	0.109092	-0.057302	0.999911	-0.001548	-0.002256	-0.013007	
  701	    0	7.309696	9.639540	-4.231881	-0.747694	-0.036431	-1.943242	0.074036	0.095520	-0.042664	0.999946	-0.003738	-0.000182	-0.009716	
  702	    0	15.070921	4.814744	-4.023983	-0.851641	0.144388	-1.441591	0.151021	0.046887	-0.040550	0.999964	-0.004258	0.000722	-0.007208	
  703	    0	15.001211	2.506665	-5.339150	-0.715452	0.228121	-1.102456	0.150085	0.024048	-0.053650	0.999977	-0.003577	0.001141	-0.005512	
  704	    0	16.756858	3.893459	-6.323966	-0.576023	0.327494	-0.954824	0.167647	0.037951	-0.063624	0.999983	-0.002880	0.001637	-0.004774	
  705	    0	19.796166	1.093154	-3.917084	-0.546077	0.355532	-0.884251	0.197937	0.009949	-0.039551	0.999985	-0.002730	0.001778	-0.004421	
  706	    0	20.502531	0.390368	-3.703844	-0.928885	0.464633	-0.717740	0.204950	0.002995	-0.037530	0.999980	-0.004644	0.002323	-0.003589	
  707	    0	22.498227	-1.068775	-3.748876	-1.486796	0.497442	-0.612648	0.224854	-0.011658	-0.037964	0.999964	-0.007434	0.002487	-0.003063	
  708	    0	19.940494	-3.207930	-1.694059	-1.607153	0.349622	-0.672921	0.199265	-0.032887	-0.017027	0.999960	-0.008036	0.001748	-0.003365	
  709	    0	20.224614	0.192293	0.975713	-1.905094	0.399978	-0.723280	0.202271	0.001282	0.009338	0.999946	-0.009525	0.002000	-0.003616	
  710	    0	19.565350	-1.176406	1.523680	-2.471802	0.452245	-0.605791	0.195651	-0.012171	0.014943	0.999916	-0.012359	0.002261	-0.003029	
  711	    0	17.109930	-3.107025	0.274053	-2.829652	0.440232	-0.541706	0.171021	-0.031494	0.002808	0.999893	-0.014148	0.002201	-0.002708	
  712	    0	15.611792	-3.912916	-0.406872	-2.948683	0.409333	-0.585388	0.155994	-0.039643	-0.003806	0.999885	-0.014743	0.002047	-0.002927	
  713	    0	14.326601	-6.328546	-0.504533	-3.146309	0.489066	-0.592067	0.143066	-0.063782	-0.004395	0.999868	-0.015731	0.002445	-0.002960	
  714	    0	12.589705	-8.692403	-1.650826	-3.194191	0.563838	-0.595883	0.125592	-0.087551	-0.015468	0.999864	-0.015970	0.002819	-0.002979	
  715	    0	11.020028	-7.780197	-3.688191	-2.872386	0.575278	-0.748472	0.109802	-0.078735	-0.036072	0.999886	-0.014361	0.002876	-0.003742	
  716	    0	10.763986	-4.531286	-5.941914	-2.424125	0.584048	-1.144064	0.107203	-0.046645	-0.059173	0.999906	-0.012120	0.002920	-0.005720	
  717	    0	11.304970	-2.810183	-6.814325	-1.988279	0.573175	-1.675465	0.112610	-0.029724	-0.068176	0.999911	-0.009941	0.002866	-0.008377	
  718	    0	10.690983	-3.157168	-7.668823	-1.624348	0.500122	-2.120465	0.106371	-0.033324	-0.076689	0.999907	-0.008121	0.002501	-0.010602	
  719	    0	10.155792	-3.575099	-7.964872	-1.288648	0.354207	-2.516259	0.100952	-0.037537	-0.079590	0.999898	-0.006443	0.001771	-0.012581	
  720	    0	10.828111	-3.525373	-6.678974	-1.185466	0.260173	-2.910353	0.107662	-0.037219	-0.066713	0.999875	-0.005927	0.001301	-0.014551	
  721	    0	11.378997	-2.639058	-5.589740	-1.181662	0.201426	-3.250285	0.113281	-0.028564	-0.055847	0.999849	-0.005908	0.001007	-0.016251	
  722	    0	11.478737	-1.613717	-5.074108	-1.340185	0.197613	-3.569057	0.114421	-0.018521	-0.050735	0.999818	-0.006701	0.000988	-0.017844	
  723	    0	11.492703	-1.435042	-4.274378	-1.542580	0.288411	-3.776050	0.114563	-0.016846	-0.042786	0.999790	-0.007712	0.001442	-0.018879	
  724	    0	12.315552	-1.333720	-3.212366	-1.706824	0.369481	-3.881938	0.122803	-0.015998	-0.032222	0.999773	-0.008533	0.001847	-0.019408	
  725	    0	14.093009	-1.757148	-2.571179	-1.744974	0.393134	-3.855423	0.140503	-0.020508	-0.025818	0.999774	-0.008724	0.001966	-0.019276	
  726	    0	13.414470	-5.219776	-1.109770	-1.557458	0.363757	-3.745719	0.133115	-0.054783	-0.010921	0.999792	-0.007787	0.001819	-0.018727	
  727	    0	12.111204	-6.575381	-0.664839	-1.213721	0.280016	-3.657759	0.119873	-0.067993	-0.006409	0.999813	-0.006068	0.001400	-0.018288	
  728	    0	11.245779	-6.670425	-1.580656	-1.061502	0.219739	-3.592130	0.111217	-0.068792	-0.015568	0.999824	-0.005307	0.001099	-0.017960	
  729	    0	10.494272	-6.614183	-1.988262	-1.157443	0.191699	-3.453255	0.103760	-0.068054	-0.019592	0.999833	-0.005787	0.000958	-0.017265	
  730	    0	9.486314	-6.708037	-2.168580	-1.278372	0.170144	-3.294354	0.093721	-0.068768	-0.021330	0.999843	-0.006392	0.000851	-0.016471	
  731	    0	8.799473	-7.230533	-2.209553	-1.320519	0.128180	-3.077079	0.086853	-0.073792	-0.021667	0.999859	-0.006602	0.000641	-0.015385	
  732	    0	8.401518	-7.509048	-2.281390	-1.336152	0.098805	-2.833292	0.082928	-0.076421	-0.022347	0.999877	-0.006680	0.000494	-0.014166	
  733	    0	8.161627	-7.515827	-2.353820	-1.283881	0.051119	-2.587981	0.080627	-0.076355	-0.023071	0.999895	-0.006419	0.000256	-0.012939	
  734	    0	7.762908	-7.425896	-2.183839	-1.211583	0.014496	-2.327032	0.076756	-0.075286	-0.021390	0.999913	-0.006058	0.000072	-0.011635	
  735	    0	7.036123	-7.002357	-2.087625	-1.161030	-0.056459	-2.056933	0.069641	-0.070862	-0.020447	0.999929	-0.005805	-0.000282	-0.010284	
  736	    0	6.208910	-6.241623	-1.766813	-1.170371	-0.147441	-1.777110	0.061543	-0.063066	-0.017255	0.999943	-0.005852	-0.000737	-0.008885	
  737	    0	5.692820	-5.619179	-1.431572	-1.184863	-0.228695	-1.506066	0.056519	-0.056702	-0.013916	0.999953	-0.005924	-0.001143	-0.007530	
  738	    0	5.538116	-5.165665	-1.316496	-1.177802	-0.313763	-1.221481	0.055084	-0.052070	-0.012773	0.999962	-0.005889	-0.001569	-0.006107	
  739	    0	5.813471	-4.855462	-1.105169	-1.122867	-0.333408	-0.944528	0.057922	-0.048889	-0.010681	0.999971	-0.005614	-0.001667	-0.004723	
  740	    0	7.174066	-4.750778	-0.783532	-0.800899	-0.252153	-0.642589	0.071597	-0.047769	-0.007554	0.999986	-0.004004	-0.001261	-0.003213	
  741	    0	10.229049	-4.821833	-1.752175	0.153542	-0.081635	-0.263977	0.102234	-0.048340	-0.017517	0.999998	0.000768	-0.000408	-0.001320	
  742	    0	13.596621	-5.514333	-3.092412	1.140410	0.147439	0.146485	0.135983	-0.054866	-0.031338	0.999983	0.005702	0.000737	0.000732	
  743	    0	14.366892	-3.483347	-3.703390	1.896891	0.247197	0.671398	0.143738	-0.033997	-0.037537	0.999949	0.009484	0.001236	0.003357	
  744	    0	12.641265	0.453203	-2.797391	2.311392	0.341235	1.232565	0.126332	0.005635	-0.028129	0.999912	0.011557	0.001706	0.006163	
  745	    0	10.016523	3.295215	-1.091729	2.315031	0.428024	1.717437	0.099854	0.033936	-0.010742	0.999893	0.011575	0.002140	0.008587	
  746	    0	8.299870	4.042868	-0.474489	2.122012	0.536559	2.226538	0.082529	0.041398	-0.004531	0.999878	0.010610	0.002683	0.011132	
  747	    0	7.648811	3.345810	-1.285725	1.995374	0.631744	2.681861	0.075989	0.034607	-0.012756	0.999855	0.009976	0.003159	0.013409	
  748	    0	7.189156	2.236250	-2.517365	1.929776	0.687066	3.099238	0.071445	0.023715	-0.025195	0.999827	0.009648	0.003435	0.015495	
  749	    0	7.297958	1.284984	-3.002809	1.925981	0.706530	3.476188	0.072632	0.014404	-0.030151	0.999796	0.009629	0.003532	0.017380	
  750	    0	7.542694	1.213455	-2.866397	2.098635	0.631384	3.827024	0.075082	0.013875	-0.028762	0.999757	0.010492	0.003157	0.019134	
  751	    0	7.527624	1.681400	-2.759180	2.172482	0.512743	4.169090	0.074829	0.018677	-0.027588	0.999720	0.010861	0.002563	0.020844	
  752	    0	7.659230	2.322699	-2.825993	2.071595	0.398486	4.517451	0.075981	0.025240	-0.028157	0.999689	0.010357	0.001992	0.022585	
  753	    0	7.994843	2.153432	-2.860371	1.884866	0.293002	4.875740	0.079346	0.023743	-0.028503	0.999657	0.009423	0.001465	0.024376	
  754	    0	8.701117	1.401283	-3.003037	1.816216	0.145931	5.198755	0.086581	0.016540	-0.029951	0.999620	0.009080	0.000730	0.025990	
  755	    0	9.791961	1.449957	-2.983504	1.817576	-0.045592	5.503089	0.097473	0.017456	-0.029663	0.999579	0.009087	-0.000228	0.027512	
  756	    0	11.435288	2.391294	-2.802695	1.808637	-0.243034	5.812018	0.113623	0.027473	-0.027651	0.999536	0.009042	-0.001215	0.029056	
  757	    0	13.336104	3.961597	-2.462030	1.869702	-0.449446	6.006855	0.132141	0.043823	-0.023926	0.999502	0.009347	-0.002247	0.030029	
  758	    0	14.391223	4.640339	-2.133819	1.966628	-0.621332	6.124990	0.142462	0.050985	-0.020408	0.999477	0.009831	-0.003106	0.030620	
  759	    0	15.554284	3.231518	-1.424488	2.058786	-0.739233	6.247326	0.154480	0.037292	-0.013306	0.999452	0.010292	-0.003695	0.031231	
  760	    0	16.407720	3.136468	-2.004412	2.374717	-0.884605	6.246987	0.163072	0.036698	-0.018907	0.999432	0.011871	-0.004422	0.031229	
  761	    0	17.621459	4.017364	-2.750211	2.585326	-0.923903	6.135188	0.174988	0.045898	-0.026123	0.999434	0.012924	-0.004619	0.030670	
  762	    0	18.402523	5.915344	-3.319478	2.591216	-0.942208	5.948751	0.182301	0.065009	-0.031516	0.999462	0.012954	-0.004710	0.029738	
  763	    0	18.744507	8.475437	-3.984218	2.268593	-0.939143	5.793192	0.185059	0.090576	-0.037964	0.999505	0.011341	-0.004695	0.028961	
  764	    0	18.837035	10.765208	-3.978087	1.577602	-0.860909	5.560140	0.185442	0.113140	-0.038100	0.999573	0.007887	-0.004304	0.027797	
  765	    0	18.002409	13.337012	-3.237451	0.732510	-0.633888	5.287044	0.176514	0.138184	-0.031311	0.999639	0.003662	-0.003169	0.026432	
  766	    0	15.676574	11.890313	-3.979792	0.398486	-0.488141	4.926806	0.153869	0.122796	-0.039178	0.999691	0.001992	-0.002440	0.024632	
  767	    0	15.314205	10.354907	-5.193713	0.527998	-0.350791	4.445259	0.150879	0.107056	-0.051392	0.999747	0.002640	-0.001754	0.022224	
  768	    0	16.184577	11.335995	-5.042406	0.683066	-0.245683	3.898495	0.159655	0.116657	-0.049832	0.999803	0.003415	-0.001228	0.019491	
  769	    0	15.715166	14.864463	-4.180703	0.499750	-0.220309	3.368541	0.154663	0.151367	-0.041260	0.999854	0.002499	-0.001101	0.016842	
  770	    0	13.405400	16.964616	-3.187701	0.176245	-0.268564	2.802751	0.131701	0.171531	-0.031549	0.999900	0.000881	-0.001343	0.014013	
  771	    0	11.375551	18.274279	-2.371870	-0.127413	-0.273710	2.082100	0.111877	0.183899	-0.023682	0.999944	-0.000637	-0.001369	0.010410	
  772	    0	10.668571	19.970339	-1.430501	-0.481038	-0.210382	1.349461	0.105350	0.200382	-0.014675	0.999973	-0.002405	-0.001052	0.006747	
  773	    0	10.182056	19.262829	-0.719279	-0.707248	-0.122643	0.652316	0.101196	0.192932	-0.007812	0.999988	-0.003536	-0.000613	0.003262	
  774	    0	9.470721	17.056420	-0.725474	-0.683977	-0.039673	-0.026512	0.094731	0.170526	-0.007819	0.999993	-0.003420	-0.000198	-0.000133	
  775	    0	8.935634	15.307792	-0.892711	-0.479127	-0.035668	-0.635530	0.089844	0.152771	-0.009277	0.999991	-0.002396	-0.000178	-0.003178	
  776	    0	8.230529	13.290350	-0.988791	-0.166894	-0.101853	-1.160056	0.083079	0.132415	-0.009956	0.999982	-0.000834	-0.000509	-0.005800	
  777	    0	7.735781	11.242568	-0.627679	0.184061	-0.180056	-1.577776	0.078247	0.111816	-0.006104	0.999968	0.000920	-0.000900	-0.007889	
  778	    0	7.914099	8.877161	0.093359	0.585375	-0.222973	-1.912531	0.079984	0.088006	0.001281	0.999949	0.002927	-0.001115	-0.009562	
  779	    0	7.929511	6.015463	1.926629	1.145200	-0.269133	-2.104238	0.079895	0.059204	0.019714	0.999927	0.005726	-0.001346	-0.010521	
  780	    0	9.537172	5.283197	0.765142	1.683291	-0.343334	-2.245406	0.095942	0.051689	0.008254	0.999900	0.008416	-0.001717	-0.011227	
  781	    0	6.315221	6.575483	-2.192435	2.122587	-0.543045	-2.307226	0.063965	0.065247	-0.021057	0.999873	0.010612	-0.002715	-0.011536	
  782	    0	7.961414	19.534557	-29.022393	3.873486	-1.635158	-2.934396	0.084871	0.199689	-0.285705	0.999671	0.019365	-0.008175	-0.014670	
  783	    0	41.523602	36.597572	-17.558421	2.163247	-0.146315	-5.490146	0.425232	0.356262	-0.171387	0.999564	0.010815	-0.000731	-0.027447	
  784	    0	46.818289	35.080314	14.632845	-0.547465	-0.185604	-4.906200	0.476470	0.339581	0.145828	0.999695	-0.002737	-0.000928	-0.024529	
  785	    0	35.007594	-9.996014	5.325125	-2.037009	-0.286887	-3.686034	0.348083	-0.105835	0.054810	0.999777	-0.010184	-0.001434	-0.018429	
  786	    0	11.900822	-10.545947	6.227807	-1.597730	-0.722183	-4.152459	0.116564	-0.107392	0.063555	0.999745	-0.007988	-0.003611	-0.020761	
  787	    0	-2.019547	-1.560678	-1.309583	0.185406	-0.722360	-3.897350	-0.020447	-0.015198	-0.013184	0.999803	0.000927	-0.003612	-0.019485	
  788	    0	7.646145	5.630494	-2.834700	0.691460	-0.529134	-3.894111	0.077614	0.054898	-0.027951	0.999801	0.003457	-0.002645	-0.019469	
  789	    0	7.787680	10.432273	-3.253482	0.425929	-0.531029	-3.143446	0.079590	0.103149	-0.032104	0.999870	0.002130	-0.002655	-0.015717	
  790	    0	1.727133	11.857658	-5.737171	-0.155452	-0.294310	-2.248812	0.018687	0.118327	-0.057437	0.999935	-0.000777	-0.001472	-0.011244	
  791	    0	9.578623	6.957255	-4.647283	-0.541695	0.067330	-1.752497	0.096375	0.068604	-0.046692	0.999957	-0.002708	0.000337	-0.008762	
  792	    0	15.719402	5.488671	-6.497487	-0.949297	0.225451	-1.243604	0.157456	0.053598	-0.065409	0.999969	-0.004746	0.001127	-0.006218	
  793	    0	16.136581	2.640205	-5.895255	-1.126681	0.359348	-0.915536	0.161377	0.025330	-0.059387	0.999971	-0.005633	0.001797	-0.004578	
  794	    0	17.956698	1.483300	-4.295470	-0.787549	0.365259	-0.763897	0.179543	0.013977	-0.043339	0.999983	-0.003938	0.001826	-0.003819	
  795	    0	22.603798	1.747856	-3.513659	-1.012237	0.482181	-0.724798	0.226013	0.016479	-0.035767	0.999977	-0.005061	0.002411	-0.003624	
  796	    0	22.126206	-1.235415	-3.957785	-1.779775	0.517281	-0.542077	0.221124	-0.013309	-0.040034	0.999953	-0.008899	0.002586	-0.002710	
  797	    0	20.790471	-2.988209	-2.902751	-2.134558	0.395974	-0.547802	0.207764	-0.030762	-0.029114	0.999937	-0.010673	0.001980	-0.002739	
  798	    0	20.031878	-2.486404	-0.390313	-2.352774	0.311096	-0.640885	0.200232	-0.025552	-0.003917	0.999924	-0.011764	0.001555	-0.003204	
  799	    0	18.494359	-2.489433	0.774199	-2.793028	0.370801	-0.653862	0.184875	-0.025391	0.007751	0.999895	-0.013965	0.001854	-0.003269	
  800	    0	16.490589	-4.504574	0.369968	-3.207733	0.413150	-0.622205	0.164773	-0.045495	0.004086	0.999864	-0.016038	0.002066	-0.003111	
  801	    0	14.361370	-5.239088	-0.345305	-3.357672	0.419637	-0.662264	0.143433	-0.052917	-0.002869	0.999851	-0.016788	0.002098	-0.003311	
  802	    0	13.201379	-5.690431	-1.099325	-3.468890	0.477244	-0.751917	0.131773	-0.057583	-0.010313	0.999839	-0.017344	0.002386	-0.003759	
  803	    0	11.848198	-7.618285	-2.024486	-3.481483	0.536567	-0.850724	0.118103	-0.077026	-0.019226	0.999835	-0.017406	0.002683	-0.004253	
  804	    0	10.670360	-8.297411	-4.077982	-3.243989	0.518825	-1.058250	0.106156	-0.084187	-0.039697	0.999850	-0.016219	0.002594	-0.005291	
  805	    0	10.378206	-4.673014	-6.323600	-2.863248	0.491355	-1.487798	0.103271	-0.048401	-0.062805	0.999866	-0.014316	0.002457	-0.007439	
  806	    0	11.279342	-2.376512	-7.708232	-2.529637	0.469610	-1.984493	0.112363	-0.025856	-0.077028	0.999867	-0.012648	0.002348	-0.009922	
  807	    0	11.464785	-3.121450	-8.135612	-2.269659	0.443288	-2.400319	0.114075	-0.033508	-0.081238	0.999861	-0.011348	0.002216	-0.012001	
  808	    0	12.045078	-4.107998	-7.528665	-1.953029	0.378818	-2.777425	0.119716	-0.043480	-0.075097	0.999854	-0.009765	0.001894	-0.013886	
  809	    0	12.243064	-3.423369	-6.035174	-1.794341	0.347156	-3.127460	0.121765	-0.036682	-0.060242	0.999836	-0.008971	0.001736	-0.015636	
  810	    0	12.456104	-2.891000	-4.698779	-1.559352	0.293177	-3.475973	0.123960	-0.031434	-0.046931	0.999817	-0.007796	0.001466	-0.017379	
  811	    0	12.480195	-1.722902	-3.443011	-1.417639	0.303862	-3.795122	0.124390	-0.019836	-0.034485	0.999793	-0.007088	0.001519	-0.018974	
  812	    0	11.851074	-1.442020	-2.971244	-1.341537	0.373486	-3.955749	0.118136	-0.016959	-0.029825	0.999780	-0.006707	0.001867	-0.019777	
  813	    0	12.431526	-2.928653	-1.520725	-1.045113	0.443300	-4.026325	0.123657	-0.031860	-0.015320	0.999781	-0.005225	0.002216	-0.020130	
  814	    0	13.894120	-2.193777	-1.197566	-0.610967	0.414115	-4.042528	0.138434	-0.024776	-0.012190	0.999788	-0.003055	0.002070	-0.020211	
  815	    0	12.971917	-4.326187	0.100720	-0.344871	0.356506	-3.896582	0.128845	-0.045776	0.000854	0.999806	-0.001724	0.001782	-0.019482	
  816	    0	11.016680	-5.339838	-0.239561	-0.102622	0.241294	-3.791847	0.109125	-0.055475	-0.002500	0.999819	-0.000513	0.001206	-0.018958	
  817	    0	9.874690	-5.346458	-1.551835	-0.194370	0.201428	-3.708099	0.097717	-0.055298	-0.015564	0.999826	-0.000972	0.001007	-0.018539	
  818	    0	9.333478	-5.653868	-2.174933	-0.455499	0.226224	-3.528782	0.092293	-0.058223	-0.021723	0.999841	-0.002277	0.001131	-0.017643	
  819	    0	9.138110	-6.085260	-2.611929	-0.689539	0.209818	-3.300633	0.090332	-0.062439	-0.026001	0.999857	-0.003448	0.001049	-0.016502	
  820	    0	8.976303	-6.379444	-2.843265	-0.890006	0.195893	-3.039297	0.088751	-0.065274	-0.028232	0.999874	-0.004450	0.000979	-0.015196	
  821	    0	8.705469	-6.437686	-2.853856	-1.068727	0.160986	-2.791700	0.086121	-0.065735	-0.028259	0.999887	-0.005343	0.000805	-0.013958	
  822	    0	8.490883	-6.322566	-2.447985	-1.266903	0.129704	-2.516448	0.084087	-0.064441	-0.024129	0.999900	-0.006334	0.000648	-0.012582	
  823	    0	8.259811	-6.538564	-2.451859	-1.373330	0.107768	-2.229373	0.081848	-0.066467	-0.024109	0.999913	-0.006866	0.000539	-0.011147	
  824	    0	7.738477	-6.937384	-2.504744	-1.430165	0.086024	-1.958323	0.076689	-0.070304	-0.024580	0.999926	-0.007151	0.000430	-0.009791	
  825	    0	7.083124	-6.834122	-2.347769	-1.419859	0.060464	-1.664004	0.070251	-0.069092	-0.023010	0.999940	-0.007099	0.000302	-0.008320	
  826	    0	6.418844	-6.507143	-1.929707	-1.366255	-0.004768	-1.383994	0.063736	-0.065643	-0.018848	0.999952	-0.006831	-0.000024	-0.006920	
  827	    0	6.373716	-5.760014	-1.476861	-1.226058	-0.029564	-1.118482	0.063416	-0.058044	-0.014404	0.999965	-0.006130	-0.000148	-0.005592	
  828	    0	7.761273	-4.990862	-1.169815	-0.845342	0.061226	-0.806813	0.077407	-0.050270	-0.011510	0.999983	-0.004227	0.000306	-0.004034	
  829	    0	10.314870	-4.585278	-2.292393	-0.054169	0.191689	-0.431824	0.103027	-0.046082	-0.023010	0.999997	-0.000271	0.000958	-0.002159	
  830	    0	12.728952	-4.736938	-3.760768	0.675775	0.350762	0.031853	0.127231	-0.047221	-0.037991	0.999992	0.003379	0.001754	0.000159	
  831	    0	13.168019	-4.083011	-3.353536	1.128586	0.446323	0.540165	0.131714	-0.040283	-0.034058	0.999977	0.005643	0.002232	0.002701	
  832	    0	10.389478	-0.386186	-2.476658	1.370829	0.440603	1.012243	0.103857	-0.003165	-0.025019	0.999961	0.006854	0.002203	0.005061	
  833	    0	8.772572	2.420247	-0.579641	1.242277	0.493630	1.515224	0.087524	0.024902	-0.005859	0.999949	0.006211	0.002468	0.007576	
  834	    0	8.031985	2.975248	-0.220639	1.108004	0.534261	1.990936	0.080012	0.030562	-0.002253	0.999931	0.005540	0.002671	0.009954	
  835	    0	7.689860	1.658326	-1.001893	1.115452	0.544947	2.446061	0.076660	0.017578	-0.010132	0.999906	0.005577	0.002725	0.012230	
  836	    0	7.105516	0.512461	-2.157747	1.267676	0.533507	2.823183	0.070914	0.006264	-0.021729	0.999876	0.006338	0.002667	0.014115	
  837	    0	6.946994	0.312205	-3.057190	1.536831	0.460077	3.164839	0.069336	0.004456	-0.030701	0.999842	0.007684	0.002300	0.015823	
  838	    0	6.981286	0.881880	-2.894416	1.815151	0.339912	3.491056	0.069592	0.010298	-0.028974	0.999804	0.009075	0.001699	0.017454	
  839	    0	7.063034	1.717459	-2.720978	1.969301	0.197808	3.856198	0.070251	0.018799	-0.027100	0.999764	0.009846	0.000989	0.019279	
  840	    0	7.370077	2.646172	-2.552395	1.967228	0.097665	4.239087	0.073102	0.028265	-0.025288	0.999726	0.009835	0.000488	0.021194	
  841	    0	7.693924	2.939077	-2.415010	1.843451	-0.005913	4.604048	0.076233	0.031372	-0.023865	0.999692	0.009216	-0.000030	0.023018	
  842	    0	8.138462	2.312341	-2.701483	1.794258	-0.093089	4.928391	0.080791	0.025360	-0.026756	0.999656	0.008970	-0.000465	0.024639	
  843	    0	9.218464	1.641988	-3.004086	1.795619	-0.200679	5.258093	0.091736	0.019104	-0.029785	0.999613	0.008977	-0.001003	0.026287	
  844	    0	10.891664	1.859717	-2.730898	1.808045	-0.276796	5.577507	0.108375	0.021870	-0.026971	0.999569	0.009039	-0.001384	0.027884	
  845	    0	12.506376	1.988693	-2.279094	1.896204	-0.383628	5.843513	0.124451	0.023743	-0.022339	0.999526	0.009480	-0.001918	0.029213	
  846	    0	13.773012	2.335541	-1.844752	2.105879	-0.468334	6.004589	0.136985	0.027666	-0.017850	0.999491	0.010528	-0.002341	0.030018	
  847	    0	14.913681	3.155729	-2.063893	2.347984	-0.531673	6.091635	0.148132	0.036316	-0.019836	0.999463	0.011738	-0.002658	0.030453	
  848	    0	15.964842	4.131211	-2.522630	2.518544	-0.580894	6.115892	0.158351	0.046477	-0.024201	0.999449	0.012590	-0.002904	0.030574	
  849	    0	16.737483	5.208509	-3.222420	2.606872	-0.591387	6.086326	0.165771	0.057556	-0.031006	0.999447	0.013032	-0.002956	0.030426	
  850	    0	17.275832	6.317459	-4.168195	2.633378	-0.589477	5.995877	0.170871	0.068853	-0.040295	0.999459	0.013165	-0.002947	0.029974	
  851	    0	17.692294	7.381372	-5.032580	2.618860	-0.617134	5.845888	0.174805	0.079590	-0.048767	0.999482	0.013092	-0.003085	0.029224	
  852	    0	17.876808	8.734942	-5.883844	2.564843	-0.677599	5.622816	0.176400	0.093071	-0.057069	0.999516	0.012822	-0.003387	0.028110	
  853	    0	18.042603	10.918658	-6.212259	2.196820	-0.786514	5.410023	0.177612	0.114685	-0.060181	0.999566	0.010983	-0.003932	0.027046	
  854	    0	18.335458	13.804559	-4.652674	1.468074	-0.687492	5.151803	0.179869	0.143043	-0.044867	0.999635	0.007339	-0.003437	0.025756	
  855	    0	16.799829	12.474729	-3.625536	1.018627	-0.541551	4.791745	0.165039	0.128906	-0.035156	0.999696	0.005093	-0.002707	0.023956	
  856	    0	16.034697	11.520559	-4.310034	0.966534	-0.428808	4.344158	0.157883	0.118858	-0.042192	0.999749	0.004832	-0.002144	0.021719	
  857	    0	15.988554	12.200628	-5.349434	0.966899	-0.355553	3.843180	0.157593	0.125305	-0.052612	0.999802	0.004834	-0.001778	0.019215	
  858	    0	14.428766	14.924545	-5.843691	0.832218	-0.385876	3.365497	0.141858	0.151887	-0.057533	0.999847	0.004161	-0.001929	0.016827	
  859	    0	12.709224	17.876259	-4.795523	0.473802	-0.458352	2.851969	0.124634	0.180664	-0.047241	0.999892	0.002369	-0.002292	0.014259	
  860	    0	11.220205	19.506369	-3.009791	0.049211	-0.539601	2.264455	0.110065	0.196325	-0.029751	0.999931	0.000246	-0.002698	0.011322	
  861	    0	10.734541	19.345088	-1.404531	-0.303463	-0.452428	1.589985	0.105835	0.194275	-0.014099	0.999964	-0.001517	-0.002262	0.007950	
  862	    0	10.234710	18.282441	-0.379510	-0.450899	-0.318910	0.822261	0.101601	0.183234	-0.004045	0.999988	-0.002254	-0.001595	0.004111	
  863	    0	9.346326	17.605118	-0.456493	-0.407410	-0.218010	0.096130	0.093384	0.176086	-0.004822	0.999997	-0.002037	-0.001090	0.000481	
  864	    0	8.516128	17.232896	-0.847743	-0.358392	-0.195694	-0.564004	0.085655	0.172072	-0.008702	0.999993	-0.001792	-0.000978	-0.002820	
  865	    0	8.141892	15.329826	-0.860071	-0.292780	-0.235750	-1.106268	0.082275	0.152832	-0.008728	0.999983	-0.001464	-0.001179	-0.005531	
  866	    0	8.252816	12.622056	-0.242467	-0.124360	-0.257876	-1.555268	0.083509	0.125572	-0.002396	0.999969	-0.000622	-0.001289	-0.007776	
  867	    0	8.597005	9.947081	0.572616	0.164988	-0.260166	-1.924164	0.086914	0.098633	0.005920	0.999952	0.000825	-0.001301	-0.009621	
  868	    0	8.849675	7.886541	1.551696	0.480089	-0.243001	-2.152296	0.089319	0.077869	0.015813	0.999938	0.002400	-0.001215	-0.010761	
  869	    0	9.380573	6.726009	0.946806	0.735491	-0.241667	-2.253013	0.094543	0.066162	0.009827	0.999928	0.003677	-0.001208	-0.011265	
  870	    0	9.482433	7.803796	-0.448268	0.995855	-0.403416	-2.388259	0.095756	0.076919	-0.003905	0.999914	0.004979	-0.002017	-0.011941	
  871	    0	10.947612	12.703113	-13.781998	2.060809	-0.836798	-2.786402	0.111816	0.126892	-0.136047	0.999841	0.010303	-0.004184	-0.013931	
  872	    0	36.572275	22.566681	-14.828563	2.125021	-0.136390	-4.685728	0.370999	0.218573	-0.145686	0.999668	0.010624	-0.000682	-0.023426	
  873	    0	43.468431	29.227348	8.594630	0.241876	-0.283651	-4.887880	0.441528	0.281433	0.086914	0.999700	0.001209	-0.001418	-0.024437	
  874	    0	33.549292	9.858058	4.374084	-1.209927	-0.456083	-4.166170	0.337353	0.091831	0.043940	0.999762	-0.006049	-0.002280	-0.020829	
  875	    0	19.755120	-17.444291	6.312833	-1.876225	-0.723136	-3.997373	0.193787	-0.177734	0.065491	0.999749	-0.009380	-0.003615	-0.019985	
  876	    0	-2.738976	-4.129869	1.131170	-0.478972	-0.782835	-4.166728	-0.028286	-0.040689	0.011300	0.999772	-0.002395	-0.003914	-0.020832	
  877	    0	2.333649	5.541849	-5.669997	0.588265	-0.662085	-3.888197	0.024597	0.055115	-0.056458	0.999801	0.002941	-0.003310	-0.019440	
  878	    0	8.354752	9.687194	-4.927146	0.333995	-0.589212	-3.526496	0.085383	0.095459	-0.048862	0.999838	0.001670	-0.002946	-0.017632	
  879	    0	2.764218	11.906712	-6.070505	-0.350962	-0.427068	-2.568128	0.029297	0.118591	-0.060852	0.999913	-0.001755	-0.002135	-0.012840	
  880	    0	6.866292	10.405544	-5.269819	-0.901049	0.011635	-1.930273	0.069658	0.103148	-0.053168	0.999943	-0.004505	0.000058	-0.009651	
  881	    0	13.739900	5.666497	-4.680950	-1.093116	0.183871	-1.435109	0.137756	0.055420	-0.047241	0.999958	-0.005466	0.000919	-0.007175	
  882	    0	15.036805	2.679959	-4.939190	-1.107418	0.284579	-1.073085	0.150437	0.025718	-0.049750	0.999969	-0.005537	0.001423	-0.005365	
  883	    0	16.745952	2.726102	-5.256379	-0.840574	0.361636	-0.875097	0.167480	0.026306	-0.052979	0.999979	-0.004203	0.001808	-0.004375	
  884	    0	19.790305	0.818458	-4.072079	-0.679402	0.423625	-0.909048	0.197850	0.007146	-0.041165	0.999981	-0.003397	0.002118	-0.004545	
  885	    0	22.278431	-0.612914	-3.716794	-1.103983	0.529676	-0.832375	0.222656	-0.007263	-0.037720	0.999972	-0.005520	0.002648	-0.004162	
  886	    0	20.838144	-3.699236	-3.599717	-1.470584	0.457769	-0.739297	0.208159	-0.038028	-0.036197	0.999963	-0.007353	0.002289	-0.003696	
  887	    0	19.774590	-2.171767	-1.007188	-1.516553	0.355534	-0.859081	0.197632	-0.022644	-0.010254	0.999960	-0.007583	0.001778	-0.004295	
  888	    0	20.121045	0.548674	1.647097	-1.835093	0.388725	-0.903146	0.201264	0.004726	0.016034	0.999946	-0.009175	0.001944	-0.004516	
  889	    0	18.088178	-3.645854	1.793896	-2.329124	0.467694	-0.748463	0.180786	-0.036926	0.017944	0.999922	-0.011645	0.002338	-0.003742	
  890	    0	15.292918	-3.600942	0.230015	-2.421065	0.428975	-0.776885	0.152793	-0.036574	0.002413	0.999916	-0.012105	0.002145	-0.003884	
  891	    0	14.776464	-2.687428	-0.201958	-2.586447	0.470939	-0.848416	0.147644	-0.027527	-0.002014	0.999904	-0.012932	0.002355	-0.004242	
  892	    0	13.833293	-5.846421	-0.862119	-2.830040	0.544759	-0.863489	0.138056	-0.059178	-0.008163	0.999887	-0.014150	0.002724	-0.004317	
  893	    0	11.859228	-8.082076	-2.272531	-2.818405	0.563261	-0.898777	0.118164	-0.081665	-0.021912	0.999887	-0.014091	0.002816	-0.004494	
  894	    0	10.486598	-6.502242	-3.975305	-2.558413	0.568600	-1.086653	0.104397	-0.066094	-0.039209	0.999899	-0.012792	0.002843	-0.005433	
  895	    0	10.295981	-4.062652	-6.052713	-2.175779	0.563066	-1.499222	0.102478	-0.042053	-0.060364	0.999908	-0.010879	0.002815	-0.007496	
  896	    0	11.036378	-2.537666	-6.631192	-1.822338	0.511376	-1.971497	0.109933	-0.027066	-0.066352	0.999907	-0.009111	0.002557	-0.009857	
  897	    0	11.064695	-3.263764	-7.200297	-1.595169	0.412764	-2.308732	0.110107	-0.034485	-0.071960	0.999899	-0.007976	0.002064	-0.011543	
  898	    0	11.008518	-3.454496	-7.344790	-1.367619	0.255976	-2.609157	0.109524	-0.036478	-0.073343	0.999890	-0.006838	0.001280	-0.013045	
  899	    0	11.642113	-3.058839	-6.278196	-1.264052	0.177772	-2.875637	0.115906	-0.032654	-0.062683	0.999876	-0.006320	0.000889	-0.014378	
  900	    0	12.045585	-2.888817	-5.518102	-1.191958	0.128943	-3.115608	0.119947	-0.031088	-0.055078	0.999860	-0.005960	0.000645	-0.015577	
  901	    0	11.710924	-2.122976	-5.073202	-1.331400	0.134475	-3.305992	0.116699	-0.023499	-0.050659	0.999841	-0.006657	0.000672	-0.016529	
  902	    0	11.377669	-2.012485	-4.833407	-1.478853	0.173007	-3.414733	0.113365	-0.022420	-0.048272	0.999826	-0.007394	0.000865	-0.017073	
  903	    0	11.392342	-1.900736	-3.929322	-1.672466	0.218405	-3.458618	0.113525	-0.021301	-0.039246	0.999814	-0.008362	0.001092	-0.017292	
  904	    0	12.225399	-0.399303	-2.550508	-1.818964	0.296612	-3.459580	0.122120	-0.006339	-0.025636	0.999807	-0.009094	0.001483	-0.017297	
  905	    0	12.968981	-2.486036	-2.163105	-1.814190	0.332662	-3.347219	0.129211	-0.027222	-0.021606	0.999817	-0.009070	0.001663	-0.016735	
  906	    0	12.134459	-6.430979	-0.624055	-1.521954	0.279823	-3.200318	0.120286	-0.066286	-0.005910	0.999842	-0.007609	0.001399	-0.016001	
  907	    0	11.100450	-6.990103	-1.187679	-1.166590	0.244343	-3.169402	0.109863	-0.071716	-0.011597	0.999856	-0.005833	0.001222	-0.015846	
  908	    0	10.500043	-7.134060	-1.516061	-1.102117	0.274099	-3.129722	0.103846	-0.073054	-0.014904	0.999861	-0.005510	0.001370	-0.015648	
  909	    0	9.750024	-7.205587	-1.693491	-1.076363	0.250255	-3.022897	0.096375	-0.073608	-0.016663	0.999870	-0.005382	0.001251	-0.015114	
  910	    0	9.190097	-7.419934	-1.847224	-0.998917	0.190170	-2.848352	0.090814	-0.075589	-0.018184	0.999886	-0.004994	0.000951	-0.014241	
  911	    0	8.777870	-7.303349	-2.068320	-0.966485	0.136571	-2.633754	0.086792	-0.074280	-0.020386	0.999901	-0.004832	0.000683	-0.013168	
  912	    0	8.487914	-7.126039	-2.163852	-0.948551	0.125507	-2.410766	0.083998	-0.072378	-0.021350	0.999915	-0.004743	0.000628	-0.012053	
  913	    0	8.286681	-6.955877	-2.298106	-0.913260	0.108531	-2.170613	0.082092	-0.070557	-0.022705	0.999930	-0.004566	0.000543	-0.010853	
  914	    0	7.754686	-6.700352	-2.340533	-0.863854	0.041390	-1.913297	0.076896	-0.067842	-0.023129	0.999945	-0.004319	0.000207	-0.009566	
  915	    0	7.135822	-6.054223	-2.236407	-0.835431	-0.041009	-1.642632	0.070862	-0.061218	-0.022095	0.999957	-0.004177	-0.000205	-0.008213	
  916	    0	7.164071	-5.425808	-2.032933	-0.790986	-0.078202	-1.361480	0.071277	-0.054824	-0.020085	0.999969	-0.003955	-0.000391	-0.006807	
  917	    0	8.662590	-4.954600	-1.953794	-0.510982	-0.003052	-1.048285	0.086365	-0.050049	-0.019409	0.999983	-0.002555	-0.000015	-0.005241	
  918	    0	11.181126	-4.572278	-2.819362	0.035858	0.101090	-0.707819	0.111634	-0.046113	-0.028258	0.999993	0.000179	0.000505	-0.003539	
  919	    0	13.071101	-4.109134	-3.695226	0.544168	0.162506	-0.318909	0.130615	-0.041199	-0.037170	0.999994	0.002721	0.000813	-0.001595	
  920	    0	13.053377	-3.087000	-3.331756	0.858119	0.164795	0.113869	0.130524	-0.030652	-0.033557	0.999990	0.004291	0.000824	0.000569	
  921	    0	10.906288	-0.874387	-2.198203	0.959210	0.131989	0.506594	0.109070	-0.008362	-0.022095	0.999985	0.004796	0.000660	0.002533	
  922	    0	9.127834	1.324827	-1.131211	0.877195	0.116540	0.905615	0.091210	0.013711	-0.011306	0.999979	0.004386	0.000583	0.004528	
  923	    0	8.600757	1.761160	-1.564043	0.785263	0.128938	1.342024	0.085876	0.018250	-0.015625	0.999969	0.003926	0.000645	0.006710	
  924	    0	8.008866	0.583788	-2.270096	0.790036	0.111200	1.733425	0.080021	0.006621	-0.022720	0.999954	0.003950	0.000556	0.008667	
  925	    0	7.124958	0.077969	-2.525449	0.929472	0.057222	2.108048	0.071228	0.001648	-0.025269	0.999933	0.004647	0.000286	0.010540	
  926	    0	6.831687	0.247611	-2.468245	1.163519	-0.014878	2.458076	0.068280	0.003459	-0.024659	0.999907	0.005817	-0.000074	0.012290	
  927	    0	7.153498	1.317357	-2.411659	1.309448	-0.107579	2.835198	0.071350	0.014343	-0.023987	0.999878	0.006547	-0.000538	0.014175	
  928	    0	7.439611	1.967395	-2.438928	1.339408	-0.206958	3.218814	0.074090	0.021030	-0.024175	0.999847	0.006697	-0.001035	0.016093	
  929	    0	7.553491	2.012567	-2.675414	1.326072	-0.330946	3.626478	0.075195	0.021667	-0.026489	0.999812	0.006630	-0.001655	0.018131	
  930	    0	8.007065	2.254348	-2.632126	1.225182	-0.448070	4.031864	0.079651	0.024312	-0.025997	0.999775	0.006125	-0.002240	0.020158	
  931	    0	8.898402	2.329992	-2.291046	1.154620	-0.554706	4.420861	0.088501	0.025391	-0.022522	0.999735	0.005773	-0.002773	0.022102	
  932	    0	10.247427	2.100802	-1.985126	1.089970	-0.606408	4.773433	0.101992	0.023553	-0.019418	0.999695	0.005449	-0.003032	0.023865	
  933	    0	11.487749	1.774985	-1.893105	1.164569	-0.669174	5.050471	0.114441	0.020752	-0.018433	0.999659	0.005822	-0.003345	0.025249	
  934	    0	12.502321	1.711892	-1.676233	1.319480	-0.723930	5.295850	0.124569	0.020530	-0.016183	0.999620	0.006597	-0.003619	0.026476	
  935	    0	13.570348	1.841927	-1.730715	1.575117	-0.798146	5.504612	0.135193	0.022278	-0.016602	0.999582	0.007874	-0.003990	0.027519	
  936	    0	14.677197	2.694108	-1.608539	1.799471	-0.839359	5.651556	0.145995	0.031214	-0.015203	0.999551	0.008996	-0.004196	0.028254	
  937	    0	15.149999	3.580374	-1.563641	2.032219	-0.868362	5.738972	0.150452	0.040283	-0.014587	0.999527	0.010159	-0.004341	0.028690	
  938	    0	15.237999	4.416042	-1.923933	2.299114	-0.909573	5.771250	0.151101	0.048745	-0.018007	0.999507	0.011494	-0.004547	0.028852	
  939	    0	15.255472	5.463592	-2.281726	2.581459	-0.936857	5.737509	0.151001	0.059265	-0.021362	0.999494	0.012905	-0.004683	0.028683	
  940	    0	15.333928	6.539503	-2.635712	2.893371	-0.966810	5.639852	0.151529	0.070050	-0.024631	0.999486	0.014464	-0.004833	0.028194	
  941	    0	15.879355	7.847486	-3.108693	3.144049	-1.030148	5.554404	0.156677	0.083313	-0.028992	0.999477	0.015718	-0.005150	0.027767	
  942	    0	16.601902	9.534015	-3.308788	3.195921	-1.034148	5.410155	0.163513	0.100289	-0.030662	0.999493	0.015977	-0.005170	0.027046	
  943	    0	16.995798	11.639017	-3.309280	2.871566	-0.948477	5.207849	0.166992	0.121216	-0.030579	0.999546	0.014356	-0.004742	0.026035	
  944	    0	17.134681	13.285298	-2.117528	2.476057	-0.656022	4.934947	0.168060	0.137271	-0.018939	0.999613	0.012379	-0.003280	0.024672	
  945	    0	16.049711	12.042159	-2.287057	2.402004	-0.423288	4.597229	0.157715	0.124329	-0.021057	0.999661	0.012009	-0.002116	0.022984	
  946	    0	15.842297	12.702082	-3.871751	2.422950	-0.235008	4.174829	0.155764	0.130746	-0.036964	0.999707	0.012114	-0.001175	0.020872	
  947	    0	15.288360	13.656655	-6.012845	2.321240	-0.139629	3.736416	0.150330	0.140076	-0.058411	0.999758	0.011605	-0.000698	0.018681	
  948	    0	13.975957	15.452899	-7.616330	1.986435	-0.185978	3.284466	0.137259	0.157542	-0.074480	0.999815	0.009932	-0.000930	0.016421	
  949	    0	12.733305	17.515168	-7.298548	1.460518	-0.354782	2.785608	0.125000	0.177429	-0.071472	0.999874	0.007302	-0.001774	0.013927	
  950	    0	11.120813	18.569159	-5.578383	0.911926	-0.506795	2.231845	0.109264	0.187169	-0.054654	0.999924	0.004560	-0.002534	0.011159	
  951	    0	10.074423	18.302120	-3.456349	0.448614	-0.555236	1.605245	0.099365	0.183899	-0.033875	0.999961	0.002243	-0.002776	0.008026	
  952	    0	10.768624	18.233307	-1.581148	0.050926	-0.476840	1.000409	0.106810	0.182873	-0.015510	0.999984	0.000255	-0.002384	0.005002	
  953	    0	10.823539	17.603299	-0.499830	-0.209809	-0.330163	0.447846	0.107849	0.176270	-0.005005	0.999995	-0.001049	-0.001651	0.002239	
  954	    0	9.085053	15.967221	-0.265535	-0.212669	-0.250435	-0.078583	0.090917	0.159634	-0.002711	0.999998	-0.001063	-0.001252	-0.000393	
  955	    0	8.153225	14.471705	-0.509646	-0.095940	-0.244141	-0.597383	0.081970	0.144470	-0.005066	0.999994	-0.000480	-0.001221	-0.002987	
  956	    0	7.903963	12.846655	-0.667165	0.026703	-0.280191	-1.055341	0.079725	0.128048	-0.006543	0.999985	0.000134	-0.001401	-0.005277	
  957	    0	7.721012	10.962865	-0.329471	0.123597	-0.294307	-1.442732	0.078003	0.109070	-0.003113	0.999972	0.000618	-0.001472	-0.007214	
  958	    0	7.866026	9.250503	0.762253	0.207713	-0.281719	-1.753640	0.079456	0.091803	0.007830	0.999960	0.001039	-0.001409	-0.008768	
  959	    0	7.772793	8.280044	1.780592	0.280194	-0.215152	-1.902038	0.078491	0.082031	0.018005	0.999952	0.001401	-0.001076	-0.009510	
  960	    0	6.863261	7.018890	1.904406	0.299458	-0.114252	-1.914627	0.069289	0.069499	0.019188	0.999952	0.001497	-0.000571	-0.009573	
  961	    0	9.272038	6.773625	-0.623883	0.277905	-0.221256	-1.956209	0.093384	0.066833	-0.006042	0.999950	0.001390	-0.001106	-0.009781	
  962	    0	7.123070	9.440740	-15.106636	0.907347	-0.861570	-2.043391	0.072844	0.094352	-0.150327	0.999928	0.004537	-0.004308	-0.010217	
  963	    0	21.099968	23.402535	-35.963275	2.298345	-1.197909	-3.488434	0.217224	0.234375	-0.355652	0.999763	0.011491	-0.005989	-0.017441	
  964	    0	57.509460	32.873343	11.102221	-0.193051	0.435890	-5.756225	0.584477	0.312106	0.109448	0.999582	-0.000965	0.002179	-0.028777	
  965	    0	39.892275	7.833998	6.472012	-1.357362	-0.513303	-3.779097	0.400146	0.071228	0.065247	0.999795	-0.006786	-0.002566	-0.018894	
  966	    0	24.334945	-21.193080	8.002723	-2.178005	-0.351365	-4.063968	0.238845	-0.215923	0.082787	0.999732	-0.010889	-0.001757	-0.020318	
  967	    0	-2.897935	-6.990101	2.162189	-0.259230	-0.701962	-4.387264	-0.030579	-0.069214	0.021606	0.999752	-0.001296	-0.003510	-0.021935	
  968	    0	2.900357	0.385574	-5.392100	1.270213	-0.743930	-4.296481	0.029283	0.003571	-0.053789	0.999742	0.006351	-0.003719	-0.021481	
  969	    0	9.483400	8.332839	-3.412120	1.042254	-0.639201	-4.083561	0.096619	0.081543	-0.033386	0.999772	0.005211	-0.003196	-0.020416	
  970	    0	1.627237	13.512014	-4.399047	0.150687	-0.567268	-3.049210	0.018455	0.134883	-0.043839	0.999879	0.000753	-0.002836	-0.015245	
  971	    0	2.011537	10.606395	-6.706185	-0.524151	-0.165371	-2.252248	0.021362	0.105652	-0.067322	0.999932	-0.002621	-0.000827	-0.011261	
  972	    0	10.465724	6.182944	-5.969232	-0.746548	0.005531	-1.757458	0.105192	0.060683	-0.059923	0.999954	-0.003733	0.000028	-0.008787	
  973	    0	14.391205	5.164762	-5.894501	-1.097692	0.226596	-1.259628	0.144165	0.050415	-0.059387	0.999964	-0.005488	0.001133	-0.006298	
  974	    0	15.956969	3.700004	-5.415459	-0.915725	0.293162	-0.938041	0.159660	0.036002	-0.054555	0.999977	-0.004579	0.001466	-0.004690	
  975	    0	19.929985	2.559535	-4.322184	-0.562862	0.349428	-0.939947	0.199341	0.024536	-0.043640	0.999983	-0.002814	0.001747	-0.004700	
  976	    0	23.237064	1.603040	-4.165647	-1.169789	0.551611	-0.887117	0.232322	0.014753	-0.042386	0.999969	-0.005849	0.002758	-0.004436	
  977	    0	22.173058	-2.203148	-3.504520	-1.718166	0.551804	-0.664531	0.221558	-0.023071	-0.035461	0.999953	-0.008591	0.002759	-0.003323	
  978	    0	21.044815	-2.943805	-1.410637	-1.665712	0.392347	-0.740634	0.210309	-0.030335	-0.014269	0.999956	-0.008328	0.001962	-0.003703	
  979	    0	20.257299	-0.352667	1.018333	-1.832613	0.388534	-0.826278	0.202576	-0.004272	0.009827	0.999948	-0.009163	0.001943	-0.004131	
  980	    0	19.202652	-1.624941	2.136566	-2.411336	0.464452	-0.715466	0.192017	-0.016681	0.021119	0.999918	-0.012056	0.002322	-0.003577	
  981	    0	16.972157	-3.874974	0.471367	-2.766322	0.437179	-0.591298	0.169617	-0.039185	0.004883	0.999897	-0.013831	0.002186	-0.002956	
  982	    0	16.461985	-2.202444	-0.674005	-2.936667	0.424211	-0.632501	0.164535	-0.022644	-0.006760	0.999885	-0.014683	0.002121	-0.003162	
  983	    0	15.997874	-6.016141	-0.755286	-3.260955	0.490784	-0.565365	0.159790	-0.060730	-0.006958	0.999860	-0.016304	0.002454	-0.002827	
  984	    0	12.688326	-9.395669	-2.018274	-3.385140	0.505854	-0.494028	0.126601	-0.094597	-0.018906	0.999850	-0.016925	0.002529	-0.002470	
  985	    0	10.467338	-9.131450	-3.938852	-3.144020	0.506614	-0.579859	0.104309	-0.092224	-0.038208	0.999868	-0.015719	0.002533	-0.002899	
  986	    0	10.869521	-4.850521	-5.584869	-2.753932	0.500507	-1.036301	0.108300	-0.049832	-0.055440	0.999888	-0.013769	0.002502	-0.005181	
  987	    0	11.878291	-1.854774	-6.452246	-2.332387	0.476281	-1.624354	0.118469	-0.020264	-0.064575	0.999896	-0.011662	0.002381	-0.008121	
  988	    0	10.890635	-2.598002	-8.087768	-2.003740	0.374235	-2.076985	0.108472	-0.027918	-0.080808	0.999894	-0.010018	0.001871	-0.010385	
  989	    0	11.010073	-3.800174	-8.150107	-1.698371	0.241289	-2.565867	0.109497	-0.040100	-0.081299	0.999881	-0.008492	0.001206	-0.012829	
  990	    0	11.571159	-3.818519	-6.044028	-1.422948	0.172814	-3.021000	0.115061	-0.040356	-0.060258	0.999860	-0.007114	0.000864	-0.015104	
  991	    0	11.571783	-2.873938	-4.888495	-1.219244	0.115401	-3.413578	0.115173	-0.031006	-0.048767	0.999835	-0.006096	0.000577	-0.017067	
  992	    0	11.473666	-1.096673	-4.419599	-1.358883	0.134477	-3.698779	0.114474	-0.013386	-0.044188	0.999805	-0.006794	0.000672	-0.018493	
  993	    0	11.086618	-0.667110	-3.953322	-1.643489	0.264950	-3.789028	0.110657	-0.009094	-0.039612	0.999785	-0.008217	0.001325	-0.018944	
  994	    0	12.847744	-0.859610	-2.788269	-1.901961	0.381308	-3.787899	0.128227	-0.011292	-0.028028	0.999773	-0.009509	0.001906	-0.018938	
  995	    0	14.120197	-3.417579	-1.749404	-1.983025	0.453410	-3.662377	0.140503	-0.036926	-0.017456	0.999780	-0.009914	0.002267	-0.018311	
  996	    0	12.756958	-6.821250	-0.153778	-1.655877	0.446730	-3.559535	0.126326	-0.070479	-0.001244	0.999804	-0.008279	0.002234	-0.017797	
  997	    0	11.696466	-7.201233	-0.838702	-1.245762	0.428797	-3.502096	0.115662	-0.074097	-0.008179	0.999825	-0.006228	0.002144	-0.017509	
  998	    0	11.032597	-6.897220	-1.769980	-1.140467	0.435091	-3.451159	0.109075	-0.070962	-0.017537	0.999832	-0.005702	0.002175	-0.017255	
  999	    0	10.234587	-6.805660	-2.129556	-1.147331	0.433373	-3.362454	0.101135	-0.069885	-0.021118	0.999840	-0.005736	0.002167	-0.016811	
 1000	    0	9.507365	-7.044094	-2.244124	-1.081710	0.383014	-3.208125	0.093884	-0.072074	-0.022235	0.999854	-0.005408	0.001915	-0.016040	
 1001	    0	8.802246	-7.040887	-2.360111	-1.025243	0.323500	-3.000005	0.086914	-0.071838	-0.023376	0.999872	-0.005126	0.001617	-0.014999	
 1002	    0	8.221990	-6.949687	-2.225251	-0.984609	0.293742	-2.776629	0.081211	-0.070738	-0.022026	0.999890	-0.004923	0.001469	-0.013883	
 1003	    0	7.805955	-6.880773	-1.975306	-0.939780	0.270852	-2.544482	0.077148	-0.069885	-0.019531	0.999907	-0.004699	0.001354	-0.012722	
 1004	    0	7.409340	-6.939087	-1.972057	-0.813123	0.222784	-2.268847	0.073277	-0.070305	-0.019518	0.999927	-0.004066	0.001114	-0.011344	
 1005	    0	6.811641	-6.554406	-1.982401	-0.681318	0.160411	-1.989020	0.067444	-0.066284	-0.019653	0.999944	-0.003407	0.000802	-0.009945	
 1006	    0	6.150605	-5.717574	-1.828119	-0.631150	0.078775	-1.717210	0.061005	-0.057758	-0.018124	0.999958	-0.003156	0.000394	-0.008586	
 1007	    0	5.643242	-4.758590	-1.607519	-0.630767	0.021363	-1.417556	0.056091	-0.048035	-0.015930	0.999969	-0.003154	0.000107	-0.007088	
 1008	    0	5.405986	-3.827641	-1.478273	-0.710874	-0.022125	-1.151666	0.053840	-0.038639	-0.014640	0.999976	-0.003554	-0.000111	-0.005758	
 1009	    0	5.757840	-3.377063	-1.154023	-0.695804	-0.029564	-0.859837	0.057434	-0.034058	-0.011414	0.999984	-0.003479	-0.000148	-0.004299	
 1010	    0	7.399558	-3.379971	-1.211451	-0.220871	0.067902	-0.537682	0.073900	-0.034012	-0.012102	0.999995	-0.001104	0.000340	-0.002688	
 1011	    0	10.069349	-3.126916	-3.169429	0.622750	0.136566	-0.158692	0.100647	-0.031250	-0.031860	0.999994	0.003114	0.000683	-0.000793	
 1012	    0	12.272665	-2.813782	-3.923988	1.201638	0.277521	0.323298	0.122717	-0.027702	-0.039577	0.999979	0.006008	0.001388	0.001616	
 1013	    0	12.160265	-1.041053	-3.536044	1.567099	0.339703	0.803386	0.121582	-0.009644	-0.035645	0.999959	0.007835	0.001698	0.004017	
 1014	    0	9.769205	1.861596	-2.278824	1.658852	0.370223	1.277185	0.097528	0.019428	-0.022810	0.999943	0.008294	0.001851	0.006386	
 1015	    0	7.817999	3.786430	-1.052149	1.528394	0.379190	1.773876	0.077820	0.038635	-0.010376	0.999929	0.007642	0.001896	0.008869	
 1016	    0	7.272428	3.689303	-1.464856	1.389927	0.416577	2.253409	0.072271	0.037810	-0.014539	0.999909	0.006949	0.002083	0.011267	
 1017	    0	7.085365	2.204608	-2.206985	1.315357	0.494594	2.665048	0.070496	0.023132	-0.022095	0.999887	0.006577	0.002473	0.013325	
 1018	    0	7.109803	1.399622	-2.549267	1.419324	0.493073	2.993342	0.070813	0.015239	-0.025562	0.999859	0.007096	0.002465	0.014966	
 1019	    0	7.437888	1.252644	-2.723274	1.658917	0.436427	3.300666	0.074097	0.013977	-0.027283	0.999826	0.008294	0.002182	0.016502	
 1020	    0	7.528612	1.684014	-2.531603	1.847584	0.326751	3.590829	0.074924	0.018421	-0.025273	0.999794	0.009237	0.001634	0.017953	
 1021	    0	7.428030	2.579624	-2.434686	1.896053	0.211542	3.895874	0.073730	0.027466	-0.024170	0.999764	0.009480	0.001058	0.019478	
 1022	    0	7.490276	2.998575	-2.439373	1.769603	0.114260	4.231252	0.074229	0.031775	-0.024160	0.999737	0.008847	0.000571	0.021154	
 1023	    0	7.953294	2.553911	-2.273351	1.642197	0.022890	4.555194	0.078918	0.027527	-0.022522	0.999706	0.008210	0.000114	0.022774	
 1024	    0	8.790869	1.869862	-2.223104	1.651183	-0.079927	4.864083	0.087425	0.021011	-0.022029	0.999670	0.008255	-0.000400	0.024318	
 1025	    0	9.953797	2.007237	-2.373075	1.668181	-0.222806	5.158867	0.098999	0.022827	-0.023438	0.999632	0.008340	-0.001114	0.025791	
 1026	    0	11.177979	2.278187	-2.103091	1.706930	-0.341462	5.475225	0.111133	0.026008	-0.020628	0.999587	0.008533	-0.001707	0.027372	
 1027	    0	12.176961	2.486232	-1.896969	1.816261	-0.476909	5.725201	0.121033	0.028503	-0.018433	0.999546	0.009080	-0.002384	0.028622	
 1028	    0	12.942818	2.539022	-1.786314	2.014108	-0.583935	5.900584	0.128652	0.029369	-0.017204	0.999510	0.010069	-0.002919	0.029498	
 1029	    0	14.170894	2.904748	-1.944811	2.226644	-0.674365	6.023691	0.140808	0.033508	-0.018616	0.999478	0.011131	-0.003371	0.030113	
 1030	    0	15.327293	3.119883	-2.042410	2.444900	-0.727976	6.071807	0.152299	0.036075	-0.019447	0.999457	0.012222	-0.003639	0.030354	
 1031	    0	15.973018	3.000598	-2.606332	2.719810	-0.734084	6.039020	0.158813	0.035156	-0.025024	0.999445	0.013597	-0.003670	0.030190	
 1032	    0	16.800187	4.110602	-3.422947	2.887309	-0.740952	5.975689	0.166788	0.046584	-0.032964	0.999442	0.014434	-0.003704	0.029873	
 1033	    0	17.843333	5.975606	-4.107046	2.771685	-0.719581	5.911555	0.176697	0.065552	-0.039551	0.999460	0.013856	-0.003597	0.029552	
 1034	    0	18.594148	7.827731	-4.266221	2.359594	-0.715184	5.832693	0.183693	0.084147	-0.041033	0.999498	0.011796	-0.003575	0.029159	
 1035	    0	19.488376	11.075598	-3.482028	1.586384	-0.544628	5.696943	0.191711	0.116516	-0.033386	0.999558	0.007931	-0.002723	0.028481	
 1036	    0	18.516286	11.389539	-3.297854	1.022279	-0.347563	5.436449	0.182030	0.119038	-0.032061	0.999616	0.005111	-0.001738	0.027179	
 1037	    0	17.291892	10.430115	-4.960677	0.946911	-0.244739	5.014583	0.170288	0.108826	-0.048889	0.999673	0.004734	-0.001224	0.025070	
 1038	    0	16.569402	10.889465	-6.674761	1.048371	-0.176255	4.481903	0.163252	0.112919	-0.066018	0.999734	0.005241	-0.000881	0.022408	
 1039	    0	16.136229	14.032308	-7.128201	0.957745	-0.206008	3.932459	0.158630	0.143799	-0.070435	0.999794	0.004788	-0.001030	0.019661	
 1040	    0	15.023076	18.740532	-5.756010	0.500704	-0.341814	3.382277	0.147129	0.190054	-0.056833	0.999852	0.002503	-0.001709	0.016911	
 1041	    0	13.103317	21.235160	-3.874319	-0.093654	-0.416578	2.753538	0.128174	0.214111	-0.038574	0.999903	-0.000468	-0.002083	0.013767	
 1042	    0	11.910928	21.609246	-2.580585	-0.539598	-0.305753	1.928362	0.117059	0.217157	-0.026211	0.999949	-0.002698	-0.001529	0.009642	
 1043	    0	10.762944	20.971385	-2.365940	-0.739865	-0.155641	0.971228	0.106628	0.210144	-0.024353	0.999981	-0.003699	-0.000778	0.004856	
 1044	    0	10.065403	20.715741	-2.526723	-0.761797	-0.062370	0.113106	0.100545	0.207116	-0.026025	0.999992	-0.003809	-0.000312	0.000566	
 1045	    0	9.061526	19.357001	-2.822225	-0.690272	-0.043488	-0.647738	0.091248	0.193176	-0.028870	0.999989	-0.003451	-0.000217	-0.003239	
 1046	    0	8.319361	16.672559	-2.967360	-0.500302	-0.164224	-1.302158	0.084301	0.166104	-0.030021	0.999975	-0.002501	-0.000821	-0.006511	
 1047	    0	8.479092	13.684765	-2.231882	-0.192263	-0.259212	-1.818874	0.086060	0.136047	-0.022339	0.999957	-0.000961	-0.001296	-0.009094	
 1048	    0	9.181453	10.565892	-0.743737	0.214009	-0.300414	-2.244044	0.093003	0.104628	-0.007186	0.999935	0.001070	-0.001502	-0.011220	
 1049	    0	10.162880	7.884085	0.889819	0.670834	-0.349436	-2.533033	0.102600	0.077515	0.009338	0.999912	0.003354	-0.001747	-0.012665	
 1050	    0	11.691187	8.426802	1.054124	1.155517	-0.486393	-2.790369	0.118045	0.082562	0.011308	0.999883	0.005777	-0.002432	-0.013951	
 1051	    0	7.857585	9.418883	-2.070486	1.907450	-0.554496	-2.963414	0.080017	0.093201	-0.019592	0.999841	0.009537	-0.002772	-0.014816	
 1052	    0	17.753761	18.456762	-18.646284	3.046927	-0.816431	-3.891398	0.181871	0.183862	-0.182921	0.999686	0.015233	-0.004082	-0.019455	
 1053	    0	43.365488	23.072810	-2.596346	1.338556	-0.081645	-5.354226	0.439636	0.219177	-0.024292	0.999619	0.006692	-0.000408	-0.026768	
 1054	    0	33.978739	22.492695	10.605350	-0.376928	-0.466963	-4.714837	0.344718	0.217039	0.106441	0.999717	-0.001884	-0.002335	-0.023572	
 1055	    0	28.874657	-4.704213	6.079978	-1.445132	-0.374445	-4.304114	0.287537	-0.052795	0.061707	0.999740	-0.007225	-0.001872	-0.021519	
 1056	    0	9.821431	-9.783230	2.820903	-1.099679	-0.893859	-4.258895	0.095975	-0.099733	0.029186	0.999747	-0.005498	-0.004469	-0.021293	
 1057	    0	-1.996666	0.299542	-1.732570	0.000191	-0.697381	-4.250664	-0.019836	0.003418	-0.017395	0.999767	0.000001	-0.003487	-0.021252	
 1058	    0	4.199779	10.664983	-4.238814	0.516544	-0.748874	-3.846037	0.044197	0.105923	-0.041951	0.999804	0.002583	-0.003744	-0.019229	
 1059	    0	4.032556	9.557929	-6.202241	0.341812	-0.738367	-3.149553	0.042053	0.095032	-0.061707	0.999867	0.001709	-0.003692	-0.015747	
 1060	    0	1.324470	11.899260	-6.170169	-0.326164	-0.349625	-2.319009	0.014730	0.118727	-0.061871	0.999929	-0.001631	-0.001748	-0.011595	
 1061	    0	11.244168	8.795755	-5.077623	-0.852027	0.000000	-1.786833	0.113220	0.086731	-0.051147	0.999950	-0.004260	0.000000	-0.008934	
 1062	    0	15.794770	3.600549	-4.175574	-0.949298	0.116922	-1.342598	0.158159	0.034745	-0.042015	0.999966	-0.004746	0.000585	-0.006713	
 1063	    0	15.976709	2.859686	-5.917173	-0.762182	0.213052	-1.055916	0.159851	0.027527	-0.059448	0.999978	-0.003811	0.001065	-0.005280	
 1064	    0	18.863693	2.670331	-4.934466	-0.515750	0.311472	-1.004225	0.188690	0.025628	-0.049706	0.999983	-0.002579	0.001557	-0.005021	
 1065	    0	20.004089	-0.394114	-3.563958	-0.520327	0.383188	-0.909429	0.199951	-0.004944	-0.036011	0.999984	-0.002602	0.001916	-0.004547	
 1066	    0	22.444418	0.631290	-3.957665	-1.017960	0.527005	-0.773627	0.224360	0.005241	-0.040196	0.999975	-0.005090	0.002635	-0.003868	
 1067	    0	21.459496	-2.660373	-3.513764	-1.286138	0.465398	-0.705726	0.214417	-0.027588	-0.035461	0.999969	-0.006431	0.002327	-0.003529	
 1068	    0	19.930155	-1.137613	-0.885985	-1.342216	0.411610	-0.832185	0.199233	-0.012266	-0.009190	0.999967	-0.006711	0.002058	-0.004161	
 1069	    0	20.363754	0.032567	1.521693	-1.786071	0.499161	-0.749982	0.203674	-0.000305	0.014709	0.999949	-0.008930	0.002496	-0.003750	
 1070	    0	18.378105	-1.116511	0.879783	-2.284106	0.522817	-0.629059	0.183767	-0.011645	0.008449	0.999926	-0.011420	0.002614	-0.003145	
 1071	    0	16.721856	-1.321368	-0.060401	-2.495455	0.502028	-0.609606	0.167175	-0.013733	-0.000854	0.999914	-0.012477	0.002510	-0.003048	
 1072	    0	15.525313	-4.251114	-0.331365	-2.763461	0.507563	-0.557728	0.155126	-0.042988	-0.003116	0.999897	-0.013817	0.002538	-0.002789	
 1073	    0	13.476610	-6.811941	-0.699097	-2.953262	0.544760	-0.484485	0.134583	-0.068542	-0.006348	0.999884	-0.014766	0.002724	-0.002422	
 1074	    0	11.875823	-7.852006	-1.879140	-2.910342	0.606941	-0.461596	0.118521	-0.079060	-0.018003	0.999887	-0.014551	0.003035	-0.002308	
 1075	    0	11.147337	-6.520475	-3.669985	-2.607619	0.631734	-0.649282	0.111145	-0.066040	-0.036194	0.999905	-0.013038	0.003159	-0.003246	
 1076	    0	11.307747	-4.228919	-5.349987	-2.204954	0.610940	-1.063566	0.112685	-0.043478	-0.053370	0.999920	-0.011024	0.003055	-0.005318	
 1077	    0	11.610215	-2.598436	-5.800714	-1.794478	0.586906	-1.552620	0.115723	-0.027405	-0.058105	0.999925	-0.008972	0.002934	-0.007763	
 1078	    0	10.525771	-2.472975	-6.890699	-1.416052	0.479520	-1.973203	0.104838	-0.026254	-0.068976	0.999923	-0.007080	0.002398	-0.009866	
 1079	    0	10.272300	-2.926258	-7.158180	-1.074060	0.342570	-2.415538	0.102234	-0.030884	-0.071594	0.999910	-0.005370	0.001713	-0.012077	
 1080	    0	10.790378	-2.345736	-6.137892	-0.903544	0.218590	-2.830801	0.107488	-0.025258	-0.061385	0.999888	-0.004518	0.001093	-0.014153	
 1081	    0	11.120726	-0.793610	-5.092900	-0.985000	0.145919	-3.171685	0.111023	-0.009949	-0.050964	0.999862	-0.004925	0.000730	-0.015858	
 1082	    0	10.722036	0.710953	-4.678964	-1.282764	0.199711	-3.438380	0.107271	0.004965	-0.046933	0.999830	-0.006413	0.000998	-0.017191	
 1083	    0	10.776033	0.676412	-4.570053	-1.527504	0.293179	-3.634117	0.107788	0.004456	-0.045898	0.999804	-0.007637	0.001466	-0.018169	
 1084	    0	12.610282	0.235427	-3.462459	-1.687929	0.319312	-3.680673	0.126059	-0.000259	-0.034831	0.999793	-0.008439	0.001596	-0.018402	
 1085	    0	13.403260	-2.333710	-2.343975	-1.695364	0.314543	-3.595972	0.133545	-0.025940	-0.023438	0.999801	-0.008476	0.001573	-0.017979	
 1086	    0	12.070008	-5.716735	-0.488778	-1.405229	0.269525	-3.539300	0.119657	-0.059324	-0.004638	0.999817	-0.007026	0.001348	-0.017695	
 1087	    0	10.879247	-6.232217	-0.963359	-1.075615	0.199901	-3.511245	0.107666	-0.064270	-0.009399	0.999830	-0.005378	0.000999	-0.017555	
 1088	    0	10.502633	-6.593698	-1.738967	-0.939419	0.140007	-3.436271	0.103860	-0.067809	-0.017147	0.999841	-0.004697	0.000700	-0.017180	
 1089	    0	10.302842	-6.815031	-2.139424	-0.874944	0.053408	-3.331158	0.101868	-0.069946	-0.021118	0.999851	-0.004375	0.000267	-0.016655	
 1090	    0	9.930155	-6.621695	-2.376626	-0.904698	-0.031473	-3.228720	0.098218	-0.067915	-0.023446	0.999859	-0.004523	-0.000157	-0.016143	
 1091	    0	9.290513	-6.409891	-2.117568	-0.957339	-0.110631	-3.064860	0.091919	-0.065613	-0.020813	0.999870	-0.004786	-0.000553	-0.015324	
 1092	    0	8.746834	-6.405797	-2.207410	-1.004067	-0.178725	-2.864567	0.086557	-0.065412	-0.021670	0.999884	-0.005020	-0.000894	-0.014322	
 1093	    0	8.440488	-6.574021	-2.181817	-1.111640	-0.205047	-2.613919	0.083557	-0.066956	-0.021362	0.999898	-0.005558	-0.001025	-0.013069	
 1094	    0	8.278383	-6.616421	-1.964650	-1.195561	-0.168233	-2.361558	0.082010	-0.067251	-0.019177	0.999911	-0.005978	-0.000841	-0.011807	
 1095	    0	8.094041	-6.514206	-1.846903	-1.184683	-0.183873	-2.115683	0.080261	-0.066101	-0.018005	0.999926	-0.005923	-0.000919	-0.010578	
 1096	    0	7.704895	-6.305117	-1.778208	-1.172853	-0.215916	-1.869812	0.076473	-0.063870	-0.017326	0.999938	-0.005864	-0.001080	-0.009349	
 1097	    0	7.113064	-5.834636	-1.699914	-1.210043	-0.290494	-1.619749	0.070679	-0.059021	-0.016541	0.999948	-0.006050	-0.001452	-0.008099	
 1098	    0	6.651855	-5.193242	-1.488630	-1.260013	-0.336461	-1.362249	0.066187	-0.052476	-0.014445	0.999955	-0.006300	-0.001682	-0.006811	
 1099	    0	6.859944	-4.678600	-1.261262	-1.203933	-0.356869	-1.113142	0.068359	-0.047241	-0.012207	0.999965	-0.006020	-0.001784	-0.005566	
 1100	    0	8.471535	-4.258349	-1.199344	-0.888258	-0.267031	-0.845533	0.084550	-0.042994	-0.011690	0.999980	-0.004441	-0.001335	-0.004228	
 1101	    0	11.435117	-4.149876	-2.426383	-0.132561	-0.115967	-0.514985	0.114258	-0.041809	-0.024170	0.999996	-0.000663	-0.000580	-0.002575	
 1102	    0	13.990641	-4.020280	-3.706526	0.606347	0.023842	-0.136948	0.139874	-0.040186	-0.037204	0.999994	0.003032	0.000119	-0.000685	
 1103	    0	14.236806	-2.982423	-3.418684	1.136023	0.097085	0.295259	0.142395	-0.029419	-0.034424	0.999982	0.005680	0.000485	0.001476	
 1104	    0	11.709306	-0.177365	-2.360788	1.453034	0.107385	0.745400	0.117085	-0.001165	-0.023681	0.999966	0.007265	0.000537	0.003727	
 1105	    0	9.403518	2.543138	-0.829822	1.482414	0.153544	1.213092	0.093872	0.026062	-0.008179	0.999953	0.007412	0.000768	0.006065	
 1106	    0	8.317430	3.558117	-0.864755	1.435310	0.216107	1.706350	0.082857	0.036350	-0.008478	0.999937	0.007176	0.001081	0.008532	
 1107	    0	7.758501	2.595905	-1.648728	1.445812	0.319109	2.167573	0.077271	0.026917	-0.016418	0.999913	0.007229	0.001595	0.010838	
 1108	    0	7.082268	1.714459	-2.259557	1.556265	0.336469	2.573874	0.070555	0.018229	-0.022575	0.999885	0.007781	0.001682	0.012869	
 1109	    0	6.874133	1.816062	-2.765027	1.785557	0.312821	2.924491	0.068420	0.019409	-0.027588	0.999851	0.008927	0.001564	0.014622	
 1110	    0	7.307257	2.629342	-2.688589	1.936459	0.275056	3.291522	0.072587	0.027750	-0.026722	0.999816	0.009682	0.001375	0.016457	
 1111	    0	7.273181	3.279724	-2.484177	1.946399	0.234430	3.666188	0.072083	0.034363	-0.024597	0.999784	0.009731	0.001172	0.018330	
 1112	    0	7.122848	3.478891	-2.514175	1.824148	0.151838	4.062226	0.070480	0.036453	-0.024868	0.999751	0.009120	0.000759	0.020309	
 1113	    0	7.398581	3.173323	-2.459305	1.616820	0.071914	4.459036	0.073242	0.033569	-0.024353	0.999719	0.008083	0.000360	0.022293	
 1114	    0	7.950145	2.388086	-2.176944	1.497618	-0.015833	4.818092	0.078895	0.025949	-0.021574	0.999681	0.007487	-0.000079	0.024088	
 1115	    0	8.892733	1.789370	-2.174233	1.501834	-0.113691	5.120695	0.088440	0.020325	-0.021545	0.999643	0.007508	-0.000568	0.025600	
 1116	    0	10.280760	1.756825	-2.055889	1.536571	-0.209073	5.393927	0.102303	0.020489	-0.020302	0.999606	0.007682	-0.001045	0.026966	
 1117	    0	11.479090	1.756193	-1.683018	1.663449	-0.324869	5.653439	0.114258	0.020935	-0.016479	0.999564	0.008316	-0.001624	0.028263	
 1118	    0	12.491629	1.693897	-1.470194	1.880754	-0.454975	5.864694	0.124378	0.020727	-0.014235	0.999523	0.009402	-0.002275	0.029319	
 1119	    0	13.527692	2.148847	-1.423285	2.127439	-0.539300	6.022912	0.134583	0.025696	-0.013611	0.999486	0.010635	-0.002696	0.030109	
 1120	    0	14.790164	2.917098	-1.458463	2.376605	-0.612179	6.120265	0.146956	0.033845	-0.013750	0.999456	0.011881	-0.003060	0.030596	
 1121	    0	15.715333	3.775800	-1.764810	2.618900	-0.649956	6.146631	0.155945	0.042786	-0.016602	0.999436	0.013092	-0.003249	0.030727	
 1122	    0	16.436704	4.848907	-2.394093	2.807197	-0.654917	6.108682	0.162853	0.053803	-0.022676	0.999430	0.014033	-0.003274	0.030538	
 1123	    0	17.144852	6.245751	-3.036893	2.830460	-0.661592	6.016134	0.169556	0.067993	-0.028870	0.999441	0.014150	-0.003307	0.030075	
 1124	    0	17.966959	8.278663	-3.463401	2.461096	-0.642888	5.921816	0.177214	0.088471	-0.032996	0.999480	0.012303	-0.003214	0.029604	
 1125	    0	18.548298	10.531609	-2.774607	1.839925	-0.476149	5.820611	0.182373	0.110901	-0.026306	0.999531	0.009198	-0.002380	0.029099	
 1126	    0	17.970458	10.491152	-2.610692	1.431475	-0.323913	5.606101	0.176708	0.110075	-0.025043	0.999579	0.007156	-0.001619	0.028027	
 1127	    0	17.770924	10.868293	-3.639877	1.275027	-0.185226	5.249663	0.174805	0.113525	-0.035522	0.999635	0.006374	-0.000926	0.026245	
 1128	    0	18.280545	11.703449	-5.363124	1.109044	-0.064284	4.778387	0.179953	0.121652	-0.052907	0.999699	0.005545	-0.000321	0.023890	
 1129	    0	17.325361	12.994403	-6.702204	1.015553	-0.075346	4.234649	0.170471	0.133911	-0.066284	0.999763	0.005077	-0.000377	0.021172	
 1130	    0	15.346363	15.583137	-6.926215	0.793503	-0.216306	3.618066	0.150682	0.158847	-0.068472	0.999827	0.003967	-0.001081	0.018089	
 1131	    0	13.238214	18.239192	-5.448849	0.446527	-0.375380	2.963369	0.129761	0.184448	-0.053833	0.999886	0.002233	-0.001877	0.014816	
 1132	    0	11.616640	19.687740	-3.561327	0.057985	-0.433931	2.199219	0.114069	0.198150	-0.035307	0.999937	0.000290	-0.002170	0.010996	
 1133	    0	11.684212	20.501631	-1.784085	-0.293734	-0.342372	1.416029	0.115417	0.205811	-0.017944	0.999972	-0.001469	-0.001712	0.007080	
 1134	    0	11.835562	19.714652	-1.077459	-0.522424	-0.204659	0.616266	0.117759	0.197481	-0.011169	0.999990	-0.002612	-0.001023	0.003081	
 1135	    0	10.266719	17.971647	-1.392029	-0.414276	-0.138664	-0.118256	0.102783	0.179626	-0.014221	0.999997	-0.002071	-0.000693	-0.000591	
 1136	    0	8.843943	17.097417	-1.971100	-0.263978	-0.160408	-0.785258	0.089126	0.170599	-0.019865	0.999990	-0.001320	-0.000802	-0.003926	
 1137	    0	7.766202	15.067438	-2.087144	-0.130273	-0.243380	-1.313029	0.078674	0.150146	-0.020874	0.999977	-0.000651	-0.001217	-0.006565	
 1138	    0	7.534769	12.169272	-1.662573	0.101854	-0.299839	-1.762223	0.076441	0.121031	-0.016450	0.999959	0.000509	-0.001499	-0.008811	
 1139	    0	7.846180	8.730954	0.404226	0.495920	-0.346953	-2.054635	0.079346	0.086487	0.004395	0.999942	0.002480	-0.001735	-0.010273	
 1140	    0	7.182083	7.473735	1.815549	0.905440	-0.325783	-2.180914	0.072599	0.073865	0.018609	0.999928	0.004527	-0.001629	-0.010904	
 1141	    0	5.282276	5.781569	2.808598	1.207955	-0.267799	-2.166804	0.053406	0.057068	0.028503	0.999922	0.006040	-0.001339	-0.010834	
 1142	    0	4.638541	4.601641	3.612932	1.401746	-0.241286	-2.016500	0.046801	0.045291	0.036505	0.999924	0.007009	-0.001206	-0.010082	
 1143	    0	8.024931	5.407833	0.358387	1.520005	-0.395976	-1.897478	0.080750	0.053284	0.004150	0.999924	0.007600	-0.001980	-0.009487	
 1144	    0	4.537788	11.243851	-21.522669	2.479671	-1.320139	-1.883787	0.047864	0.114650	-0.213504	0.999857	0.012398	-0.006600	-0.009418	
 1145	    0	25.153335	42.386131	-41.075529	3.527722	-1.083516	-4.220371	0.262695	0.425537	-0.401855	0.999607	0.017636	-0.005417	-0.021099	
 1146	    0	63.903919	38.374637	19.385725	-0.496546	0.478996	-5.462955	0.649670	0.366573	0.191385	0.999620	-0.002482	0.002395	-0.027311	
 1147	    0	39.850518	-8.036631	5.570386	-2.009690	-0.415633	-2.935948	0.397156	-0.085632	0.057373	0.999839	-0.010048	-0.002078	-0.014679	
 1148	    0	16.596400	-18.041541	9.628869	-1.961489	-0.425756	-3.983065	0.162132	-0.182712	0.098421	0.999751	-0.009807	-0.002129	-0.019914	
 1149	    0	-3.659460	-4.315753	-0.441133	0.390842	-0.775199	-3.926351	-0.037415	-0.042419	-0.004639	0.999798	0.001954	-0.003876	-0.019630	
 1150	    0	6.757866	3.599144	-3.695920	1.145642	-0.590942	-4.107029	0.068410	0.034802	-0.036556	0.999768	0.005728	-0.002954	-0.020534	
 1151	    0	8.916993	10.132293	-1.926491	0.802085	-0.546296	-3.553210	0.091003	0.099792	-0.018616	0.999830	0.004010	-0.002731	-0.017765	
 1152	    0	2.675461	11.729849	-5.206450	0.008011	-0.388538	-2.554392	0.028351	0.116945	-0.052006	0.999916	0.000040	-0.001943	-0.012772	
 1153	    0	8.064544	8.080522	-5.334218	-0.528727	-0.064660	-2.043953	0.081482	0.079834	-0.053528	0.999944	-0.002644	-0.000323	-0.010220	
 1154	    0	12.825043	4.410814	-5.674785	-0.766954	0.028801	-1.515979	0.128571	0.042916	-0.056932	0.999964	-0.003835	0.000144	-0.007580	
 1155	    0	14.751556	6.456306	-6.413782	-1.257148	0.297550	-1.087202	0.147766	0.063354	-0.064758	0.999964	-0.006286	0.001488	-0.005436	
 1156	    0	15.274403	3.487290	-4.764815	-1.082429	0.325396	-0.790030	0.152802	0.034010	-0.048082	0.999976	-0.005412	0.001627	-0.003950	
 1157	    0	20.047954	1.265958	-4.231529	-0.893980	0.415805	-0.809484	0.200439	0.011658	-0.042786	0.999979	-0.004470	0.002079	-0.004047	
 1158	    0	22.959396	0.038096	-3.829688	-1.508732	0.543983	-0.705728	0.229487	-0.000721	-0.038918	0.999961	-0.007544	0.002720	-0.003529	
 1159	    0	21.604503	-2.366340	-3.717742	-1.898227	0.490006	-0.592814	0.215881	-0.024658	-0.037476	0.999948	-0.009491	0.002450	-0.002964	
 1160	    0	20.223699	-4.321959	-1.607406	-1.917301	0.377471	-0.649845	0.202065	-0.044030	-0.016036	0.999947	-0.009586	0.001887	-0.003249	
 1161	    0	18.217137	-2.733438	0.151211	-2.069707	0.367744	-0.764481	0.182068	-0.028015	0.001465	0.999937	-0.010348	0.001839	-0.003822	
 1162	    0	17.306007	-4.049956	1.039896	-2.514149	0.455297	-0.676175	0.172946	-0.040953	0.010518	0.999912	-0.012570	0.002276	-0.003381	
 1163	    0	15.904586	-3.497361	0.204983	-2.746675	0.424399	-0.650809	0.158936	-0.035461	0.002197	0.999898	-0.013733	0.002122	-0.003254	
 1164	    0	15.186409	-3.161993	0.064438	-3.040439	0.454921	-0.673322	0.151758	-0.032120	0.000785	0.999876	-0.015202	0.002275	-0.003366	
 1165	    0	13.734364	-6.119825	-0.102537	-3.291479	0.514437	-0.637848	0.137146	-0.061646	-0.000366	0.999856	-0.016457	0.002572	-0.003189	
 1166	    0	11.842982	-8.150207	-1.147287	-3.196290	0.525880	-0.665886	0.118129	-0.082068	-0.010475	0.999863	-0.015981	0.002629	-0.003329	
 1167	    0	10.156656	-6.323804	-3.310033	-2.850451	0.553343	-0.876651	0.101196	-0.064148	-0.032471	0.999885	-0.014252	0.002767	-0.004383	
 1168	    0	9.894154	-3.801968	-5.170995	-2.395708	0.546092	-1.354262	0.098537	-0.039306	-0.051514	0.999901	-0.011978	0.002730	-0.006771	
 1169	    0	10.168926	-2.005601	-6.641350	-1.974360	0.517290	-1.883758	0.101318	-0.021667	-0.066467	0.999903	-0.009871	0.002586	-0.009418	
 1170	    0	10.184397	-3.401294	-7.664418	-1.684248	0.450913	-2.328192	0.101261	-0.035839	-0.076576	0.999894	-0.008421	0.002254	-0.011641	
 1171	    0	10.771768	-4.125285	-7.281059	-1.448119	0.355735	-2.787134	0.106995	-0.043274	-0.072693	0.999875	-0.007240	0.001779	-0.013935	
 1172	    0	11.901051	-4.395301	-5.965631	-1.247849	0.295081	-3.202406	0.118195	-0.046222	-0.059547	0.999851	-0.006239	0.001475	-0.016011	
 1173	    0	12.591083	-3.922921	-5.299574	-1.023924	0.209248	-3.585261	0.125122	-0.041748	-0.052917	0.999825	-0.005119	0.001046	-0.017925	
 1174	    0	12.311421	-2.151911	-4.515756	-1.080205	0.147067	-3.890874	0.122628	-0.024152	-0.045122	0.999796	-0.005401	0.000735	-0.019453	
 1175	    0	11.664199	-1.444306	-3.640326	-1.340585	0.245876	-4.023282	0.116272	-0.017029	-0.036438	0.999774	-0.006702	0.001229	-0.020115	
 1176	    0	12.179647	-1.693215	-2.483658	-1.476785	0.337055	-4.058392	0.121375	-0.019582	-0.024903	0.999765	-0.007383	0.001685	-0.020290	
 1177	    0	13.812825	-1.162461	-2.414638	-1.313688	0.340296	-3.976733	0.137817	-0.014526	-0.024292	0.999779	-0.006568	0.001701	-0.019882	
 1178	    0	13.683754	-5.086163	-1.327426	-1.002948	0.309010	-3.766681	0.135826	-0.053493	-0.013221	0.999808	-0.005014	0.001545	-0.018832	
 1179	    0	12.531358	-6.875251	-0.879087	-0.577387	0.225080	-3.643243	0.124023	-0.071045	-0.008728	0.999828	-0.002887	0.001125	-0.018215	
 1180	    0	11.661359	-6.375489	-1.649084	-0.490788	0.175867	-3.591162	0.115429	-0.065875	-0.016433	0.999835	-0.002454	0.000879	-0.017955	
 1181	    0	10.734826	-6.046635	-1.909879	-0.698698	0.185404	-3.460874	0.106262	-0.062378	-0.018982	0.999844	-0.003493	0.000927	-0.017303	
 1182	    0	9.825912	-6.531785	-2.224969	-0.853389	0.134665	-3.302162	0.097147	-0.067022	-0.022032	0.999854	-0.004267	0.000673	-0.016510	
 1183	    0	9.189572	-6.941756	-2.449738	-1.009984	0.061801	-3.032813	0.090820	-0.070923	-0.024170	0.999872	-0.005050	0.000309	-0.015163	
 1184	    0	8.692223	-6.814811	-2.651238	-1.161619	0.011635	-2.762326	0.085967	-0.069492	-0.026116	0.999887	-0.005808	0.000058	-0.013811	
 1185	    0	8.325755	-6.826741	-2.528583	-1.271099	-0.013543	-2.495657	0.082397	-0.069458	-0.024841	0.999902	-0.006355	-0.000068	-0.012478	
 1186	    0	7.959761	-6.817224	-2.554096	-1.301611	-0.045015	-2.218689	0.078839	-0.069214	-0.025075	0.999917	-0.006508	-0.000225	-0.011093	
 1187	    0	7.510445	-6.723794	-2.512532	-1.264028	-0.102999	-1.929517	0.074463	-0.068115	-0.024658	0.999933	-0.006320	-0.000515	-0.009647	
 1188	    0	6.920455	-6.193229	-2.152356	-1.221297	-0.195316	-1.662666	0.068707	-0.062634	-0.021075	0.999946	-0.006106	-0.000977	-0.008313	
 1189	    0	6.577726	-5.279880	-1.596159	-1.189439	-0.248531	-1.380940	0.065430	-0.053345	-0.015564	0.999957	-0.005947	-0.001243	-0.006905	
 1190	    0	7.378324	-4.526630	-1.203317	-1.006136	-0.228693	-1.094447	0.073547	-0.045729	-0.011720	0.999971	-0.005031	-0.001143	-0.005472	
 1191	    0	9.670464	-4.146942	-1.711586	-0.425722	-0.122643	-0.754550	0.096558	-0.041870	-0.016968	0.999990	-0.002129	-0.000613	-0.003773	
 1192	    0	12.359254	-4.191837	-3.167721	0.375748	0.017357	-0.368882	0.123512	-0.042087	-0.031767	0.999996	0.001879	0.000087	-0.001844	
 1193	    0	13.556592	-3.924856	-2.858443	1.016431	0.127411	0.058747	0.135559	-0.039062	-0.028870	0.999987	0.005082	0.000637	0.000294	
 1194	    0	11.785351	-1.570715	-2.109603	1.453987	0.161554	0.527959	0.117877	-0.015242	-0.021303	0.999969	0.007270	0.000808	0.002640	
 1195	    0	9.163653	1.486973	-0.648520	1.467915	0.210002	1.012434	0.091553	0.015381	-0.006470	0.999959	0.007339	0.001050	0.005062	
 1196	    0	7.831767	3.044755	-0.118475	1.274512	0.265698	1.542118	0.078078	0.031057	-0.001092	0.999949	0.006372	0.001328	0.007710	
 1197	    0	7.244427	2.186517	-0.746095	1.158360	0.318153	2.035570	0.072205	0.022644	-0.007446	0.999929	0.005792	0.001591	0.010178	
 1198	    0	6.439804	1.140251	-1.639033	1.197663	0.337802	2.482113	0.064221	0.012299	-0.016427	0.999903	0.005988	0.001689	0.012410	
 1199	    0	6.041199	0.861811	-2.352857	1.351414	0.311292	2.873352	0.060242	0.009644	-0.023560	0.999872	0.006757	0.001556	0.014366	
 1200	    0	6.143376	1.438771	-2.449052	1.504024	0.238050	3.224353	0.061160	0.015559	-0.024449	0.999841	0.007520	0.001190	0.016121	
 1201	    0	6.367108	1.926407	-2.207816	1.540663	0.156413	3.579939	0.063293	0.020569	-0.021973	0.999809	0.007703	0.000782	0.017899	
 1202	    0	6.495191	1.828706	-2.044125	1.556133	0.040820	3.969875	0.064566	0.019730	-0.020305	0.999772	0.007780	0.000204	0.019848	
 1203	    0	7.028755	1.759919	-2.164394	1.459632	-0.065428	4.372030	0.069885	0.019287	-0.021484	0.999734	0.007298	-0.000327	0.021858	
 1204	    0	7.828083	1.430554	-1.983255	1.346152	-0.162904	4.727077	0.077928	0.016283	-0.019664	0.999698	0.006730	-0.000814	0.023633	
 1205	    0	8.988592	0.828293	-1.946715	1.336250	-0.254088	5.056577	0.089661	0.010681	-0.019287	0.999657	0.006680	-0.001270	0.025280	
 1206	    0	10.459180	1.139277	-1.963980	1.354964	-0.376368	5.369494	0.104270	0.014327	-0.019353	0.999615	0.006774	-0.001882	0.026844	
 1207	    0	12.076537	1.966886	-1.594554	1.388749	-0.481293	5.674793	0.120178	0.023193	-0.015503	0.999570	0.006943	-0.002406	0.028370	
 1208	    0	13.212518	2.371529	-1.057730	1.556831	-0.599764	5.899400	0.131378	0.027678	-0.009977	0.999530	0.007783	-0.002998	0.029492	
 1209	    0	13.935085	3.087914	-1.037202	1.825448	-0.694391	6.037390	0.138367	0.035156	-0.009583	0.999496	0.009126	-0.003471	0.030182	
 1210	    0	14.754231	3.612047	-1.258593	2.141759	-0.772040	6.100397	0.146393	0.040726	-0.011600	0.999470	0.010707	-0.003860	0.030497	
 1211	    0	15.530701	4.017874	-1.814069	2.509006	-0.812489	6.095481	0.154053	0.045105	-0.016968	0.999448	0.012543	-0.004062	0.030472	
 1212	    0	16.428928	5.238843	-2.588615	2.751674	-0.839963	6.046471	0.162704	0.057667	-0.024431	0.999439	0.013756	-0.004199	0.030227	
 1213	    0	17.187904	6.825517	-3.009226	2.800500	-0.825461	5.945148	0.169861	0.073730	-0.028381	0.999452	0.014000	-0.004127	0.029720	
 1214	    0	17.332580	7.985855	-3.464578	2.744582	-0.810574	5.809464	0.171036	0.085308	-0.032804	0.999475	0.013721	-0.004052	0.029042	
 1215	    0	17.482905	8.960545	-4.186008	2.633338	-0.826209	5.648971	0.172363	0.095032	-0.039917	0.999505	0.013165	-0.004130	0.028240	
 1216	    0	18.304057	12.151150	-4.057501	2.139019	-0.735198	5.436538	0.179785	0.126848	-0.038572	0.999566	0.010694	-0.003675	0.027179	
 1217	    0	18.064053	13.874303	-3.000652	1.618392	-0.466022	5.135207	0.177063	0.143555	-0.028442	0.999635	0.008091	-0.002330	0.025673	
 1218	    0	16.909697	12.759636	-4.074402	1.425889	-0.271825	4.733569	0.166064	0.131836	-0.039587	0.999693	0.007129	-0.001359	0.023665	
 1219	    0	16.945086	12.986861	-5.528852	1.369780	-0.144207	4.231611	0.166687	0.133789	-0.054260	0.999752	0.006848	-0.000721	0.021156	
 1220	    0	16.145874	15.038401	-6.334519	1.184539	-0.154696	3.713843	0.158673	0.153719	-0.062318	0.999809	0.005922	-0.000773	0.018568	
 1221	    0	14.006453	17.728576	-6.252037	0.778234	-0.258458	3.215174	0.137268	0.179749	-0.061646	0.999862	0.003891	-0.001292	0.016075	
 1222	    0	11.938340	19.351065	-4.821654	0.219543	-0.364124	2.669034	0.116874	0.195134	-0.047789	0.999908	0.001098	-0.001821	0.013345	
 1223	    0	10.930233	19.102323	-2.944526	-0.257115	-0.391967	2.021826	0.107422	0.192078	-0.029480	0.999946	-0.001286	-0.001960	0.010109	
 1224	    0	11.241880	18.712704	-1.410742	-0.622946	-0.287822	1.338399	0.111184	0.187829	-0.014531	0.999971	-0.003115	-0.001439	0.006692	
 1225	    0	10.689913	17.740960	-0.595452	-0.739864	-0.151826	0.653842	0.106323	0.177734	-0.006531	0.999987	-0.003699	-0.000759	0.003269	
 1226	    0	8.983257	16.550045	-0.659460	-0.649453	-0.098610	0.022888	0.089817	0.165488	-0.007088	0.999994	-0.003247	-0.000493	0.000114	
 1227	    0	8.097973	15.606511	-0.526443	-0.504113	-0.103760	-0.562288	0.081421	0.155823	-0.005615	0.999992	-0.002521	-0.000519	-0.002811	
 1228	    0	7.532020	13.281984	-0.359831	-0.295450	-0.124360	-1.074415	0.076035	0.132407	-0.003747	0.999984	-0.001477	-0.000622	-0.005372	
 1229	    0	7.541106	10.836617	-0.012116	-0.002289	-0.161554	-1.522079	0.076233	0.107788	-0.000061	0.999970	-0.000011	-0.000808	-0.007610	
 1230	    0	8.109448	8.742654	1.145171	0.311093	-0.147822	-1.872663	0.081900	0.086644	0.011647	0.999954	0.001555	-0.000739	-0.009363	
 1231	    0	8.453586	7.337189	1.716354	0.628674	-0.150111	-2.043191	0.085266	0.072449	0.017456	0.999942	0.003143	-0.000751	-0.010216	
 1232	    0	9.539314	6.754017	-0.545618	0.953888	-0.258261	-2.173857	0.096127	0.066523	-0.005013	0.999928	0.004769	-0.001291	-0.010869	
 1233	    0	8.174210	10.725808	-12.417430	1.804617	-0.824771	-2.434640	0.083557	0.107361	-0.122864	0.999876	0.009023	-0.004124	-0.012173	
 1234	    0	23.848345	22.955957	-29.661362	2.948875	-0.962738	-3.897688	0.244366	0.229164	-0.292066	0.999689	0.014743	-0.004813	-0.019486	
 1235	    0	51.855819	35.925716	8.989147	0.119988	0.376941	-5.559496	0.528442	0.344604	0.089111	0.999611	0.000600	0.001884	-0.027794	
 1236	    0	38.645636	15.854169	5.745624	-1.296334	-0.235194	-4.083565	0.389524	0.150979	0.056918	0.999769	-0.006481	-0.001176	-0.020416	
 1237	    0	27.616612	-20.342373	7.397879	-2.233887	-0.363953	-3.928712	0.271973	-0.207947	0.076782	0.999743	-0.011168	-0.001820	-0.019642	
 1238	    0	-1.910079	-6.215303	3.924858	-0.783602	-0.569199	-4.301229	-0.020541	-0.061567	0.039433	0.999757	-0.003918	-0.002846	-0.021504	
 1239	    0	-0.558060	0.979743	-4.689529	0.708820	-0.562898	-4.000372	-0.005249	0.010071	-0.046875	0.999789	0.003544	-0.002814	-0.020000	
 1240	    0	8.392035	5.881337	-3.349100	0.939812	-0.548971	-3.797397	0.085110	0.057361	-0.032987	0.999804	0.004699	-0.002745	-0.018986	
 1241	    0	3.526945	11.623846	-6.005531	0.268565	-0.466746	-2.932848	0.037109	0.115784	-0.059814	0.999888	0.001343	-0.002334	-0.014664	
 1242	    0	4.597292	11.067702	-5.845506	-0.460825	-0.085451	-2.139325	0.047177	0.110042	-0.058689	0.999940	-0.002304	-0.000427	-0.010696	
 1243	    0	13.055219	6.085703	-5.141177	-0.907720	0.205997	-1.608300	0.130981	0.059570	-0.051819	0.999956	-0.004539	0.001030	-0.008041	
 1244	    0	14.513510	2.883274	-4.416134	-0.932130	0.292972	-1.180088	0.145236	0.027769	-0.044505	0.999970	-0.004661	0.001465	-0.005900	
 1245	    0	16.383656	4.659296	-6.879500	-0.986298	0.458530	-0.878150	0.163879	0.045532	-0.069397	0.999975	-0.004931	0.002293	-0.004391	
 1246	    0	19.216706	0.839060	-4.233664	-0.747304	0.471881	-0.778393	0.192097	0.007483	-0.042819	0.999982	-0.003736	0.002359	-0.003892	
 1247	    0	21.627736	-1.601216	-3.111176	-0.832945	0.531010	-0.819403	0.216125	-0.017029	-0.031616	0.999979	-0.004165	0.002655	-0.004097	
 1248	    0	22.551726	-0.581128	-3.218778	-1.471537	0.590141	-0.653084	0.225400	-0.006787	-0.032805	0.999963	-0.007358	0.002951	-0.003265	
 1249	    0	20.391677	-2.376196	-1.783138	-1.686693	0.431830	-0.670634	0.203796	-0.024597	-0.018066	0.999956	-0.008433	0.002159	-0.003353	
 1250	    0	19.170870	-1.885059	0.510373	-1.805908	0.349814	-0.773252	0.191643	-0.019547	0.004943	0.999949	-0.009029	0.001749	-0.003866	
 1251	    0	18.196409	-1.654461	1.972482	-2.304898	0.425922	-0.713366	0.181946	-0.016968	0.019531	0.999925	-0.011524	0.002130	-0.003567	
 1252	    0	15.845856	-3.078792	0.978597	-2.750872	0.478952	-0.617811	0.158386	-0.031142	0.009833	0.999897	-0.013754	0.002395	-0.003089	
 1253	    0	14.419530	-2.486872	-0.146566	-2.938195	0.512906	-0.694302	0.144104	-0.025391	-0.001465	0.999883	-0.014690	0.002564	-0.003471	
 1254	    0	13.429529	-6.048678	-0.601030	-3.132387	0.597790	-0.724253	0.134058	-0.061061	-0.005458	0.999866	-0.015661	0.002989	-0.003621	
 1255	    0	11.747287	-8.730517	-2.093174	-3.076879	0.644712	-0.778995	0.117065	-0.088074	-0.019958	0.999868	-0.015384	0.003223	-0.003895	
 1256	    0	10.501919	-8.051163	-3.939448	-2.782163	0.661684	-0.906215	0.104523	-0.081527	-0.038611	0.999887	-0.013910	0.003308	-0.004531	
 1257	    0	10.328951	-4.907346	-5.666046	-2.383309	0.643942	-1.298565	0.102783	-0.050415	-0.056396	0.999903	-0.011916	0.003220	-0.006493	
 1258	    0	10.952723	-2.531593	-6.148604	-1.994005	0.618000	-1.787814	0.109101	-0.026906	-0.061561	0.999906	-0.009970	0.003090	-0.008939	
 1259	    0	10.668338	-2.548093	-6.883738	-1.688250	0.556964	-2.179790	0.106201	-0.027222	-0.068909	0.999901	-0.008441	0.002785	-0.010899	
 1260	    0	10.546061	-2.786194	-7.475072	-1.394322	0.442712	-2.555177	0.104923	-0.029726	-0.074780	0.999891	-0.006971	0.002213	-0.012775	
 1261	    0	11.351568	-2.802727	-6.475213	-1.236015	0.332084	-2.938969	0.112976	-0.030090	-0.064758	0.999871	-0.006180	0.001660	-0.014694	
 1262	    0	11.828057	-1.938095	-5.241824	-1.135692	0.261320	-3.249139	0.117873	-0.021596	-0.052454	0.999850	-0.005678	0.001307	-0.016245	
 1263	    0	12.064538	-0.436546	-4.762180	-1.140661	0.235190	-3.546348	0.120483	-0.006775	-0.047729	0.999825	-0.005703	0.001176	-0.017731	
 1264	    0	11.376145	0.781923	-4.314871	-1.367088	0.257891	-3.753913	0.113822	0.005387	-0.043338	0.999799	-0.006835	0.001289	-0.018768	
 1265	    0	12.062898	0.070398	-3.506448	-1.736577	0.369481	-3.798954	0.120544	-0.001892	-0.035278	0.999780	-0.008682	0.001847	-0.018993	
 1266	    0	13.332456	-1.071502	-2.412355	-1.933626	0.489653	-3.765773	0.133029	-0.013456	-0.024328	0.999773	-0.009667	0.002448	-0.018827	
 1267	    0	13.611310	-4.627614	-1.275675	-1.810394	0.550882	-3.686787	0.135193	-0.048889	-0.012695	0.999784	-0.009051	0.002754	-0.018433	
 1268	    0	12.611135	-6.638217	-0.165506	-1.419350	0.553930	-3.625531	0.124876	-0.068665	-0.001520	0.999806	-0.007096	0.002769	-0.018126	
 1269	    0	11.781095	-6.590698	-0.741905	-1.073330	0.560031	-3.602817	0.116577	-0.068054	-0.007385	0.999819	-0.005366	0.002800	-0.018013	
 1270	    0	11.138755	-6.506526	-1.499336	-1.010762	0.554116	-3.514681	0.110179	-0.067084	-0.014964	0.999828	-0.005054	0.002770	-0.017572	
 1271	    0	10.200518	-6.470124	-1.869586	-1.070272	0.538665	-3.412814	0.100830	-0.066528	-0.018616	0.999836	-0.005351	0.002693	-0.017063	
 1272	    0	9.392789	-6.679172	-2.280924	-1.117189	0.487924	-3.207555	0.092784	-0.068413	-0.022657	0.999852	-0.005586	0.002439	-0.016037	
 1273	    0	8.723829	-7.008866	-2.713752	-1.153614	0.436611	-2.980171	0.086121	-0.071533	-0.026917	0.999869	-0.005768	0.002183	-0.014900	
 1274	    0	8.312495	-7.220964	-2.822670	-1.155897	0.418870	-2.743824	0.082064	-0.073503	-0.027977	0.999887	-0.005779	0.002094	-0.013719	
 1275	    0	8.103584	-7.173036	-2.744341	-1.022943	0.370800	-2.502519	0.080078	-0.072876	-0.027222	0.999907	-0.005115	0.001854	-0.012512	
 1276	    0	7.809431	-6.747424	-2.882490	-0.881408	0.265128	-2.261409	0.077286	-0.068478	-0.028627	0.999925	-0.004407	0.001326	-0.011307	
 1277	    0	7.259283	-5.964033	-2.814197	-0.839250	0.179485	-2.017252	0.071960	-0.060486	-0.027954	0.999940	-0.004196	0.000897	-0.010086	
 1278	    0	7.037495	-5.175617	-2.557585	-0.807202	0.124743	-1.733997	0.069906	-0.052466	-0.025409	0.999953	-0.004036	0.000624	-0.008670	
 1279	    0	8.103356	-4.604925	-2.200207	-0.634581	0.141145	-1.418319	0.080688	-0.046692	-0.021912	0.999969	-0.003173	0.000706	-0.007092	
 1280	    0	10.344124	-4.454968	-2.788533	-0.082779	0.217248	-1.078993	0.103168	-0.045118	-0.027979	0.999985	-0.000414	0.001086	-0.005395	
 1281	    0	12.429772	-4.456629	-3.380867	0.538065	0.305177	-0.720218	0.124084	-0.044922	-0.034119	0.999989	0.002690	0.001526	-0.003601	
 1282	    0	12.655201	-3.389554	-3.188697	1.030737	0.325395	-0.323679	0.126445	-0.033935	-0.032268	0.999984	0.005154	0.001627	-0.001618	
 1283	    0	10.660018	-1.028739	-2.664295	1.286325	0.276377	0.083161	0.106567	-0.010071	-0.026855	0.999978	0.006432	0.001382	0.000416	
 1284	    0	8.859380	1.036276	-1.387440	1.230822	0.279619	0.504116	0.088548	0.010672	-0.013933	0.999976	0.006154	0.001398	0.002521	
 1285	    0	8.286795	1.667214	-1.388007	1.120769	0.316814	0.968179	0.082764	0.017151	-0.013916	0.999970	0.005604	0.001584	0.004841	
 1286	    0	7.952271	0.749710	-1.982844	1.122490	0.360303	1.393719	0.079432	0.008162	-0.019927	0.999958	0.005612	0.001801	0.006968	
 1287	    0	6.973352	0.476318	-2.524053	1.265171	0.351722	1.811256	0.069641	0.005554	-0.025330	0.999937	0.006326	0.001759	0.009056	
 1288	    0	6.370201	0.756000	-2.951697	1.521347	0.322161	2.204199	0.063564	0.008486	-0.029557	0.999908	0.007607	0.001611	0.011021	
 1289	    0	6.332932	1.771465	-3.229816	1.689215	0.266467	2.571208	0.063049	0.018799	-0.032227	0.999881	0.008446	0.001332	0.012856	
