// Start Time: Unknown
// Update Rate: 100.0Hz
// Filter Profile: human (34.3)
// Firmware Version: 2.1.4
PacketCounter	SampleTimeFine	Acc_X	Acc_Y	Acc_Z	Gyr_X	Gyr_Y	Gyr_Z	VelInc_X	VelInc_Y	VelInc_Z	OriInc_q0	OriInc_q1	OriInc_q2	OriInc_q3	
31399	    0	13.432297	6.095795	-11.800934	-2.143752	-0.077060	-2.168358	0.135010	0.058228	-0.118591	0.999884	-0.010718	-0.000385	-0.010841	
31400	    0	17.411876	3.749195	-10.125360	-1.216744	-0.092319	-2.747830	0.174653	0.034478	-0.101389	0.999887	-0.006083	-0.000462	-0.013739	
31401	    0	18.129781	2.944980	-9.120323	-1.069491	-0.448625	-2.790176	0.181885	0.026428	-0.090942	0.999886	-0.005347	-0.002243	-0.013950	
31402	    0	19.152030	3.250712	-8.756374	-0.936728	-0.601787	-2.516444	0.192168	0.029683	-0.087130	0.999905	-0.004683	-0.003009	-0.012582	
31403	    0	20.251159	0.438057	-7.578536	-0.880265	-0.412762	-2.368992	0.202698	0.001648	-0.075378	0.999918	-0.004401	-0.002064	-0.011845	
31404	    0	18.751750	-3.266056	-4.155899	-1.114111	-0.179295	-2.199229	0.187179	-0.034950	-0.041201	0.999923	-0.005570	-0.000896	-0.010996	
31405	    0	16.172586	-2.044523	-3.259016	-1.564834	-0.012780	-2.105010	0.161499	-0.022400	-0.032410	0.999913	-0.007824	-0.000064	-0.010525	
31406	    0	14.181506	0.591917	-1.484198	-1.763780	0.235565	-2.068393	0.141848	0.004320	-0.015052	0.999907	-0.008819	0.001178	-0.010342	
31407	    0	13.476056	-0.444624	-0.224794	-2.144699	0.281725	-1.969980	0.134705	-0.005798	-0.002380	0.999892	-0.010723	0.001409	-0.009850	
31408	    0	13.478633	-2.203358	-1.048077	-2.475268	0.316251	-1.896554	0.134552	-0.023439	-0.010409	0.999877	-0.012376	0.001581	-0.009482	
31409	    0	13.739945	-3.978753	-0.442069	-2.538213	0.447101	-1.800611	0.137024	-0.041077	-0.004211	0.999876	-0.012691	0.002235	-0.009003	
31410	    0	13.996294	-6.886123	0.297868	-2.674027	0.568987	-1.686932	0.139385	-0.069994	0.003512	0.999870	-0.013370	0.002845	-0.008434	
31411	    0	13.788080	-8.529019	-0.021571	-2.683371	0.654820	-1.568669	0.137207	-0.086365	0.000488	0.999873	-0.013416	0.003274	-0.007843	
31412	    0	12.934684	-8.751827	0.516652	-2.370344	0.784329	-1.430561	0.128738	-0.088375	0.005705	0.999896	-0.011851	0.003922	-0.007153	
31413	    0	11.284639	-9.146849	1.390366	-2.173677	0.883700	-1.184116	0.112366	-0.091980	0.014404	0.999913	-0.010868	0.004418	-0.005920	
31414	    0	9.142985	-9.886346	1.608926	-2.247493	0.957326	-0.926807	0.091050	-0.099100	0.016766	0.999914	-0.011237	0.004786	-0.004634	
31415	    0	6.941943	-10.702454	1.472627	-2.155167	0.914024	-0.742359	0.069092	-0.107117	0.015564	0.999924	-0.010776	0.004570	-0.003712	
31416	    0	5.782631	-10.665496	1.113666	-1.753265	0.835242	-0.588236	0.057561	-0.106723	0.011831	0.999949	-0.008766	0.004176	-0.002941	
31417	    0	5.674945	-9.366754	0.553030	-1.190006	0.807197	-0.411991	0.056580	-0.093750	0.005859	0.999971	-0.005950	0.004036	-0.002060	
31418	    0	5.769560	-8.049049	-0.085937	-0.724033	0.816349	-0.259782	0.057588	-0.080568	-0.000803	0.999984	-0.003620	0.004082	-0.001299	
31419	    0	5.658511	-7.148541	-0.543015	-0.469782	0.817111	-0.123597	0.056519	-0.071533	-0.005493	0.999989	-0.002349	0.004086	-0.000618	
31420	    0	5.204858	-6.153183	-0.746423	-0.365449	0.784876	-0.002861	0.052018	-0.061546	-0.007556	0.999990	-0.001827	0.003924	-0.000014	
31421	    0	4.693515	-5.164506	-0.744862	-0.444604	0.739291	0.110627	0.046936	-0.051636	-0.007507	0.999990	-0.002223	0.003696	0.000553	
31422	    0	4.478640	-4.557112	-0.852816	-0.657466	0.717738	0.247766	0.044812	-0.045544	-0.008539	0.999987	-0.003287	0.003589	0.001239	
31423	    0	4.689278	-4.198308	-1.250032	-0.735287	0.708011	0.417330	0.046936	-0.041931	-0.012512	0.999985	-0.003676	0.003540	0.002087	
31424	    0	5.023434	-4.175348	-1.600085	-0.571444	0.723842	0.564387	0.050294	-0.041657	-0.016064	0.999985	-0.002857	0.003619	0.002822	
31425	    0	5.122005	-4.684794	-1.318315	-0.317194	0.766758	0.690464	0.051331	-0.046692	-0.013306	0.999985	-0.001586	0.003834	0.003452	
31426	    0	5.190647	-4.722429	-0.908125	-0.050545	0.774197	0.783734	0.052055	-0.047023	-0.009271	0.999985	-0.000253	0.003871	0.003919	
31427	    0	5.869345	-3.559766	-0.216064	0.225259	0.819402	0.869756	0.058838	-0.035339	-0.002441	0.999981	0.001126	0.004097	0.004349	
31428	    0	6.875997	-2.085504	0.533377	0.319674	0.859648	0.913436	0.068876	-0.020549	0.005005	0.999979	0.001598	0.004298	0.004567	
31429	    0	7.729750	-0.853285	1.256535	0.191499	0.905806	0.946052	0.077393	-0.008179	0.012207	0.999978	0.000957	0.004529	0.004730	
31430	    0	8.157166	-0.229672	1.900210	-0.007057	0.921066	0.973327	0.081668	-0.001899	0.018626	0.999977	-0.000035	0.004605	0.004867	
31431	    0	8.205451	-0.086929	2.172819	-0.251009	0.892837	1.010903	0.082153	-0.000427	0.021362	0.999976	-0.001255	0.004464	0.005054	
31432	    0	8.044866	-0.396658	1.953789	-0.492863	0.848968	1.071558	0.080550	-0.003488	0.019205	0.999973	-0.002464	0.004245	0.005358	
31433	    0	7.883937	-0.721247	0.981352	-0.705536	0.801858	1.177991	0.078918	-0.006714	0.009521	0.999968	-0.003528	0.004009	0.005890	
31434	    0	8.216200	-1.178877	-0.750085	-0.801668	0.640304	1.291480	0.082211	-0.011289	-0.007718	0.999966	-0.004008	0.003201	0.006457	
31435	    0	10.068708	-2.653660	-2.925645	-0.787935	0.284580	1.412980	0.100830	-0.025940	-0.029297	0.999966	-0.003940	0.001423	0.007065	
31436	    0	13.755254	-5.742653	-5.959794	-0.629050	-0.066949	1.468293	0.137990	-0.056602	-0.059373	0.999968	-0.003145	-0.000335	0.007341	
31437	    0	18.247666	-7.973280	-7.779564	-0.318149	-0.169946	1.425947	0.183105	-0.078552	-0.077515	0.999972	-0.001591	-0.000850	0.007130	
31438	    0	21.626210	-7.295562	-7.425152	0.012970	0.061417	1.482405	0.216772	-0.071345	-0.074323	0.999972	0.000065	0.000307	0.007412	
31439	    0	22.987007	-4.362098	-4.363672	0.569352	0.376135	1.784543	0.230164	-0.041443	-0.044189	0.999954	0.002847	0.001881	0.008923	
31440	    0	22.080698	-1.849338	-0.742320	1.071766	0.440608	2.147919	0.220971	-0.016079	-0.008000	0.999925	0.005359	0.002203	0.010739	
31441	    0	19.554245	-0.641413	1.484765	1.260604	0.234229	2.346872	0.195618	-0.004211	0.014587	0.999910	0.006303	0.001171	0.011734	
31442	    0	17.573152	0.203722	1.966044	1.128992	-0.005150	2.356978	0.175692	0.003997	0.019684	0.999914	0.005645	-0.000026	0.011785	
31443	    0	16.272102	1.376162	1.809131	0.936913	-0.183682	2.246912	0.162537	0.015503	0.018311	0.999925	0.004684	-0.000918	0.011234	
31444	    0	15.496719	1.264045	1.401078	0.703444	-0.359924	2.051967	0.154801	0.014179	0.014338	0.999939	0.003517	-0.001800	0.010260	
31445	    0	15.533938	-0.935633	0.719742	0.464638	-0.581179	1.852448	0.155396	-0.007935	0.007629	0.999949	0.002323	-0.002906	0.009262	
31446	    0	16.252988	-2.800386	0.111917	0.482948	-0.683604	1.691653	0.162754	-0.026631	0.001610	0.999955	0.002415	-0.003418	0.008458	
31447	    0	16.585733	-2.834084	0.178820	0.856032	-0.707829	1.653317	0.166077	-0.026978	0.002258	0.999949	0.004280	-0.003539	0.008266	
31448	    0	16.336107	-1.975758	-0.270612	1.260973	-0.722518	1.632914	0.163524	-0.018408	-0.002234	0.999940	0.006305	-0.003613	0.008164	
31449	    0	15.536553	-0.736410	-1.061490	1.561201	-0.765246	1.597632	0.155457	-0.006042	-0.010071	0.999929	0.007806	-0.003826	0.007988	
31450	    0	14.466984	0.636045	-1.681780	1.836635	-0.762388	1.557773	0.144676	0.007638	-0.016200	0.999920	0.009183	-0.003812	0.007789	
31451	    0	13.076280	2.123058	-2.256681	2.173683	-0.729202	1.515245	0.130676	0.022461	-0.021851	0.999906	0.010868	-0.003646	0.007576	
31452	    0	11.734055	3.573849	-3.230273	2.522562	-0.634789	1.450592	0.117176	0.036989	-0.031469	0.999888	0.012612	-0.003174	0.007253	
31453	    0	10.479210	5.468530	-3.082848	2.623274	-0.488299	1.348164	0.104492	0.055786	-0.029846	0.999887	0.013116	-0.002441	0.006741	
31454	    0	9.381989	5.101447	-2.376593	2.733905	-0.348104	1.163145	0.093560	0.051876	-0.022898	0.999887	0.013669	-0.001740	0.005816	
31455	    0	8.122331	5.388226	-3.313903	2.036330	-0.282866	1.014732	0.080994	0.054626	-0.032471	0.999934	0.010181	-0.001414	0.005074	
31456	    0	6.519239	6.526138	-2.523250	1.706150	-0.206760	0.860990	0.064936	0.065753	-0.024606	0.999953	0.008531	-0.001034	0.004305	
31457	    0	5.113004	7.181100	-1.366394	1.499193	-0.246242	0.675209	0.050903	0.072083	-0.013062	0.999965	0.007496	-0.001231	0.003376	
31458	    0	3.486901	7.039533	-0.497691	1.315319	-0.420765	0.484471	0.034708	0.070510	-0.004440	0.999972	0.006577	-0.002104	0.002422	
31459	    0	2.380420	7.304292	-1.100902	0.847630	-0.665859	0.266267	0.023743	0.073120	-0.010620	0.999984	0.004238	-0.003329	0.001331	
31460	    0	1.764666	8.278216	-1.613573	0.537493	-0.875668	0.050736	0.017695	0.082829	-0.015836	0.999987	0.002687	-0.004378	0.000254	
31461	    0	1.362192	9.036535	-1.959867	0.393679	-1.057249	-0.153352	0.013794	0.090393	-0.019348	0.999984	0.001968	-0.005286	-0.000767	
31462	    0	1.542445	7.995571	-2.192403	0.274279	-1.161201	-0.378420	0.015702	0.079956	-0.021724	0.999980	0.001371	-0.005806	-0.001892	
31463	    0	1.927283	5.272493	-1.311690	0.261881	-1.115426	-0.705724	0.019531	0.052673	-0.012939	0.999977	0.001309	-0.005577	-0.003529	
31464	    0	2.219752	2.376691	0.082088	0.288775	-1.030931	-0.959405	0.022306	0.023659	0.000970	0.999973	0.001444	-0.005155	-0.004797	
31465	    0	2.862575	-0.234201	1.869506	0.049019	-1.158917	-1.091778	0.028503	-0.002502	0.018860	0.999968	0.000245	-0.005795	-0.005459	
31466	    0	4.124571	-1.417323	2.840011	-0.280575	-1.408979	-1.172464	0.040960	-0.014374	0.028709	0.999956	-0.001403	-0.007045	-0.005862	
31467	    0	5.232098	-2.095523	2.428801	-0.137904	-1.599147	-1.158924	0.052002	-0.021240	0.024719	0.999950	-0.000690	-0.007996	-0.005795	
31468	    0	6.223946	-2.477695	0.633431	0.330549	-1.591516	-1.040856	0.062057	-0.025111	0.006787	0.999953	0.001653	-0.007957	-0.005204	
31469	    0	6.836170	-4.031050	-1.453143	0.818645	-1.392956	-0.806438	0.068298	-0.040527	-0.014221	0.999959	0.004093	-0.006965	-0.004032	
31470	    0	7.834946	-8.244348	-3.618563	0.560575	-1.226627	-0.522427	0.078355	-0.082547	-0.035936	0.999973	0.002803	-0.006133	-0.002612	
31471	    0	9.145972	-12.184622	-3.751146	0.004768	-1.019292	-0.358583	0.091431	-0.122009	-0.037048	0.999985	0.000024	-0.005096	-0.001793	
31472	    0	10.019939	-13.507720	-1.239798	-0.313569	-0.739100	-0.210572	0.100101	-0.135201	-0.011816	0.999990	-0.001568	-0.003695	-0.001053	
31473	    0	9.845221	-12.217163	-0.181631	-0.465394	-0.632288	0.088501	0.098511	-0.122131	-0.001221	0.999991	-0.002327	-0.003161	0.000443	
31474	    0	8.787075	-9.088839	-2.600985	-0.524904	-0.715640	0.391962	0.088140	-0.090783	-0.025456	0.999988	-0.002625	-0.003578	0.001960	
31475	    0	6.825887	-5.788610	-3.695389	-0.518610	-0.712589	0.528719	0.068542	-0.057800	-0.036560	0.999987	-0.002593	-0.003563	0.002644	
31476	    0	4.726987	-2.842903	-3.220534	-0.738530	-0.759320	0.587276	0.047475	-0.028408	-0.031920	0.999981	-0.003693	-0.003797	0.002936	
31477	    0	2.812549	-0.214408	-0.193040	-0.968749	-0.634007	0.553898	0.028137	-0.002075	-0.001831	0.999979	-0.004844	-0.003170	0.002769	
31478	    0	1.111562	1.171758	-1.531152	-0.748642	-1.369300	0.396924	0.011197	0.011683	-0.015279	0.999968	-0.003743	-0.006846	0.001985	
31479	    0	2.169820	6.245724	-4.801612	-0.456811	-0.016785	-0.279999	0.021790	0.062317	-0.048157	0.999996	-0.002284	-0.000084	-0.001400	
31480	    0	7.173072	5.925202	4.829161	0.859454	0.197793	-0.289727	0.071864	0.058940	0.048474	0.999989	0.004297	0.000989	-0.001449	
31481	    0	20.495861	-15.516546	4.483952	4.105159	-1.844947	-0.656184	0.204041	-0.156738	0.043518	0.999741	0.020524	-0.009224	-0.003281	
31482	    0	31.586026	-44.711585	-43.199683	1.786839	-1.161979	-0.288969	0.317736	-0.443702	-0.434129	0.999942	0.008934	-0.005810	-0.001445	
31483	    0	28.733631	-0.540279	-7.869017	1.018550	2.227267	0.075533	0.286438	-0.004883	-0.081909	0.999925	0.005093	0.011136	0.000378	
31484	    0	13.663430	30.046800	13.079818	0.439835	0.472451	-0.088310	0.137076	0.300119	0.131135	0.999994	0.002199	0.002362	-0.000442	
31485	    0	4.764741	46.079493	-1.638706	-0.396730	-0.884823	-0.029755	0.047791	0.460754	-0.017090	0.999988	-0.001984	-0.004424	-0.000149	
31486	    0	4.032796	28.544517	-13.174887	-1.344126	-0.951970	-0.647553	0.041883	0.284418	-0.133466	0.999960	-0.006721	-0.004760	-0.003238	
31487	    0	7.945052	11.342130	-13.277310	-2.401815	-0.210388	-1.524405	0.080444	0.111206	-0.134033	0.999898	-0.012009	-0.001052	-0.007622	
31488	    0	10.042691	6.060352	-11.495229	-2.641600	-0.202569	-1.798516	0.101074	0.058172	-0.115629	0.999871	-0.013207	-0.001013	-0.008992	
31489	    0	12.820136	8.497529	-11.801799	-1.758443	-0.057985	-2.195049	0.129150	0.082520	-0.118713	0.999901	-0.008792	-0.000290	-0.010975	
31490	    0	15.128819	5.396841	-10.856776	-1.244973	-0.131803	-2.716738	0.152068	0.051229	-0.108792	0.999887	-0.006225	-0.000659	-0.013583	
31491	    0	17.799479	4.355414	-9.473865	-1.058807	-0.328839	-2.693271	0.178711	0.040649	-0.094666	0.999893	-0.005294	-0.001644	-0.013466	
31492	    0	21.141165	2.677399	-7.947680	-0.752852	-0.276955	-2.503276	0.211832	0.023826	-0.079277	0.999913	-0.003764	-0.001385	-0.012516	
31493	    0	21.360753	-2.508442	-4.709621	-0.707072	-0.118259	-2.362121	0.213318	-0.027771	-0.046875	0.999924	-0.003535	-0.000591	-0.011810	
31494	    0	19.107237	-3.167930	-2.788448	-0.968766	-0.020409	-2.234705	0.190704	-0.033946	-0.027704	0.999926	-0.004844	-0.000102	-0.011173	
31495	    0	16.232550	0.447997	-1.146953	-1.157218	0.133518	-2.203426	0.162354	0.002625	-0.011597	0.999922	-0.005786	0.000668	-0.011017	
31496	    0	14.213752	0.636547	0.210148	-1.511617	0.260170	-2.105009	0.142197	0.004884	0.001876	0.999915	-0.007558	0.001301	-0.010525	
31497	    0	13.255640	-0.515581	0.794004	-1.902641	0.278482	-2.003543	0.132507	-0.006409	0.007812	0.999903	-0.009513	0.001392	-0.010017	
31498	    0	12.692546	-2.412942	1.450475	-2.065729	0.318157	-1.943654	0.126707	-0.025211	0.014560	0.999898	-0.010328	0.001591	-0.009718	
31499	    0	13.003276	-4.664904	1.991312	-2.236254	0.368703	-1.823490	0.129639	-0.047607	0.020203	0.999894	-0.011181	0.001843	-0.009117	
31500	    0	13.530058	-5.403325	1.486734	-2.651326	0.441188	-1.681970	0.134874	-0.054968	0.015294	0.999874	-0.013256	0.002206	-0.008410	
31501	    0	13.238761	-5.838026	0.986544	-2.887097	0.608282	-1.561810	0.131958	-0.059265	0.010315	0.999860	-0.014435	0.003041	-0.007809	
31502	    0	11.852420	-7.787076	0.771761	-3.066215	0.719678	-1.404069	0.118004	-0.078574	0.008493	0.999851	-0.015330	0.003598	-0.007020	
31503	    0	9.877220	-9.464412	0.056259	-3.202793	0.762979	-1.203217	0.098206	-0.095215	0.001709	0.999846	-0.016013	0.003815	-0.006016	
31504	    0	7.763180	-10.579859	-0.380850	-3.128773	0.828592	-0.985574	0.077097	-0.106225	-0.002469	0.999856	-0.015643	0.004143	-0.004928	
31505	    0	6.010996	-11.393548	-1.209657	-2.782353	0.783568	-0.761442	0.059631	-0.114319	-0.010742	0.999887	-0.013911	0.003918	-0.003807	
31506	    0	5.199698	-11.648145	-1.562142	-2.217537	0.739306	-0.598350	0.051593	-0.116801	-0.014519	0.999927	-0.011087	0.003696	-0.002992	
31507	    0	4.926822	-11.194919	-1.670182	-1.480121	0.734147	-0.460821	0.048950	-0.112183	-0.016052	0.999963	-0.007401	0.003671	-0.002304	
31508	    0	4.797063	-10.521410	-1.861372	-0.676730	0.708965	-0.320817	0.047736	-0.105353	-0.018427	0.999987	-0.003384	0.003545	-0.001604	
31509	    0	4.667574	-9.878864	-2.272719	0.135804	0.665475	-0.183869	0.046509	-0.098816	-0.022949	0.999993	0.000679	0.003327	-0.000919	
31510	    0	4.463292	-9.219954	-2.535478	0.728801	0.605585	-0.050736	0.044532	-0.092117	-0.025826	0.999989	0.003644	0.003028	-0.000254	
31511	    0	4.355274	-7.916367	-2.307888	0.926213	0.525859	0.067902	0.043518	-0.079041	-0.023560	0.999986	0.004631	0.002629	0.000340	
31512	    0	4.450050	-6.180701	-1.470984	0.777629	0.518038	0.233079	0.044534	-0.061697	-0.015065	0.999988	0.003888	0.002590	0.001165	
31513	    0	4.580226	-4.857224	-0.366058	0.489999	0.553133	0.440217	0.045898	-0.048462	-0.003906	0.999990	0.002450	0.002766	0.002201	
31514	    0	4.699419	-4.354731	0.459384	0.317575	0.618174	0.652316	0.047150	-0.043401	0.004379	0.999989	0.001588	0.003091	0.003262	
31515	    0	5.154062	-4.610192	0.751799	0.364687	0.661663	0.839238	0.051758	-0.045898	0.007263	0.999984	0.001823	0.003308	0.004196	
31516	    0	6.207958	-4.473103	0.780409	0.501064	0.711446	0.983055	0.062325	-0.044444	0.007471	0.999978	0.002505	0.003557	0.004915	
31517	    0	7.703872	-3.652253	0.996973	0.512700	0.762374	1.074228	0.077271	-0.036133	0.009583	0.999974	0.002563	0.003812	0.005371	
31518	    0	8.715469	-2.199803	1.813420	0.357822	0.807197	1.116953	0.087348	-0.021543	0.017743	0.999974	0.001789	0.004036	0.005585	
31519	    0	9.034907	-1.057281	2.613864	0.056649	0.837714	1.126108	0.090515	-0.010071	0.025757	0.999975	0.000283	0.004189	0.005630	
31520	    0	9.059082	-0.481858	2.787258	-0.349620	0.846871	1.161014	0.090734	-0.004244	0.027496	0.999972	-0.001748	0.004234	0.005805	
31521	    0	8.892366	-0.381992	2.544577	-0.702675	0.836382	1.252761	0.089050	-0.003174	0.025085	0.999965	-0.003513	0.004182	0.006264	
31522	    0	9.091122	-0.932516	1.452335	-0.923361	0.812733	1.393720	0.091031	-0.008625	0.014194	0.999956	-0.004617	0.004064	0.006968	
31523	    0	9.629480	-2.044068	-0.398685	-1.007859	0.674640	1.550318	0.096436	-0.019714	-0.004211	0.999951	-0.005039	0.003373	0.007751	
31524	    0	11.335500	-4.346264	-2.712259	-0.886740	0.331502	1.679446	0.113670	-0.042629	-0.027121	0.999953	-0.004434	0.001657	0.008397	
31525	    0	14.955293	-7.152791	-5.518658	-0.477416	0.048066	1.715111	0.150146	-0.070374	-0.055054	0.999960	-0.002387	0.000240	0.008575	
31526	    0	19.357360	-8.826022	-7.039938	0.012207	-0.023270	1.677724	0.194313	-0.086628	-0.070382	0.999965	0.000061	-0.000116	0.008389	
31527	    0	22.985984	-7.634264	-6.266740	0.627336	0.180819	1.779201	0.230469	-0.074097	-0.063110	0.999954	0.003137	0.000904	0.008896	
31528	    0	24.500410	-4.107613	-3.465391	1.193838	0.419245	2.054455	0.245334	-0.038347	-0.035402	0.999927	0.005969	0.002096	0.010272	
31529	    0	23.364152	-0.438245	-1.074697	1.421591	0.502793	2.272867	0.233643	-0.001648	-0.011353	0.999907	0.007108	0.002514	0.011364	
31530	    0	20.333330	1.773623	0.682077	1.445246	0.393881	2.408299	0.203114	0.020135	0.006560	0.999899	0.007226	0.001969	0.012041	
31531	    0	17.818998	2.642574	1.130988	1.296468	0.223549	2.485739	0.177856	0.028564	0.011292	0.999901	0.006482	0.001118	0.012428	
31532	    0	16.636811	3.173593	0.858289	1.066239	0.076487	2.441097	0.165968	0.033717	0.008696	0.999910	0.005331	0.000382	0.012205	
31533	    0	16.097302	3.201994	0.526006	0.891899	-0.029565	2.337707	0.160583	0.033875	0.005432	0.999921	0.004459	-0.000148	0.011688	
31534	    0	15.827767	2.576964	0.252996	0.761622	-0.139430	2.238517	0.157974	0.027529	0.002743	0.999929	0.003808	-0.000697	0.011192	
31535	    0	15.457392	1.976121	-0.012726	0.732437	-0.224118	2.073712	0.154358	0.021362	0.000122	0.999938	0.003662	-0.001121	0.010368	
31536	    0	14.463697	1.750280	-0.216265	0.823418	-0.289159	1.932753	0.144462	0.018908	-0.001878	0.999944	0.004117	-0.001446	0.009664	
31537	    0	13.161133	1.739465	-1.007197	0.927179	-0.430305	1.787599	0.131470	0.018616	-0.009705	0.999947	0.004636	-0.002151	0.008938	
31538	    0	11.944045	2.178731	-1.841389	1.080722	-0.578318	1.621656	0.119310	0.022853	-0.017947	0.999948	0.005404	-0.002892	0.008108	
31539	    0	11.146553	3.293886	-3.069081	1.217100	-0.711072	1.458765	0.111328	0.033936	-0.030090	0.999949	0.006085	-0.003555	0.007294	
31540	    0	10.286051	5.375543	-3.345850	1.237317	-0.791563	1.315710	0.102633	0.054635	-0.032716	0.999951	0.006186	-0.003958	0.006578	
31541	    0	9.562623	6.013667	-3.181474	1.368927	-0.824751	1.177998	0.095398	0.060913	-0.031006	0.999950	0.006845	-0.004124	0.005890	
31542	    0	8.611477	6.681426	-4.144598	0.978481	-0.819025	1.068891	0.085923	0.067474	-0.040765	0.999965	0.004892	-0.004095	0.005344	
31543	    0	7.350455	7.334208	-3.976460	0.827034	-0.750548	0.947579	0.073303	0.073853	-0.039185	0.999972	0.004135	-0.003753	0.004738	
31544	    0	5.929034	7.457690	-3.499366	0.896080	-0.695997	0.792128	0.059114	0.074966	-0.034452	0.999975	0.004480	-0.003480	0.003961	
31545	    0	4.451291	7.581912	-3.007736	1.029213	-0.653653	0.624852	0.044373	0.076111	-0.029541	0.999976	0.005146	-0.003268	0.003124	
31546	    0	2.982467	7.887840	-2.696017	0.980003	-0.748449	0.456050	0.029744	0.079077	-0.026462	0.999978	0.004900	-0.003742	0.002280	
31547	    0	2.046460	8.297999	-2.950945	0.867468	-0.940520	0.226595	0.020508	0.083130	-0.029053	0.999978	0.004337	-0.004703	0.001133	
31548	    0	1.435888	8.948539	-3.273717	0.684552	-1.118859	-0.023651	0.014551	0.089595	-0.032350	0.999978	0.003423	-0.005594	-0.000118	
31549	    0	1.537865	7.099595	-3.187703	0.450329	-1.294719	-0.287631	0.015686	0.071045	-0.031616	0.999975	0.002252	-0.006474	-0.001438	
31550	    0	1.749105	2.435993	-2.862302	0.180437	-1.364530	-0.542264	0.017752	0.024338	-0.028481	0.999972	0.000902	-0.006823	-0.002711	
31551	    0	1.931342	0.193308	-2.168281	0.249484	-1.390662	-0.699623	0.019470	0.001892	-0.021545	0.999969	0.001247	-0.006953	-0.003498	
31552	    0	3.063674	-0.991404	-1.105409	0.577554	-1.587509	-0.798618	0.030684	-0.010005	-0.010839	0.999956	0.002888	-0.007937	-0.003993	
31553	    0	4.967152	-1.207784	0.685974	1.110289	-1.654848	-0.854509	0.049561	-0.012329	0.007202	0.999941	0.005551	-0.008274	-0.004272	
31554	    0	6.780333	-1.980902	3.928984	1.863910	-1.446953	-0.860618	0.067430	-0.020468	0.039590	0.999921	0.009319	-0.007235	-0.004303	
31555	    0	8.117663	-6.884495	5.677121	1.820602	-1.088737	-0.694289	0.080627	-0.069641	0.056580	0.999937	0.009103	-0.005444	-0.003471	
31556	    0	10.109229	-14.369141	3.586340	1.416413	-0.666244	-0.487715	0.100623	-0.144188	0.035179	0.999966	0.007082	-0.003331	-0.002439	
31557	    0	11.312289	-18.127978	2.288859	1.582545	-0.273135	-0.330356	0.112793	-0.181641	0.021606	0.999966	0.007913	-0.001366	-0.001652	
31558	    0	11.659514	-17.136845	1.118784	1.117712	-0.072098	0.032425	0.116619	-0.171409	0.010272	0.999984	0.005589	-0.000360	0.000162	
31559	    0	10.477597	-10.694267	1.391493	-0.066185	0.181580	0.473786	0.105042	-0.106689	0.013855	0.999996	-0.000331	0.000908	0.002369	
31560	    0	8.321059	-3.961081	0.509637	-1.002128	0.247003	0.734525	0.083362	-0.039279	0.005191	0.999979	-0.005011	0.001235	0.003673	
31561	    0	5.859598	0.171859	-0.747144	-1.857790	-0.144007	0.828567	0.058594	0.001892	-0.007446	0.999948	-0.009289	-0.000720	0.004143	
31562	    0	4.028143	1.511462	1.186904	-2.412293	-0.423634	0.919559	0.040186	0.015442	0.011769	0.999914	-0.012061	-0.002118	0.004598	
31563	    0	1.334828	0.093403	4.857432	-2.923724	-1.401396	0.978135	0.013000	0.001709	0.048645	0.999856	-0.014618	-0.007007	0.004890	
31564	    0	2.377787	2.537078	-9.132541	-2.465902	-1.305623	0.353825	0.024331	0.024286	-0.091472	0.999901	-0.012329	-0.006528	0.001769	
31565	    0	0.674836	13.601384	-1.667773	-0.903134	-0.540164	-0.330354	0.007019	0.135925	-0.017273	0.999985	-0.004516	-0.002701	-0.001652	
31566	    0	9.836200	0.596809	4.652939	1.913295	-0.732626	-0.264935	0.098198	0.005390	0.046943	0.999947	0.009566	-0.003663	-0.001325	
31567	    0	21.071207	-26.699623	-12.063135	4.839947	-2.534620	-1.004920	0.210938	-0.265076	-0.124390	0.999614	0.024197	-0.012671	-0.005024	
31568	    0	28.310221	-46.487014	-45.086430	0.267602	-0.339890	0.668718	0.285419	-0.463315	-0.451001	0.999991	0.001338	-0.001699	0.003344	
31569	    0	25.511613	11.000202	5.267902	0.507558	2.326258	0.279243	0.255554	0.110229	0.049988	0.999928	0.002538	0.011631	0.001396	
31570	    0	15.316732	36.271518	7.426076	0.917629	0.107384	-0.230027	0.153625	0.362193	0.075841	0.999989	0.004588	0.000537	-0.001150	
31571	    0	2.560744	39.636954	-6.485657	0.396158	-0.821689	-0.096131	0.026062	0.396484	-0.063965	0.999989	0.001981	-0.004108	-0.000481	
31572	    0	0.713300	22.345893	-12.847903	-0.930412	-0.479702	-0.830084	0.008368	0.222825	-0.129498	0.999977	-0.004652	-0.002398	-0.004150	
31573	    0	5.298254	10.848022	-8.103383	-1.972253	-0.239379	-1.625106	0.053955	0.107239	-0.082031	0.999917	-0.009861	-0.001197	-0.008125	
31574	    0	9.306487	8.621288	-8.503297	-2.055239	-0.459115	-1.946516	0.094089	0.084422	-0.085691	0.999897	-0.010276	-0.002295	-0.009732	
31575	    0	14.302492	8.844643	-11.706256	-1.260226	-0.331889	-2.460559	0.144287	0.085938	-0.117371	0.999903	-0.006301	-0.001659	-0.012302	
31576	    0	18.091979	4.194972	-8.598932	-0.825723	-0.142294	-2.915494	0.181563	0.038951	-0.086025	0.999885	-0.004128	-0.000711	-0.014577	
31577	    0	20.089261	3.614479	-7.431837	-0.933108	-0.499552	-2.700137	0.201538	0.033081	-0.073975	0.999894	-0.004665	-0.002498	-0.013500	
31578	    0	21.831602	3.479503	-10.003485	-0.924328	-0.489821	-2.411530	0.218955	0.031696	-0.099650	0.999913	-0.004622	-0.002449	-0.012057	
31579	    0	20.735030	2.219980	-6.997058	-0.814077	-0.162319	-2.297268	0.207642	0.019531	-0.069885	0.999925	-0.004070	-0.000812	-0.011486	
31580	    0	18.355642	-0.197837	-3.131231	-1.282536	0.072672	-2.200949	0.183507	-0.004199	-0.031357	0.999918	-0.006413	0.000363	-0.011004	
31581	    0	15.504285	0.895348	-3.236328	-1.727922	0.210578	-2.132483	0.155090	0.007019	-0.032593	0.999905	-0.008639	0.001053	-0.010662	
31582	    0	13.855801	2.692088	-2.742100	-1.859156	0.386251	-2.136875	0.138780	0.025181	-0.027928	0.999897	-0.009295	0.001931	-0.010684	
31583	    0	13.700581	1.167949	-1.668914	-2.148523	0.419061	-2.170649	0.137085	0.010010	-0.017090	0.999881	-0.010742	0.002095	-0.010853	
31584	    0	13.695036	-1.039419	-1.838599	-2.281475	0.392549	-2.150434	0.136790	-0.012076	-0.018523	0.999875	-0.011407	0.001963	-0.010752	
31585	    0	13.677022	-3.031731	-1.639762	-2.364257	0.395219	-2.066889	0.136414	-0.031921	-0.016296	0.999874	-0.011821	0.001976	-0.010334	
31586	    0	14.044736	-4.712036	-1.173566	-2.390389	0.401323	-2.021683	0.139937	-0.048675	-0.011441	0.999875	-0.011951	0.002007	-0.010108	
31587	    0	13.985561	-5.492162	-0.690348	-2.380278	0.419634	-2.001272	0.139282	-0.056396	-0.006531	0.999876	-0.011901	0.002098	-0.010006	
31588	    0	12.999837	-5.985179	0.234816	-2.239312	0.477809	-1.966551	0.129408	-0.061097	0.002718	0.999886	-0.011196	0.002389	-0.009832	
31589	    0	11.420615	-7.507702	0.653304	-2.243887	0.531979	-1.846381	0.113525	-0.076050	0.007080	0.999890	-0.011219	0.002660	-0.009232	
31590	    0	9.673334	-8.929898	0.624423	-2.353373	0.599311	-1.687684	0.095996	-0.090032	0.007012	0.999890	-0.011766	0.002996	-0.008438	
31591	    0	8.036775	-10.008020	0.653842	-2.343066	0.672363	-1.475575	0.079651	-0.100586	0.007446	0.999898	-0.011715	0.003362	-0.007378	
31592	    0	6.906691	-11.197744	0.336057	-2.172149	0.691815	-1.214252	0.068399	-0.112350	0.004342	0.999916	-0.010860	0.003459	-0.006071	
31593	    0	6.328151	-11.782987	0.118946	-1.861609	0.676169	-0.920886	0.062744	-0.118103	0.002075	0.999940	-0.009308	0.003381	-0.004604	
31594	    0	6.260515	-11.516441	-0.254646	-1.349083	0.680359	-0.639350	0.062229	-0.115378	-0.001981	0.999966	-0.006745	0.003402	-0.003197	
31595	    0	6.121467	-11.082069	-0.443930	-0.807767	0.720982	-0.405886	0.060974	-0.110962	-0.004211	0.999983	-0.004039	0.003605	-0.002029	
31596	    0	5.623552	-10.679859	-0.489931	-0.383951	0.793841	-0.158501	0.056131	-0.106853	-0.004917	0.999990	-0.001920	0.003969	-0.000793	
31597	    0	5.101488	-9.894649	-0.218555	-0.177003	0.867656	0.041199	0.051025	-0.098938	-0.002319	0.999990	-0.000885	0.004338	0.000206	
31598	    0	4.706348	-8.375632	0.509481	-0.178338	0.888637	0.186921	0.047164	-0.083708	0.004960	0.999989	-0.000892	0.004443	0.000935	
31599	    0	4.521124	-6.441672	0.838878	-0.326539	0.852397	0.318147	0.045349	-0.064331	0.008301	0.999988	-0.001633	0.004262	0.001591	
31600	    0	4.326826	-4.793027	0.398375	-0.550082	0.819592	0.458147	0.043394	-0.047820	0.003938	0.999985	-0.002750	0.004098	0.002291	
31601	    0	4.121863	-3.887032	-0.361672	-0.643734	0.824743	0.604252	0.041321	-0.038757	-0.003662	0.999981	-0.003219	0.004124	0.003021	
31602	    0	3.977026	-3.617579	-1.123354	-0.466159	0.838094	0.726323	0.039854	-0.036057	-0.011316	0.999982	-0.002331	0.004190	0.003632	
31603	    0	4.284490	-3.367553	-1.827382	-0.113679	0.829511	0.828557	0.042908	-0.033508	-0.018433	0.999982	-0.000568	0.004148	0.004143	
31604	    0	5.556095	-3.159115	-1.822404	0.214197	0.852209	0.888640	0.055622	-0.031324	-0.018495	0.999980	0.001071	0.004261	0.004443	
31605	    0	7.073075	-2.830255	-1.306520	0.383761	0.872237	0.912482	0.070801	-0.027954	-0.013428	0.999978	0.001919	0.004361	0.004562	
31606	    0	8.045113	-2.521259	-0.741839	0.398067	0.848586	0.948341	0.080537	-0.024816	-0.007810	0.999977	0.001990	0.004243	0.004742	
31607	    0	8.486691	-2.220012	-0.256769	0.329020	0.767522	0.955970	0.084961	-0.021790	-0.002930	0.999979	0.001645	0.003838	0.004780	
31608	    0	8.423499	-1.679818	0.063245	0.115205	0.686078	1.012427	0.084320	-0.016372	0.000334	0.999981	0.000576	0.003430	0.005062	
31609	    0	8.135584	-1.173939	0.090041	-0.199129	0.590710	1.098640	0.081421	-0.011292	0.000671	0.999980	-0.000996	0.002954	0.005493	
31610	    0	7.938182	-1.065974	-0.999934	-0.462727	0.492482	1.239596	0.079421	-0.010191	-0.010171	0.999974	-0.002314	0.002462	0.006198	
31611	    0	8.376626	-1.815221	-2.932090	-0.533300	0.201609	1.410689	0.083862	-0.017639	-0.029358	0.999970	-0.002666	0.001008	0.007053	
31612	    0	10.704299	-4.609025	-5.913746	-0.401501	-0.231173	1.516549	0.107457	-0.045395	-0.058922	0.999969	-0.002007	-0.001156	0.007583	
31613	    0	15.155423	-7.850512	-8.572568	0.009346	-0.448613	1.538102	0.152344	-0.077332	-0.085388	0.999968	0.000047	-0.002243	0.007690	
31614	    0	19.998736	-9.206552	-9.486524	0.423436	-0.348286	1.529520	0.200848	-0.090331	-0.094708	0.999967	0.002117	-0.001741	0.007648	
31615	    0	23.764960	-6.974131	-6.295689	1.055164	0.083353	1.752503	0.238220	-0.067322	-0.063416	0.999948	0.005276	0.000417	0.008762	
31616	    0	24.596297	-3.752601	-1.091827	1.651243	0.362026	2.152129	0.246326	-0.034782	-0.011659	0.999906	0.008256	0.001810	0.010760	
31617	    0	22.059590	-0.773400	2.258794	1.941763	0.283253	2.504073	0.220703	-0.005188	0.022217	0.999873	0.009708	0.001416	0.012520	
31618	    0	19.180067	1.284720	3.296124	1.756360	0.043108	2.622713	0.191620	0.015071	0.033046	0.999875	0.008781	0.000216	0.013113	
31619	    0	17.826109	2.847815	2.971970	1.287123	-0.131802	2.576536	0.177856	0.030579	0.030029	0.999896	0.006435	-0.000659	0.012882	
31620	    0	17.588498	3.958472	2.605499	0.836205	-0.230223	2.441284	0.175355	0.041617	0.026428	0.999916	0.004181	-0.001151	0.012206	
31621	    0	17.369055	3.136825	2.544677	0.515759	-0.330933	2.262930	0.173279	0.033264	0.025818	0.999930	0.002579	-0.001655	0.011314	
31622	    0	17.046927	0.659563	2.049446	0.421914	-0.418481	2.100986	0.170344	0.008342	0.020867	0.999940	0.002110	-0.002092	0.010505	
31623	    0	16.811382	-1.459368	1.613395	0.679220	-0.465402	2.033274	0.168213	-0.012939	0.016479	0.999939	0.003396	-0.002327	0.010166	
31624	    0	16.573887	-1.969136	0.768011	1.042961	-0.509083	1.979299	0.165903	-0.018091	0.008005	0.999933	0.005215	-0.002545	0.009896	
31625	    0	16.125586	-1.198795	-0.521449	1.442947	-0.584427	1.953939	0.161377	-0.010376	-0.004822	0.999922	0.007215	-0.002922	0.009769	
31626	    0	15.430392	0.306256	-1.793890	1.756338	-0.635547	1.889475	0.154321	0.004675	-0.017412	0.999911	0.008781	-0.003178	0.009447	
31627	    0	14.093421	2.287958	-2.701877	2.015179	-0.669882	1.799069	0.140808	0.024414	-0.026306	0.999903	0.010076	-0.003349	0.008995	
31628	    0	12.503879	4.236568	-3.649657	2.189710	-0.641463	1.687869	0.124788	0.043813	-0.035622	0.999899	0.010948	-0.003207	0.008439	
31629	    0	11.028856	6.700356	-4.550479	2.122562	-0.526254	1.599933	0.109863	0.068359	-0.044495	0.999907	0.010612	-0.002631	0.007999	
31630	    0	10.097371	7.090383	-2.797955	2.379114	-0.416006	1.428079	0.100519	0.071947	-0.026918	0.999901	0.011895	-0.002080	0.007140	
31631	    0	8.931482	6.196123	-3.838722	1.860849	-0.328643	1.239803	0.088989	0.062866	-0.037659	0.999936	0.009304	-0.001643	0.006199	
31632	    0	7.104886	7.064001	-3.708990	1.488897	-0.214961	1.031890	0.070722	0.071279	-0.036485	0.999958	0.007444	-0.001075	0.005159	
31633	    0	5.172928	7.353889	-3.416012	1.326002	-0.156213	0.820931	0.051453	0.073975	-0.033630	0.999969	0.006630	-0.000781	0.004105	
31634	    0	3.058190	8.005032	-2.578069	1.173982	-0.158502	0.636296	0.030347	0.080297	-0.025286	0.999977	0.005870	-0.000793	0.003181	
31635	    0	1.095955	7.681088	-1.543657	0.900273	-0.273706	0.460818	0.010803	0.076904	-0.015076	0.999986	0.004501	-0.001369	0.002304	
31636	    0	0.463277	7.948894	-1.185551	0.625994	-0.554849	0.143433	0.004608	0.079529	-0.011594	0.999990	0.003130	-0.002774	0.000717	
31637	    0	0.378706	8.200420	-1.344590	0.450899	-0.845912	-0.153351	0.003906	0.082031	-0.013245	0.999988	0.002254	-0.004230	-0.000767	
31638	    0	0.565276	8.299581	-1.660654	0.233270	-1.072508	-0.380900	0.005899	0.083004	-0.016479	0.999983	0.001166	-0.005363	-0.001904	
31639	    0	1.018102	6.630463	-0.773812	0.332644	-1.149568	-0.640111	0.010437	0.066284	-0.007568	0.999976	0.001663	-0.005748	-0.003201	
31640	    0	1.634069	2.988567	0.704682	0.513463	-1.157963	-0.908289	0.016435	0.029793	0.007218	0.999969	0.002567	-0.005790	-0.004541	
31641	    0	2.461571	-1.179260	1.925891	0.341992	-1.393910	-1.120774	0.024414	-0.011963	0.019409	0.999958	0.001710	-0.006969	-0.005604	
31642	    0	3.897452	-3.452310	2.407936	0.045014	-1.528192	-1.227780	0.038576	-0.034766	0.024367	0.999951	0.000225	-0.007641	-0.006139	
31643	    0	5.648744	-4.587822	3.187575	0.257878	-1.461624	-1.229114	0.055969	-0.046265	0.032227	0.999953	0.001289	-0.007308	-0.006145	
31644	    0	7.225767	-4.459349	3.149916	0.849548	-1.508548	-1.097698	0.071772	-0.045123	0.031851	0.999947	0.004248	-0.007543	-0.005488	
31645	    0	8.587251	-6.726726	1.161978	1.354436	-1.584658	-0.796525	0.085510	-0.067688	0.011841	0.999937	0.006772	-0.007923	-0.003983	
31646	    0	9.940648	-12.336848	-3.113325	0.738725	-1.503963	-0.432974	0.099372	-0.123469	-0.030842	0.999962	0.003694	-0.007520	-0.002165	
31647	    0	10.672780	-15.479880	-4.811749	-0.202180	-1.232728	-0.112916	0.106934	-0.154907	-0.047302	0.999980	-0.001011	-0.006164	-0.000565	
31648	    0	10.433099	-14.766667	-2.888296	-0.794606	-0.881010	0.237466	0.104630	-0.147655	-0.027836	0.999981	-0.003973	-0.004405	0.001187	
31649	    0	9.046204	-11.416854	-2.277055	-1.026734	-0.737005	0.592046	0.090881	-0.114014	-0.021851	0.999975	-0.005134	-0.003685	0.002960	
31650	    0	6.971898	-7.632479	-4.112210	-0.956925	-0.768096	0.791366	0.070177	-0.076242	-0.040488	0.999973	-0.004785	-0.003840	0.003957	
31651	    0	4.787216	-4.902015	-4.207412	-0.959595	-0.631719	0.871284	0.048218	-0.049011	-0.041687	0.999973	-0.004798	-0.003159	0.004356	
31652	    0	1.826594	-2.995550	-3.527878	-0.983824	-1.243799	0.914205	0.018621	-0.030044	-0.035016	0.999958	-0.004919	-0.006219	0.004571	
31653	    0	2.936113	-0.043392	-9.392581	-0.256158	-0.771335	0.444795	0.029724	-0.000488	-0.093811	0.999989	-0.001281	-0.003857	0.002224	
31654	    0	5.417234	4.847460	7.492568	1.171509	1.354617	-0.029564	0.054687	0.048028	0.074839	0.999959	0.005857	0.006773	-0.000148	
31655	    0	15.940008	-11.746927	1.484988	4.518719	-0.794290	-0.489851	0.159058	-0.118164	0.012817	0.999733	0.022592	-0.003971	-0.002449	
31656	    0	24.414817	-34.227138	-32.891738	2.000085	-0.828759	-0.139621	0.245280	-0.339137	-0.331305	0.999941	0.010000	-0.004144	-0.000698	
31657	    0	23.556830	7.691285	-10.359518	1.232930	1.532961	0.067903	0.234741	0.077637	-0.104919	0.999951	0.006165	0.007665	0.000340	
31658	    0	12.888660	39.341547	6.456495	1.082426	0.124932	-0.338938	0.129594	0.392839	0.066611	0.999983	0.005412	0.000625	-0.001695	
31659	    0	2.593702	43.005451	-5.137414	0.157929	-0.988583	-0.309755	0.026855	0.430054	-0.050903	0.999986	0.000790	-0.004943	-0.001549	
31660	    0	2.762674	25.219360	-11.438805	-0.886544	-0.856598	-0.867089	0.029211	0.251559	-0.115381	0.999971	-0.004433	-0.004283	-0.004335	
31661	    0	8.837452	10.209128	-11.734326	-1.745653	-0.681133	-1.754809	0.089661	0.100281	-0.117920	0.999917	-0.008728	-0.003406	-0.008774	
31662	    0	12.768481	6.451759	-12.221826	-2.257438	-0.437373	-2.098550	0.128611	0.061789	-0.122645	0.999878	-0.011287	-0.002187	-0.010492	
31663	    0	16.576117	8.421322	-10.557532	-1.322789	-0.196082	-2.439959	0.166870	0.081482	-0.105957	0.999903	-0.006614	-0.000980	-0.012199	
31664	    0	18.334421	5.794201	-9.560610	-1.004254	-0.355542	-2.704334	0.184271	0.054975	-0.095560	0.999894	-0.005021	-0.001778	-0.013521	
31665	    0	19.232512	5.062280	-8.198484	-0.978883	-0.578899	-2.521595	0.193176	0.047791	-0.081665	0.999904	-0.004894	-0.002894	-0.012608	
31666	    0	20.682650	3.407146	-8.374848	-0.779935	-0.529685	-2.336182	0.207424	0.031325	-0.083325	0.999920	-0.003900	-0.002648	-0.011681	
31667	    0	20.324374	-0.417940	-4.925790	-0.847455	-0.278480	-2.229363	0.203247	-0.006653	-0.048950	0.999928	-0.004237	-0.001392	-0.011147	
31668	    0	18.099126	-2.710977	-3.440371	-1.331746	-0.198942	-2.129611	0.180721	-0.029263	-0.034034	0.999920	-0.006659	-0.000995	-0.010648	
31669	    0	15.795032	0.133124	-3.183778	-1.438942	-0.049402	-2.091273	0.157959	-0.000549	-0.031799	0.999919	-0.007195	-0.000247	-0.010456	
31670	    0	14.439058	-0.097564	-0.669360	-1.540226	0.061228	-2.042063	0.144368	-0.002501	-0.006722	0.999918	-0.007701	0.000306	-0.010210	
31671	    0	14.205430	-1.982991	-1.414445	-1.917136	0.045778	-1.969972	0.141846	-0.021362	-0.013977	0.999905	-0.009585	0.000229	-0.009850	
31672	    0	13.990917	-3.304466	-1.486685	-1.867159	0.166707	-1.914272	0.139571	-0.034519	-0.014666	0.999909	-0.009336	0.000834	-0.009571	
31673	    0	13.859686	-4.392859	-0.450245	-1.933918	0.293740	-1.816613	0.138184	-0.045227	-0.004272	0.999910	-0.009669	0.001469	-0.009083	
31674	    0	13.895769	-5.235043	-0.028759	-2.181315	0.396360	-1.699694	0.138506	-0.053530	0.000017	0.999902	-0.010906	0.001982	-0.008498	
31675	    0	13.448946	-5.598110	-0.162382	-2.280312	0.544757	-1.595360	0.134033	-0.057068	-0.001343	0.999899	-0.011401	0.002724	-0.007977	
31676	    0	12.249884	-6.355456	0.405779	-2.229570	0.674841	-1.450012	0.122048	-0.064393	0.004360	0.999906	-0.011147	0.003374	-0.007250	
31677	    0	10.677681	-7.632850	0.824684	-2.317692	0.766015	-1.268045	0.106323	-0.076904	0.008728	0.999905	-0.011588	0.003830	-0.006340	
31678	    0	8.943039	-8.665029	0.747317	-2.436717	0.811985	-1.080548	0.088993	-0.087035	0.008170	0.999903	-0.012183	0.004060	-0.005403	
31679	    0	7.626978	-9.438792	0.514687	-2.329894	0.863673	-0.904110	0.075867	-0.094666	0.005920	0.999912	-0.011649	0.004318	-0.004520	
31680	    0	7.033247	-9.698104	0.335451	-1.990553	0.900861	-0.736062	0.069992	-0.097201	0.004005	0.999933	-0.009953	0.004504	-0.003680	
31681	    0	7.001185	-9.407251	0.424915	-1.511214	0.922407	-0.572213	0.069763	-0.094238	0.004639	0.999956	-0.007556	0.004612	-0.002861	
31682	    0	6.650675	-8.985563	0.712454	-1.072130	0.907715	-0.394252	0.066362	-0.089948	0.007305	0.999973	-0.005361	0.004539	-0.001971	
31683	    0	5.927165	-8.613958	0.573317	-0.757603	0.882154	-0.215913	0.059204	-0.086182	0.005798	0.999982	-0.003788	0.004411	-0.001080	
31684	    0	5.025281	-7.675670	0.319982	-0.582125	0.821880	-0.051499	0.050246	-0.076760	0.003217	0.999987	-0.002911	0.004109	-0.000257	
31685	    0	4.341290	-6.076348	0.288933	-0.683597	0.770000	0.108338	0.043457	-0.060730	0.002930	0.999986	-0.003418	0.003850	0.000542	
31686	    0	4.012278	-4.762855	0.331733	-1.010902	0.772100	0.290873	0.040205	-0.047553	0.003403	0.999978	-0.005054	0.003860	0.001454	
31687	    0	4.042249	-4.148814	0.161546	-1.292434	0.860033	0.471502	0.040527	-0.041382	0.001709	0.999967	-0.006462	0.004300	0.002357	
31688	    0	4.150183	-4.385116	-0.311351	-1.325242	0.914585	0.639542	0.041628	-0.043738	-0.003014	0.999962	-0.006626	0.004573	0.003198	
31689	    0	4.517463	-5.044200	-0.616883	-1.130499	0.968182	0.811014	0.045349	-0.050293	-0.006104	0.999964	-0.005652	0.004841	0.004055	
31690	    0	5.495401	-5.051427	-0.807264	-0.787934	0.998126	0.950823	0.055153	-0.050284	-0.008149	0.999968	-0.003940	0.004991	0.004754	
31691	    0	6.750087	-4.159929	-0.510736	-0.408939	1.030169	1.036082	0.067688	-0.041260	-0.005371	0.999970	-0.002045	0.005151	0.005180	
31692	    0	7.874488	-3.102537	0.063187	-0.205423	1.015100	1.066790	0.078911	-0.030604	0.000263	0.999972	-0.001027	0.005075	0.005334	
31693	    0	7.815680	-2.179632	0.737023	-0.257876	0.968370	1.085673	0.078308	-0.021362	0.007019	0.999972	-0.001289	0.004842	0.005428	
31694	    0	7.444865	-1.524521	1.050560	-0.491147	0.899323	1.088153	0.074576	-0.014814	0.010207	0.999971	-0.002456	0.004497	0.005441	
31695	    0	7.062753	-1.251108	1.117273	-0.827607	0.843057	1.076519	0.070740	-0.012085	0.010925	0.999968	-0.004138	0.004215	0.005383	
31696	    0	7.087197	-1.442808	1.077202	-1.066412	0.815211	1.119628	0.070994	-0.013974	0.010558	0.999961	-0.005332	0.004076	0.005598	
31697	    0	7.662573	-2.155685	0.745448	-1.104561	0.804149	1.197068	0.076782	-0.021057	0.007263	0.999958	-0.005523	0.004021	0.005985	
31698	    0	8.180002	-3.088162	-0.673149	-1.015105	0.724421	1.294726	0.081973	-0.030386	-0.006873	0.999959	-0.005075	0.003622	0.006474	
31699	    0	9.342537	-4.594913	-2.502846	-0.829134	0.395207	1.373307	0.093689	-0.045410	-0.025024	0.999966	-0.004146	0.001976	0.006866	
31700	    0	11.955218	-7.120505	-5.749391	-0.507169	-0.032807	1.392759	0.120054	-0.070516	-0.057295	0.999972	-0.002536	-0.000164	0.006964	
31701	    0	15.635170	-9.377060	-7.989666	-0.056267	-0.280001	1.377880	0.157104	-0.092712	-0.079651	0.999975	-0.000281	-0.001400	0.006889	
31702	    0	19.438503	-9.336700	-9.095108	0.420002	-0.218584	1.453414	0.195155	-0.091760	-0.090932	0.999970	0.002100	-0.001093	0.007267	
31703	    0	22.371842	-6.565953	-7.098703	1.088161	0.067140	1.711303	0.224243	-0.063354	-0.071411	0.999949	0.005441	0.000336	0.008556	
31704	    0	23.343333	-3.586265	-3.502904	1.697401	0.223167	2.071634	0.233747	-0.033142	-0.035579	0.999909	0.008487	0.001116	0.010358	
31705	    0	21.727309	-0.799499	-0.080286	2.113621	0.154883	2.349189	0.217346	-0.005432	-0.001038	0.999874	0.010568	0.000774	0.011745	
31706	    0	19.176360	1.256762	2.013053	2.121257	-0.050547	2.482334	0.191585	0.014731	0.020328	0.999866	0.010606	-0.000253	0.012411	
31707	    0	17.600675	2.931089	2.638872	1.780770	-0.221070	2.477361	0.175598	0.031250	0.026855	0.999883	0.008904	-0.001105	0.012386	
31708	    0	16.983371	3.689031	2.727550	1.299134	-0.368129	2.324747	0.169340	0.038681	0.027835	0.999909	0.006495	-0.001841	0.011623	
31709	    0	16.448545	2.672329	2.448911	0.866147	-0.505078	2.150014	0.164124	0.028381	0.025024	0.999929	0.004331	-0.002525	0.010750	
31710	    0	15.913759	0.406580	1.426163	0.657857	-0.604450	1.943625	0.159044	0.005564	0.014759	0.999943	0.003289	-0.003022	0.009718	
31711	    0	15.418032	-0.971194	0.705400	0.817123	-0.634586	1.789888	0.154236	-0.008362	0.007507	0.999946	0.004086	-0.003173	0.008949	
31712	    0	14.962657	-1.013566	-0.092555	1.153395	-0.690473	1.636536	0.149705	-0.008907	-0.000463	0.999944	0.005767	-0.003452	0.008183	
31713	    0	14.427708	-0.481921	-1.096208	1.552616	-0.771158	1.489290	0.144348	-0.003662	-0.010437	0.999934	0.007763	-0.003856	0.007446	
31714	    0	13.794884	0.635437	-2.528545	1.888132	-0.840590	1.347576	0.138005	0.007519	-0.024638	0.999924	0.009440	-0.004203	0.006738	
31715	    0	12.547359	3.181613	-3.729352	2.041108	-0.833915	1.224550	0.125427	0.032959	-0.036438	0.999920	0.010205	-0.004169	0.006123	
31716	    0	11.083826	5.008653	-3.161974	2.455983	-0.808170	1.113547	0.110681	0.051083	-0.030549	0.999901	0.012280	-0.004041	0.005568	
31717	    0	9.931535	5.497101	-3.808819	2.396656	-0.753044	0.985748	0.099182	0.055908	-0.037048	0.999908	0.011983	-0.003765	0.004929	
31718	    0	8.705647	6.802507	-4.109097	2.106906	-0.606932	0.870725	0.086881	0.068830	-0.040105	0.999930	0.010534	-0.003035	0.004354	
31719	    0	7.732501	6.983466	-3.304363	2.001420	-0.453958	0.712599	0.077148	0.070435	-0.032166	0.999941	0.010007	-0.002270	0.003563	
31720	    0	6.476280	6.903758	-2.241273	2.001418	-0.404747	0.561725	0.064612	0.069438	-0.021588	0.999944	0.010007	-0.002024	0.002809	
31721	    0	4.954846	6.963435	-1.655985	1.834326	-0.450904	0.418860	0.049438	0.069885	-0.015808	0.999952	0.009171	-0.002254	0.002094	
31722	    0	3.406499	7.902092	-1.626055	1.452652	-0.581747	0.236132	0.034018	0.079176	-0.015587	0.999969	0.007263	-0.002909	0.001181	
31723	    0	2.006196	8.467280	-1.727217	1.130112	-0.694280	0.094605	0.020081	0.084778	-0.016724	0.999977	0.005651	-0.003471	0.000473	
31724	    0	1.278635	8.371367	-2.032312	1.032455	-0.828558	-0.035668	0.012884	0.083815	-0.019837	0.999978	0.005162	-0.004143	-0.000178	
31725	    0	1.284465	6.725850	-1.620188	1.000984	-0.879485	-0.254824	0.013000	0.067322	-0.015808	0.999976	0.005005	-0.004397	-0.001274	
31726	    0	1.605847	4.229722	-0.189510	1.037225	-0.889595	-0.521283	0.016176	0.042264	-0.001604	0.999972	0.005186	-0.004448	-0.002606	
31727	    0	2.222174	2.097782	1.688130	0.976763	-0.959787	-0.735481	0.022217	0.020813	0.017090	0.999969	0.004884	-0.004799	-0.003677	
31728	    0	3.450155	-0.091090	2.837459	0.770577	-1.072895	-0.913439	0.034344	-0.001178	0.028555	0.999968	0.003853	-0.005364	-0.004567	
31729	    0	4.990085	-1.508010	2.181006	0.442701	-1.280228	-1.013196	0.049683	-0.015381	0.022095	0.999964	0.002213	-0.006401	-0.005066	
31730	    0	5.915978	-1.457644	1.610718	0.275234	-1.488706	-1.001181	0.058964	-0.014894	0.016526	0.999958	0.001376	-0.007443	-0.005006	
31731	    0	6.809788	-0.970127	0.747561	0.336652	-1.577781	-0.868237	0.067993	-0.010010	0.007996	0.999958	0.001683	-0.007889	-0.004341	
31732	    0	8.149049	-1.958459	0.240013	0.468259	-1.428239	-0.640113	0.081408	-0.019852	0.002935	0.999967	0.002341	-0.007141	-0.003201	
31733	    0	9.479759	-5.950789	-0.783626	0.102425	-1.274118	-0.397494	0.094727	-0.059692	-0.007263	0.999977	0.000512	-0.006371	-0.001987	
31734	    0	10.139989	-9.137444	-1.949772	-0.409129	-1.054579	-0.241090	0.101390	-0.091536	-0.018776	0.999983	-0.002046	-0.005273	-0.001205	
31735	    0	9.598888	-9.750096	-1.985497	-0.415040	-0.761225	-0.112152	0.096008	-0.097595	-0.019287	0.999990	-0.002075	-0.003806	-0.000561	
31736	    0	8.402095	-8.428256	-2.494449	-0.377846	-0.556184	0.119210	0.084140	-0.084279	-0.024551	0.999993	-0.001889	-0.002781	0.000596	
31737	    0	7.275412	-5.999022	-3.296243	-0.415612	-0.505067	0.334168	0.072937	-0.059937	-0.032654	0.999992	-0.002078	-0.002525	0.001671	
31738	    0	5.973889	-3.594275	-3.136065	-0.582125	-0.546267	0.445749	0.059904	-0.035900	-0.031093	0.999990	-0.002911	-0.002731	0.002229	
31739	    0	4.672177	-1.155878	-2.076494	-0.868993	-0.623897	0.482181	0.046814	-0.011536	-0.020569	0.999982	-0.004345	-0.003119	0.002411	
31740	    0	2.792291	0.494936	1.089054	-1.129924	-0.843247	0.488095	0.027864	0.005079	0.010980	0.999971	-0.005650	-0.004216	0.002440	
31741	    0	2.881566	1.706934	-4.269896	-0.838478	-1.156435	0.111390	0.029053	0.016907	-0.042603	0.999974	-0.004192	-0.005782	0.000557	
31742	    0	4.879017	7.167407	0.164306	-0.551606	0.279999	-0.366593	0.048923	0.071589	0.001377	0.999993	-0.002758	0.001400	-0.001833	
31743	    0	13.825753	-5.343032	10.227857	1.821925	-0.294308	0.056458	0.138123	-0.054321	0.101990	0.999957	0.009109	-0.001472	0.000282	
31744	    0	23.779583	-24.589497	-21.986604	3.311405	-2.499386	-0.859706	0.239503	-0.243270	-0.220922	0.999775	0.016556	-0.012496	-0.004298	
31745	    0	27.664410	-26.314782	-38.131071	0.045013	0.204659	0.132751	0.276428	-0.262878	-0.381653	0.999999	0.000225	0.001023	0.000664	
31746	    0	18.524619	17.680361	5.899368	1.318193	1.624900	-0.067712	0.185783	0.176353	0.058649	0.999945	0.006591	0.008124	-0.000339	
31747	    0	8.748126	31.267007	6.486293	0.304413	-0.347710	-0.022125	0.087402	0.312561	0.065491	0.999997	0.001522	-0.001739	-0.000111	
31748	    0	4.690517	30.124228	-5.387856	-0.542072	-1.131638	-0.174524	0.047475	0.301054	-0.054427	0.999979	-0.002710	-0.005658	-0.000873	
31749	    0	5.991193	16.835579	-13.015297	-1.652554	-0.622378	-0.927750	0.061096	0.166992	-0.131348	0.999949	-0.008263	-0.003112	-0.004639	
31750	    0	7.390819	10.209401	-9.689520	-2.233958	-0.352108	-1.587728	0.074882	0.100412	-0.097892	0.999904	-0.011169	-0.001760	-0.007938	
31751	    0	10.095103	8.883855	-10.150414	-2.105018	-0.376714	-1.795255	0.101929	0.086853	-0.102234	0.999902	-0.010525	-0.001884	-0.008976	
31752	    0	13.579142	7.207850	-10.924599	-1.463935	-0.273904	-2.272676	0.136743	0.069727	-0.109575	0.999907	-0.007319	-0.001369	-0.011363	
31753	    0	16.405446	5.125597	-10.033180	-1.333663	-0.240143	-2.507867	0.164795	0.048523	-0.100464	0.999898	-0.006668	-0.001201	-0.012539	
31754	    0	18.950979	4.067743	-8.992864	-1.310198	-0.362980	-2.368047	0.190132	0.037840	-0.089838	0.999907	-0.006551	-0.001815	-0.011840	
31755	    0	20.701162	1.089684	-8.618437	-1.196132	-0.231177	-2.304142	0.207214	0.007996	-0.085999	0.999914	-0.005980	-0.001156	-0.011520	
31756	    0	19.729353	-3.932518	-5.027762	-1.085500	0.002289	-2.255308	0.196831	-0.041819	-0.050057	0.999921	-0.005427	0.000011	-0.011276	
31757	    0	17.432477	-4.337282	-3.524882	-1.184875	0.058176	-2.172907	0.173828	-0.045471	-0.035034	0.999923	-0.005924	0.000291	-0.010864	
31758	    0	15.396998	-1.440144	-2.156894	-1.204521	0.174527	-2.146775	0.153784	-0.016183	-0.021609	0.999924	-0.006022	0.000873	-0.010734	
31759	    0	14.084886	-1.425051	-0.308190	-1.397552	0.195318	-2.095850	0.140686	-0.015747	-0.003113	0.999920	-0.006988	0.000977	-0.010479	
31760	    0	13.500178	-1.560128	0.261209	-1.634643	0.171475	-2.001246	0.134839	-0.016930	0.002631	0.999916	-0.008173	0.000857	-0.010006	
31761	    0	13.334771	-2.451595	1.502348	-1.795250	0.262650	-1.974546	0.133118	-0.025696	0.015076	0.999909	-0.008976	0.001313	-0.009872	
31762	    0	13.782459	-4.123104	1.953881	-1.978937	0.340091	-1.879942	0.137464	-0.042330	0.019720	0.999905	-0.009894	0.001700	-0.009399	
31763	    0	14.108179	-4.857015	1.648784	-2.296530	0.468652	-1.764742	0.140686	-0.049622	0.016724	0.999892	-0.011482	0.002343	-0.008823	
31764	    0	13.621706	-5.162141	1.372501	-2.560337	0.593591	-1.650686	0.135827	-0.052566	0.013990	0.999879	-0.012801	0.002968	-0.008253	
31765	    0	12.306024	-6.988188	0.913097	-2.786186	0.663786	-1.514501	0.122559	-0.070679	0.009705	0.999868	-0.013930	0.003319	-0.007572	
31766	    0	10.385387	-9.495684	0.352314	-2.964919	0.672944	-1.343026	0.103228	-0.095589	0.004589	0.999862	-0.014824	0.003365	-0.006715	
31767	    0	8.153098	-11.441048	-0.508010	-3.063916	0.688203	-1.124625	0.080872	-0.114929	-0.003601	0.999861	-0.015319	0.003441	-0.005623	
31768	    0	6.099763	-12.214202	-1.242375	-2.959375	0.643566	-0.905647	0.060407	-0.122584	-0.010807	0.999875	-0.014796	0.003218	-0.004528	
31769	    0	5.159135	-12.125817	-1.270049	-2.575573	0.605793	-0.672171	0.051147	-0.121582	-0.011292	0.999907	-0.012877	0.003029	-0.003361	
31770	    0	4.944925	-11.441198	-1.100921	-1.949537	0.638401	-0.438889	0.049165	-0.114621	-0.010050	0.999945	-0.009748	0.003192	-0.002194	
31771	    0	5.029434	-10.691016	-1.584728	-1.081856	0.691419	-0.244142	0.050110	-0.107056	-0.015442	0.999978	-0.005409	0.003457	-0.001221	
31772	    0	5.069935	-9.970324	-2.308322	-0.050926	0.780489	-0.073052	0.050572	-0.099728	-0.023255	0.999991	-0.000255	0.003902	-0.000365	
31773	    0	4.835055	-9.073609	-2.365190	0.715068	0.802616	0.054169	0.048279	-0.090637	-0.024170	0.999985	0.003575	0.004013	0.000271	
31774	    0	4.483670	-7.779304	-1.696997	0.979621	0.751119	0.178148	0.044841	-0.077668	-0.017519	0.999980	0.004898	0.003756	0.000891	
31775	    0	4.297891	-5.937183	-1.009872	0.865178	0.663952	0.287630	0.043030	-0.059265	-0.010498	0.999984	0.004326	0.003320	0.001438	
31776	    0	4.325324	-4.191902	-0.050035	0.569918	0.626566	0.441553	0.043344	-0.041821	-0.000755	0.999989	0.002850	0.003133	0.002208	
31777	    0	4.676908	-2.913424	0.452048	0.278665	0.625613	0.634768	0.046875	-0.028992	0.004333	0.999989	0.001393	0.003128	0.003174	
31778	    0	5.238790	-2.567840	0.283631	0.177956	0.597193	0.790027	0.052497	-0.025474	0.002657	0.999987	0.000890	0.002986	0.003950	
31779	    0	6.115276	-2.737730	0.111672	0.155068	0.588229	0.909428	0.061279	-0.027100	0.000916	0.999985	0.000775	0.002941	0.004547	
31780	    0	7.277605	-2.911396	0.022571	0.136376	0.607303	1.021391	0.072924	-0.028742	-0.000015	0.999982	0.000682	0.003036	0.005107	
31781	    0	8.236509	-2.717592	0.315236	0.113679	0.650982	1.077278	0.082520	-0.026733	0.002869	0.999980	0.000568	0.003255	0.005386	
31782	    0	8.623824	-2.209771	0.863805	0.072861	0.676732	1.127442	0.086390	-0.021614	0.008338	0.999978	0.000364	0.003384	0.005637	
31783	    0	9.153545	-1.678405	1.292956	-0.070191	0.657087	1.187906	0.091675	-0.016235	0.012634	0.999976	-0.000351	0.003285	0.005939	
31784	    0	9.445543	-1.213167	1.370231	-0.334933	0.614362	1.265537	0.094571	-0.011511	0.013432	0.999973	-0.001675	0.003072	0.006328	
31785	    0	9.524075	-1.013391	1.027147	-0.564390	0.606543	1.353469	0.095337	-0.009460	0.010010	0.999968	-0.002822	0.003033	0.006767	
31786	    0	9.698841	-1.235533	0.075397	-0.663384	0.550086	1.486606	0.097078	-0.011632	0.000526	0.999963	-0.003317	0.002750	0.007433	
31787	    0	10.097477	-2.341653	-1.596056	-0.633820	0.325016	1.628897	0.101135	-0.022644	-0.016052	0.999960	-0.003169	0.001625	0.008144	
31788	    0	12.441006	-4.523400	-4.147646	-0.443274	-0.007057	1.715873	0.124794	-0.044256	-0.041373	0.999960	-0.002216	-0.000035	0.008579	
31789	    0	16.402143	-6.925593	-6.300399	-0.098993	-0.200656	1.721976	0.164673	-0.067871	-0.062805	0.999962	-0.000495	-0.001003	0.008610	
31790	    0	20.984831	-7.575557	-6.758801	0.385480	-0.092126	1.771951	0.210539	-0.073762	-0.067635	0.999958	0.001927	-0.000461	0.008860	
31791	    0	24.391032	-4.949411	-4.296169	0.987264	0.262647	1.969950	0.244324	-0.046875	-0.043518	0.999938	0.004936	0.001313	0.009850	
31792	    0	24.524244	-1.160229	-0.957104	1.381153	0.523774	2.241011	0.245325	-0.008784	-0.010281	0.999909	0.006906	0.002619	0.011205	
31793	    0	21.638805	1.823793	1.645283	1.505333	0.509089	2.437678	0.216187	0.020752	0.016052	0.999894	0.007526	0.002545	0.012188	
31794	    0	18.494825	2.976037	2.546625	1.348160	0.310527	2.499475	0.184598	0.031898	0.025390	0.999898	0.006741	0.001553	0.012497	
31795	    0	16.818031	3.693996	2.039294	1.086649	0.110630	2.443005	0.167725	0.038879	0.020508	0.999910	0.005433	0.000553	0.012215	
31796	    0	16.452543	3.735668	1.477174	0.957896	-0.044061	2.328171	0.164073	0.039197	0.014993	0.999920	0.004789	-0.000220	0.011641	
31797	    0	16.628505	3.297400	0.946382	0.939392	-0.170140	2.242335	0.165894	0.034790	0.009766	0.999926	0.004697	-0.000851	0.011211	
31798	    0	16.757402	2.715773	0.350867	1.055553	-0.266654	2.165084	0.167262	0.028950	0.003881	0.999927	0.005278	-0.001333	0.010825	
31799	    0	16.120523	2.350203	-0.237061	1.244576	-0.328072	2.101951	0.160950	0.025208	-0.001953	0.999924	0.006223	-0.001640	0.010509	
31800	    0	15.188390	2.390809	-1.134548	1.384389	-0.431644	1.991895	0.151659	0.025496	-0.010845	0.999924	0.006922	-0.002158	0.009959	
31801	    0	13.908036	2.914902	-2.036231	1.530495	-0.513280	1.837967	0.138855	0.030579	-0.019775	0.999925	0.007652	-0.002566	0.009190	
31802	    0	12.537121	4.307163	-3.684625	1.498257	-0.613608	1.693192	0.125111	0.044404	-0.036133	0.999931	0.007491	-0.003068	0.008466	
31803	    0	11.046461	6.237275	-3.493934	1.547275	-0.713936	1.520571	0.110107	0.063477	-0.034058	0.999934	0.007736	-0.003570	0.007603	
31804	    0	9.788043	6.412634	-3.968274	1.466207	-0.780120	1.349093	0.097596	0.065072	-0.038827	0.999942	0.007331	-0.003901	0.006745	
31805	    0	8.329551	7.610864	-5.015046	0.905811	-0.731668	1.226058	0.083008	0.076843	-0.049500	0.999964	0.004529	-0.003658	0.006130	
31806	    0	7.004972	8.330217	-4.506408	0.713354	-0.625997	1.065263	0.069744	0.083834	-0.044547	0.999974	0.003567	-0.003130	0.005326	
31807	    0	5.474464	8.572702	-3.673303	0.765234	-0.546841	0.932319	0.054443	0.086121	-0.036255	0.999978	0.003826	-0.002734	0.004662	
31808	    0	4.362421	7.863482	-3.165113	0.599673	-0.530055	0.739673	0.043416	0.078890	-0.031300	0.999985	0.002998	-0.002650	0.003698	
31809	    0	3.184558	7.979944	-3.241825	0.100136	-0.570680	0.499727	0.031738	0.079895	-0.032288	0.999992	0.000501	-0.002853	0.002499	
31810	    0	2.216593	8.577015	-2.779291	-0.028801	-0.602533	0.298691	0.022121	0.085799	-0.027739	0.999994	-0.000144	-0.003013	0.001493	
31811	    0	1.838915	7.531937	-2.082306	0.486757	-0.768855	0.095368	0.018433	0.075378	-0.020569	0.999990	0.002434	-0.003844	0.000477	
31812	    0	1.731325	4.853514	-2.274274	1.046571	-0.951012	-0.135232	0.017453	0.048641	-0.022406	0.999974	0.005233	-0.004755	-0.000676	
31813	    0	1.870987	2.151689	-2.176530	1.160443	-1.006900	-0.381474	0.018860	0.021606	-0.021545	0.999969	0.005802	-0.005034	-0.001907	
31814	    0	2.422949	-0.106295	-0.480607	1.005565	-1.025401	-0.671394	0.024250	-0.001121	-0.004687	0.999969	0.005028	-0.005127	-0.003357	
31815	    0	3.565623	-1.313449	0.217753	0.731667	-1.068699	-0.914774	0.035583	-0.013306	0.002319	0.999969	0.003658	-0.005343	-0.004574	
31816	    0	4.509995	-1.311509	0.253111	0.513273	-1.040279	-1.065647	0.045015	-0.013362	0.002731	0.999969	0.002566	-0.005201	-0.005328	
31817	    0	5.262650	-0.708431	0.619330	0.267032	-1.088535	-1.112377	0.052551	-0.007385	0.006470	0.999969	0.001335	-0.005443	-0.005562	
31818	    0	6.386060	-0.178048	1.279269	0.194552	-1.180661	-1.039516	0.063773	-0.002125	0.013167	0.999969	0.000973	-0.005903	-0.005198	
31819	    0	7.976940	-2.008590	1.536324	0.301555	-1.194011	-0.846871	0.079590	-0.020447	0.015808	0.999971	0.001508	-0.005970	-0.004234	
31820	    0	9.732509	-6.419020	1.084849	0.358203	-1.059158	-0.627903	0.097064	-0.064515	0.011248	0.999979	0.001791	-0.005296	-0.003139	
31821	    0	10.675898	-9.764133	0.513433	0.413515	-0.938230	-0.465396	0.106506	-0.097900	0.005432	0.999984	0.002068	-0.004691	-0.002327	
31822	    0	10.295231	-10.802739	0.090059	0.438501	-0.675394	-0.255585	0.102811	-0.108161	0.001011	0.999990	0.002192	-0.003377	-0.001278	
31823	    0	9.090263	-10.183369	-1.033763	0.161743	-0.365258	0.041199	0.090942	-0.101807	-0.010254	0.999997	0.000809	-0.001826	0.000206	
31824	    0	7.642501	-7.773429	-2.405878	-0.495721	-0.238037	0.225258	0.076541	-0.077707	-0.023775	0.999995	-0.002479	-0.001190	0.001126	
31825	    0	6.668574	-4.088525	-1.990339	-1.118476	-0.247003	0.305178	0.066772	-0.040894	-0.019592	0.999982	-0.005592	-0.001235	0.001526	
31826	    0	6.108939	-0.710600	-0.779484	-1.507775	-0.413708	0.336651	0.061117	-0.007061	-0.007615	0.999968	-0.007539	-0.002069	0.001683	
31827	    0	4.813018	0.529637	2.803636	-1.715875	-0.616273	0.323491	0.048035	0.005615	0.028137	0.999957	-0.008579	-0.003081	0.001617	
31828	    0	4.511396	-0.933194	-0.124932	-1.860856	-1.594393	0.217825	0.045132	-0.009292	-0.000803	0.999924	-0.009304	-0.007972	0.001089	
31829	    0	8.585528	0.587205	-1.524344	-1.634998	-0.215724	-0.166323	0.085876	0.005676	-0.015198	0.999965	-0.008175	-0.001079	-0.000832	
31830	    0	17.818605	-10.444576	3.472319	1.108560	-0.845725	0.248148	0.178168	-0.104418	0.034898	0.999974	0.005543	-0.004229	0.001241	
31831	    0	25.100393	-21.689876	-28.225925	2.700916	-1.504388	-0.529502	0.252563	-0.213745	-0.283264	0.999877	0.013504	-0.007522	-0.002647	
31832	    0	21.526089	-16.373326	-26.898378	0.546458	0.804904	0.078774	0.214239	-0.162911	-0.270293	0.999988	0.002732	0.004025	0.000394	
31833	    0	11.471461	18.623977	4.655445	0.999463	1.379602	0.049592	0.114990	0.186035	0.046692	0.999963	0.004997	0.006898	0.000248	
31834	    0	6.923551	34.943676	3.842745	0.564958	-0.321961	-0.219727	0.069556	0.349250	0.039526	0.999993	0.002825	-0.001610	-0.001099	
31835	    0	3.166520	27.825660	-8.930267	0.020027	-1.000220	-0.785070	0.033203	0.278137	-0.089111	0.999979	0.000100	-0.005001	-0.003925	
31836	    0	4.770042	16.349120	-12.714252	-1.266503	-0.539217	-1.578360	0.049329	0.162297	-0.128041	0.999945	-0.006332	-0.002696	-0.007892	
31837	    0	8.360488	12.666541	-9.372638	-1.476903	-0.405133	-2.146974	0.085144	0.125061	-0.094482	0.999912	-0.007384	-0.002026	-0.010735	
31838	    0	12.526771	10.681407	-10.210326	-1.475956	-0.374616	-2.385410	0.126716	0.104552	-0.102644	0.999900	-0.007380	-0.001873	-0.011927	
31839	    0	16.553821	6.699055	-11.627050	-1.080932	-0.274668	-2.663514	0.166565	0.064148	-0.116394	0.999895	-0.005404	-0.001373	-0.013317	
31840	    0	18.838440	3.100022	-8.870428	-1.015126	-0.171476	-2.667518	0.188848	0.028033	-0.088690	0.999897	-0.005075	-0.000857	-0.013337	
31841	    0	20.470976	2.080813	-7.941929	-0.940733	-0.337039	-2.490309	0.205078	0.017883	-0.079163	0.999909	-0.004704	-0.001685	-0.012451	
31842	    0	20.857007	0.021002	-6.637487	-0.593582	-0.119022	-2.395691	0.208591	-0.002485	-0.066246	0.999923	-0.002968	-0.000595	-0.011978	
31843	    0	20.128785	-4.485177	-2.631475	-0.643936	0.079538	-2.294213	0.200745	-0.047241	-0.026245	0.999928	-0.003220	0.000398	-0.011471	
31844	    0	18.244658	-2.617876	-2.724200	-1.176865	0.147823	-2.228987	0.182118	-0.028370	-0.027214	0.999920	-0.005884	0.000739	-0.011145	
31845	    0	16.097549	0.042073	-1.055152	-1.402132	0.319681	-2.173676	0.160950	-0.001404	-0.010803	0.999914	-0.007010	0.001598	-0.010868	
31846	    0	14.807679	-1.288587	0.004377	-1.778659	0.304995	-2.080220	0.147932	-0.014425	-0.000058	0.999905	-0.008893	0.001525	-0.010401	
31847	    0	13.656725	-2.184280	0.353543	-2.155381	0.351918	-1.946328	0.136353	-0.023132	0.003540	0.999892	-0.010777	0.001760	-0.009731	
31848	    0	12.839322	-3.963354	1.031536	-2.400875	0.417344	-1.885489	0.128035	-0.040716	0.010532	0.999881	-0.012004	0.002087	-0.009427	
31849	    0	12.428509	-5.731652	0.590120	-2.566445	0.480672	-1.795272	0.123779	-0.058350	0.006348	0.999874	-0.012832	0.002403	-0.008976	
31850	    0	12.148633	-6.494075	0.038823	-2.706645	0.565363	-1.653934	0.120946	-0.065932	0.000934	0.999869	-0.013533	0.002827	-0.008269	
31851	    0	11.595474	-7.472090	-0.555158	-2.741359	0.630406	-1.545019	0.115356	-0.075684	-0.004883	0.999871	-0.013706	0.003152	-0.007725	
31852	    0	10.430660	-9.508761	-0.858407	-2.703396	0.638988	-1.449072	0.103588	-0.095947	-0.007623	0.999877	-0.013516	0.003195	-0.007245	
31853	    0	8.404736	-11.595817	-1.064109	-2.655703	0.582145	-1.317647	0.083252	-0.116638	-0.009338	0.999886	-0.013278	0.002911	-0.006588	
31854	    0	6.334121	-12.953962	-1.233510	-2.527703	0.534075	-1.148834	0.062565	-0.130044	-0.010861	0.999900	-0.012638	0.002670	-0.005744	
31855	    0	5.222838	-13.264935	-1.627125	-2.165083	0.468456	-0.929283	0.051575	-0.133057	-0.014954	0.999928	-0.010825	0.002342	-0.004646	
31856	    0	5.356540	-12.657469	-2.080038	-1.609252	0.480277	-0.674638	0.053089	-0.126917	-0.019908	0.999959	-0.008046	0.002401	-0.003373	
31857	    0	5.845178	-11.848379	-2.772261	-0.702479	0.549319	-0.456240	0.058105	-0.118713	-0.027466	0.999987	-0.003512	0.002747	-0.002281	
31858	    0	5.621005	-11.312269	-2.728700	0.407983	0.695994	-0.262833	0.055965	-0.113140	-0.027713	0.999990	0.002040	0.003480	-0.001314	
31859	    0	4.852744	-10.534110	-1.863800	1.488703	0.704964	-0.111390	0.048401	-0.105225	-0.019592	0.999966	0.007443	0.003525	-0.000557	
31860	    0	4.275131	-9.566609	-0.573872	1.995123	0.608265	0.065042	0.042763	-0.095588	-0.006823	0.999945	0.009975	0.003041	0.000325	
31861	    0	4.260153	-7.327791	0.935143	1.878578	0.553140	0.269322	0.042725	-0.073303	0.008545	0.999950	0.009393	0.002766	0.001347	
31862	    0	4.562024	-3.834123	2.578511	1.350035	0.583654	0.435261	0.045778	-0.038414	0.025393	0.999970	0.006750	0.002918	0.002176	
31863	    0	5.008335	-1.149095	3.396733	0.808912	0.671391	0.610355	0.050232	-0.011475	0.033752	0.999981	0.004045	0.003357	0.003052	
31864	    0	4.958704	-0.132723	3.207940	0.381853	0.718883	0.728420	0.049706	-0.001207	0.031898	0.999985	0.001909	0.003594	0.003642	
31865	    0	5.970509	-0.634192	2.310870	0.066567	0.730900	0.823216	0.059814	-0.006104	0.022888	0.999985	0.000333	0.003654	0.004116	
31866	    0	7.179465	-1.283426	1.179234	-0.195695	0.791173	0.933653	0.071899	-0.012487	0.011520	0.999980	-0.000978	0.003956	0.004668	
31867	    0	8.246154	-1.959254	0.491263	-0.291445	0.879867	1.019295	0.082581	-0.019165	0.004578	0.999976	-0.001457	0.004399	0.005096	
31868	    0	8.797549	-2.094596	0.674736	-0.135804	0.974092	1.119243	0.088122	-0.020449	0.006332	0.999971	-0.000679	0.004870	0.005596	
31869	    0	8.794550	-2.074647	1.301217	-0.077630	1.014720	1.223768	0.088135	-0.020203	0.012573	0.999968	-0.000388	0.005074	0.006119	
31870	    0	8.602784	-1.803040	1.761884	-0.267986	0.979435	1.343362	0.086231	-0.017428	0.017220	0.999964	-0.001340	0.004897	0.006717	
31871	    0	8.704886	-1.318689	1.739363	-0.531585	0.914777	1.443501	0.087219	-0.012512	0.017029	0.999960	-0.002658	0.004574	0.007217	
31872	    0	8.693169	-1.175363	1.322803	-0.716602	0.874342	1.555467	0.087076	-0.011030	0.012888	0.999953	-0.003583	0.004372	0.007777	
31873	    0	8.901278	-1.416038	1.040499	-0.758184	0.865951	1.694518	0.089172	-0.013367	0.010071	0.999947	-0.003791	0.004330	0.008472	
31874	    0	9.092040	-2.051831	0.090027	-0.734916	0.852411	1.844251	0.091107	-0.019676	0.000586	0.999941	-0.003675	0.004262	0.009221	
31875	    0	9.666420	-2.706428	-1.870432	-0.698676	0.638593	1.954689	0.096863	-0.026184	-0.018921	0.999941	-0.003493	0.003193	0.009773	
31876	    0	11.645836	-4.502263	-4.353679	-0.527963	0.134089	1.988637	0.116870	-0.043977	-0.043498	0.999947	-0.002640	0.000670	0.009943	
31877	    0	15.670001	-7.522021	-7.497727	-0.037957	-0.325780	1.912719	0.157532	-0.073730	-0.074707	0.999952	-0.000190	-0.001629	0.009563	
31878	    0	21.030109	-9.228181	-9.938206	0.517663	-0.476463	1.838714	0.211372	-0.090085	-0.099114	0.999951	0.002588	-0.002382	0.009193	
31879	    0	25.571871	-6.742364	-9.841455	1.082824	-0.106051	1.950114	0.256409	-0.064392	-0.098633	0.999937	0.005414	-0.000530	0.009750	
31880	    0	27.211957	-2.471124	-6.256617	1.685008	0.464836	2.236060	0.272223	-0.021136	-0.063387	0.999899	0.008425	0.002324	0.011180	
31881	    0	24.439538	0.850012	-1.847559	2.243340	0.662263	2.461361	0.244202	0.011719	-0.019165	0.999855	0.011216	0.003311	0.012306	
31882	    0	19.825422	1.717214	0.437851	2.440199	0.501468	2.531566	0.198027	0.019629	0.004111	0.999842	0.012200	0.002507	0.012657	
31883	    0	16.971356	2.175259	0.579136	2.333183	0.309959	2.499512	0.169434	0.023804	0.005798	0.999852	0.011665	0.001550	0.012497	
31884	    0	16.108451	3.140958	0.788154	2.302848	0.197229	2.383151	0.160704	0.033234	0.008099	0.999862	0.011514	0.000986	0.011915	
31885	    0	16.242018	3.773537	1.222224	2.118195	0.074771	2.251524	0.161987	0.039429	0.012573	0.999880	0.010591	0.000374	0.011257	
31886	    0	16.385560	4.106987	1.030442	1.750810	-0.051309	2.117987	0.163406	0.042709	0.010715	0.999905	0.008754	-0.000257	0.010590	
31887	    0	15.518749	4.529396	0.913033	1.574749	-0.113490	1.979881	0.154724	0.046753	0.009583	0.999919	0.007874	-0.000567	0.009899	
31888	    0	14.154749	4.404359	0.801088	1.553001	-0.206189	1.825186	0.141129	0.045268	0.008505	0.999928	0.007765	-0.001031	0.009126	
31889	    0	12.932396	4.378127	0.104896	1.445799	-0.335509	1.593812	0.128967	0.044800	0.001587	0.999940	0.007229	-0.001678	0.007969	
31890	    0	11.878565	5.247741	-1.035555	1.261921	-0.494774	1.357290	0.118450	0.053345	-0.009727	0.999953	0.006310	-0.002474	0.006786	
31891	    0	11.052090	5.929986	-1.418464	1.200882	-0.610932	1.115432	0.110229	0.059998	-0.013489	0.999961	0.006004	-0.003055	0.005577	
31892	    0	10.077278	6.339748	-2.401504	0.953302	-0.693328	0.928888	0.100558	0.063977	-0.023362	0.999971	0.004766	-0.003467	0.004644	
31893	    0	9.172338	7.281287	-2.947170	0.579837	-0.718502	0.753026	0.091553	0.073242	-0.028931	0.999982	0.002899	-0.003592	0.003765	
31894	    0	8.349814	7.552755	-2.717367	0.494006	-0.746540	0.542071	0.083393	0.075820	-0.026675	0.999986	0.002470	-0.003733	0.002710	
31895	    0	6.901672	7.922095	-3.161655	0.295259	-0.723078	0.404359	0.068970	0.079407	-0.031250	0.999990	0.001476	-0.003615	0.002022	
31896	    0	5.442473	8.607811	-3.518205	-0.278855	-0.620080	0.269700	0.054418	0.086102	-0.035133	0.999992	-0.001394	-0.003100	0.001348	
31897	    0	4.281629	9.135273	-2.740939	-0.897984	-0.510218	0.087738	0.042847	0.091248	-0.027710	0.999986	-0.004490	-0.002551	0.000439	
31898	    0	3.200080	8.904364	-1.304199	-1.140983	-0.529102	-0.031662	0.032050	0.088963	-0.013465	0.999980	-0.005705	-0.002645	-0.000158	
31899	    0	2.356445	6.845087	-1.341526	-0.980383	-0.665096	-0.210573	0.023682	0.068359	-0.013672	0.999982	-0.004902	-0.003325	-0.001053	
31900	    0	1.763812	4.038629	-2.535266	-0.670627	-0.740246	-0.395205	0.017812	0.040266	-0.025422	0.999985	-0.003353	-0.003701	-0.001976	
31901	    0	1.485258	1.881557	-3.061017	-0.243951	-0.727847	-0.540926	0.015015	0.018738	-0.030579	0.999989	-0.001220	-0.003639	-0.002705	
31902	    0	1.993457	-0.019688	-2.518086	0.018501	-0.697138	-0.629618	0.020021	-0.000257	-0.025111	0.999989	0.000093	-0.003486	-0.003148	
31903	    0	3.177786	-1.980419	-2.117728	0.132180	-0.838475	-0.674442	0.031799	-0.019897	-0.021057	0.999985	0.000661	-0.004192	-0.003372	
31904	    0	4.966066	-3.381413	-3.534880	-0.150300	-1.136216	-0.692945	0.049743	-0.034013	-0.035041	0.999977	-0.000751	-0.005681	-0.003465	
31905	    0	6.298070	-3.101443	-3.918375	-0.547034	-1.467722	-0.603492	0.063171	-0.031311	-0.038635	0.999965	-0.002735	-0.007339	-0.003017	
31906	    0	7.242867	-2.193469	-3.417895	-0.956932	-1.632144	-0.477417	0.072651	-0.022269	-0.033481	0.999952	-0.004785	-0.008161	-0.002387	
31907	    0	8.083718	-2.216076	-2.419741	-0.921454	-1.623559	-0.321202	0.080994	-0.022400	-0.023438	0.999954	-0.004607	-0.008118	-0.001606	
31908	    0	8.827645	-5.225061	-1.589156	-0.207331	-1.385891	-0.258066	0.088316	-0.052381	-0.015225	0.999974	-0.001037	-0.006929	-0.001290	
31909	    0	9.036019	-8.284341	-0.588687	0.720410	-0.857549	-0.275423	0.090271	-0.082947	-0.005798	0.999983	0.003602	-0.004288	-0.001377	
31910	    0	8.684576	-9.115932	-0.130731	1.495567	-0.310329	-0.276187	0.086722	-0.091267	-0.001855	0.999969	0.007478	-0.001552	-0.001381	
31911	    0	7.926839	-7.831286	0.154704	1.943238	0.133707	-0.271611	0.079163	-0.078430	0.000732	0.999951	0.009716	0.000669	-0.001358	
31912	    0	7.350053	-5.726724	0.772952	1.848439	0.337606	-0.218776	0.073450	-0.057415	0.007075	0.999955	0.009242	0.001688	-0.001094	
31913	    0	6.750973	-3.150689	1.419945	1.149184	0.121308	-0.084687	0.067505	-0.031616	0.013977	0.999983	0.005746	0.000607	-0.000423	
31914	    0	6.067541	0.021899	2.579921	0.039101	-0.300408	0.039864	0.060637	0.000226	0.025890	0.999998	0.000196	-0.001502	0.000199	
31915	    0	5.115096	2.370437	3.864781	-0.969703	-0.882537	0.131989	0.050964	0.023926	0.038757	0.999978	-0.004848	-0.004413	0.000660	
31916	    0	3.835630	2.838667	1.658166	-1.687090	-1.689188	0.041200	0.038210	0.028535	0.016665	0.999928	-0.008435	-0.008446	0.000206	
31917	    0	3.606636	4.749629	-4.802608	-2.201900	-1.130515	-0.160984	0.036377	0.046936	-0.048340	0.999923	-0.011009	-0.005652	-0.000805	
31918	    0	3.002118	8.020665	-4.903676	-1.576062	-0.650986	-0.319676	0.030310	0.079769	-0.049568	0.999962	-0.007880	-0.003255	-0.001598	
31919	    0	6.948523	3.072240	-1.697553	-0.109863	-0.421715	-0.386811	0.069580	0.030579	-0.016846	0.999995	-0.000549	-0.002109	-0.001934	
31920	    0	17.728028	-9.541730	8.445266	3.764191	-0.222220	-0.641480	0.176877	-0.097554	0.082827	0.999817	0.018820	-0.001111	-0.003207	
31921	    0	27.098887	-42.613958	-37.459206	2.269275	-2.286633	-0.669891	0.273865	-0.422791	-0.376282	0.999865	0.011346	-0.011433	-0.003349	
31922	    0	29.982553	-21.349835	-28.882969	-0.380901	1.473060	-0.317005	0.297350	-0.214523	-0.290618	0.999969	-0.001904	0.007365	-0.001585	
31923	    0	15.235757	10.763009	9.712606	2.156133	1.609279	-0.340281	0.153320	0.106323	0.097046	0.999907	0.010780	0.008046	-0.001701	
31924	    0	6.747275	25.194446	8.680534	-0.017738	-0.075150	0.406456	0.066928	0.252089	0.086808	0.999997	-0.000089	-0.000376	0.002032	
31925	    0	6.718075	30.847870	-3.452710	-0.087548	-0.892642	0.205994	0.067017	0.308533	-0.034363	0.999989	-0.000438	-0.004463	0.001030	
31926	    0	8.310135	17.098855	-12.196107	-1.938663	-0.195697	-0.587474	0.083721	0.169551	-0.123528	0.999948	-0.009693	-0.000978	-0.002937	
31927	    0	7.539680	11.913685	-6.523019	-2.589502	0.189406	-1.107062	0.075989	0.117859	-0.066833	0.999900	-0.012947	0.000947	-0.005535	
31928	    0	6.965230	10.193887	-7.387048	-2.471815	-0.002289	-1.350829	0.070335	0.100542	-0.075118	0.999900	-0.012359	-0.000011	-0.006754	
31929	    0	10.553164	7.528719	-10.040150	-1.983707	0.116161	-1.969974	0.106201	0.073242	-0.101196	0.999902	-0.009918	0.000581	-0.009850	
31930	    0	16.135876	4.858374	-10.232559	-1.735941	0.208481	-2.373781	0.161806	0.045774	-0.102900	0.999891	-0.008679	0.001042	-0.011868	
31931	    0	20.470114	3.104674	-8.631789	-1.584677	0.178724	-2.289656	0.204956	0.028015	-0.086731	0.999902	-0.007923	0.000894	-0.011448	
31932	    0	21.618908	-1.052287	-6.813461	-1.411288	0.117115	-2.206484	0.216012	-0.013388	-0.068173	0.999913	-0.007056	0.000586	-0.011032	
31933	    0	20.459922	-4.607184	-4.766690	-0.972008	0.168804	-2.173666	0.204041	-0.048523	-0.047607	0.999928	-0.004860	0.000844	-0.010868	
31934	    0	18.831447	-4.574232	-2.351465	-0.781458	0.231748	-2.185108	0.187772	-0.047888	-0.023548	0.999931	-0.003907	0.001159	-0.010925	
31935	    0	16.591609	-2.167300	-0.550939	-0.783367	0.309761	-2.249963	0.165649	-0.023560	-0.005676	0.999928	-0.003917	0.001549	-0.011250	
31936	    0	14.687984	-1.232784	0.853246	-0.903152	0.361642	-2.216775	0.146747	-0.013917	0.008327	0.999927	-0.004516	0.001808	-0.011084	
31937	    0	13.130066	-0.943900	2.037932	-1.128225	0.357828	-2.159936	0.131226	-0.010742	0.020203	0.999924	-0.005641	0.001789	-0.010799	
31938	    0	12.146246	-1.469093	2.989924	-1.320111	0.358782	-2.124080	0.121352	-0.015783	0.029783	0.999920	-0.006600	0.001794	-0.010620	
31939	    0	12.196286	-2.987905	2.853574	-1.657916	0.368701	-2.038634	0.121704	-0.030884	0.028564	0.999911	-0.008289	0.001843	-0.010193	
31940	    0	12.942531	-3.495194	1.669179	-1.921333	0.419249	-1.940789	0.129114	-0.036045	0.016764	0.999904	-0.009606	0.002096	-0.009704	
31941	    0	13.075466	-4.407578	1.149207	-1.989809	0.522821	-1.847135	0.130371	-0.045166	0.011597	0.999904	-0.009949	0.002614	-0.009235	
31942	    0	11.969367	-7.465079	1.288647	-2.173115	0.546474	-1.735745	0.119077	-0.075542	0.013378	0.999899	-0.010865	0.002732	-0.008678	
31943	    0	9.671602	-10.647661	1.018594	-2.421658	0.519771	-1.605283	0.095886	-0.107117	0.011230	0.999890	-0.012108	0.002599	-0.008026	
31944	    0	6.590538	-12.354018	0.489145	-2.618888	0.483912	-1.378493	0.065066	-0.123914	0.006354	0.999887	-0.013094	0.002419	-0.006892	
31945	    0	4.426436	-12.337257	-0.120923	-2.696323	0.409904	-1.010167	0.043640	-0.123596	0.000366	0.999894	-0.013481	0.002049	-0.005051	
31946	    0	4.004472	-11.902139	-0.785268	-2.443570	0.419056	-0.590150	0.039679	-0.119224	-0.006480	0.999918	-0.012218	0.002095	-0.002951	
31947	    0	4.174589	-12.055642	-1.421142	-1.792171	0.550278	-0.238041	0.041565	-0.120728	-0.013245	0.999955	-0.008961	0.002751	-0.001190	
31948	    0	3.895104	-12.520762	-2.459310	-0.651171	0.671198	0.014877	0.038878	-0.125284	-0.024316	0.999989	-0.003256	0.003356	0.000074	
31949	    0	3.997611	-12.444223	-2.318792	0.562479	0.719455	0.237275	0.040039	-0.124329	-0.023682	0.999989	0.002812	0.003597	0.001186	
31950	    0	4.199674	-10.651074	-0.961987	1.151476	0.749022	0.423054	0.042184	-0.106363	-0.010390	0.999973	0.005757	0.003745	0.002115	
31951	    0	5.146166	-7.054729	0.765670	1.059160	0.788123	0.585943	0.051697	-0.070435	0.007080	0.999973	0.005296	0.003941	0.002930	
31952	    0	5.520242	-3.028769	2.012518	0.659184	0.818449	0.736814	0.055395	-0.030149	0.019799	0.999979	0.003296	0.004092	0.003684	
31953	    0	5.822167	-0.741430	2.332680	0.321200	0.836378	0.855261	0.058350	-0.007202	0.023071	0.999980	0.001606	0.004182	0.004276	
31954	    0	6.210613	-0.325959	1.892348	0.092889	0.853544	0.938994	0.062201	-0.002976	0.018657	0.999979	0.000464	0.004268	0.004695	
31955	    0	6.721617	-0.992717	1.340732	-0.045586	0.852973	1.015480	0.067322	-0.009583	0.013123	0.999977	-0.000228	0.004265	0.005077	
31956	    0	7.312178	-1.847245	0.744226	-0.174905	0.848014	1.047715	0.073248	-0.018083	0.007148	0.999976	-0.000875	0.004240	0.005239	
31957	    0	7.707773	-2.067975	0.567749	-0.263026	0.863654	1.059731	0.077209	-0.020264	0.005371	0.999975	-0.001315	0.004318	0.005299	
31958	    0	8.342885	-1.784084	0.816495	-0.325778	0.896461	1.057252	0.083557	-0.017386	0.007819	0.999974	-0.001629	0.004482	0.005286	
31959	    0	8.772460	-1.161494	0.959149	-0.426296	0.909432	1.108561	0.087830	-0.011108	0.009216	0.999971	-0.002131	0.004547	0.005543	
31960	    0	8.937837	-0.773982	0.824310	-0.555998	0.891504	1.180470	0.089458	-0.007190	0.007865	0.999969	-0.002780	0.004457	0.005902	
31961	    0	9.166510	-0.901909	0.407394	-0.678261	0.828753	1.271835	0.091736	-0.008423	0.003723	0.999965	-0.003391	0.004144	0.006359	
31962	    0	9.216006	-1.412606	-0.550139	-0.729760	0.742349	1.352899	0.092232	-0.013523	-0.005794	0.999963	-0.003649	0.003712	0.006764	
31963	    0	9.492934	-2.210885	-2.105993	-0.659760	0.530249	1.461809	0.095032	-0.021484	-0.021240	0.999964	-0.003299	0.002651	0.007309	
31964	    0	10.708847	-3.988708	-4.093646	-0.478368	0.076104	1.568430	0.107382	-0.039144	-0.040883	0.999966	-0.002392	0.000381	0.007842	
31965	    0	13.751513	-6.766964	-6.852848	-0.083734	-0.381474	1.607532	0.138184	-0.066589	-0.068237	0.999966	-0.000419	-0.001907	0.008038	
31966	    0	17.989490	-9.152936	-9.159346	0.393109	-0.541121	1.558513	0.180847	-0.089943	-0.091283	0.999964	0.001966	-0.002706	0.007792	
31967	    0	22.148855	-7.863304	-8.866974	0.996605	-0.278477	1.599145	0.222229	-0.076416	-0.088745	0.999954	0.004983	-0.001392	0.007996	
31968	    0	23.975315	-3.960358	-5.943006	1.639980	0.128749	1.835870	0.240062	-0.036911	-0.059895	0.999924	0.008200	0.000644	0.009179	
31969	    0	22.400309	-0.463828	-2.320041	2.160726	0.292408	2.062303	0.223999	-0.002075	-0.023560	0.999887	0.010803	0.001462	0.010311	
31970	    0	19.010561	0.988183	0.044825	2.389250	0.153739	2.192784	0.189982	0.011960	0.000437	0.999867	0.011946	0.000769	0.010963	
31971	    0	16.791542	1.601539	0.405789	2.261638	-0.023652	2.210328	0.167725	0.017822	0.004272	0.999874	0.011308	-0.000118	0.011051	
31972	    0	16.009464	2.693037	0.353368	2.035597	-0.119595	2.155383	0.159790	0.028615	0.003915	0.999889	0.010178	-0.000598	0.010777	
31973	    0	15.900589	3.457324	0.812351	1.848852	-0.193030	2.063055	0.158630	0.036133	0.008606	0.999903	0.009244	-0.000965	0.010315	
31974	    0	15.816144	3.531857	0.924513	1.555103	-0.255782	1.967291	0.157792	0.036798	0.009729	0.999920	0.007775	-0.001279	0.009836	
31975	    0	15.414834	3.401443	0.788997	1.340515	-0.308807	1.872296	0.153809	0.035400	0.008362	0.999932	0.006702	-0.001544	0.009361	
31976	    0	14.537925	3.392289	0.851954	1.339750	-0.359543	1.754607	0.145059	0.035137	0.009013	0.999937	0.006699	-0.001798	0.008773	
31977	    0	13.633400	3.298640	0.521183	1.390103	-0.427827	1.630434	0.136047	0.034058	0.005737	0.999940	0.006950	-0.002139	0.008152	
31978	    0	12.659349	3.337817	-0.453640	1.447896	-0.519762	1.464681	0.126355	0.034334	-0.003962	0.999943	0.007239	-0.002599	0.007323	
31979	    0	11.547689	4.425271	-1.603690	1.372741	-0.604258	1.292441	0.115234	0.045105	-0.015381	0.999950	0.006864	-0.003021	0.006462	
31980	    0	10.442656	5.350109	-1.207521	1.435684	-0.685512	1.134128	0.104160	0.054175	-0.011331	0.999951	0.007178	-0.003428	0.005671	
31981	    0	9.570396	5.214539	-1.908960	1.345272	-0.762950	0.970472	0.095520	0.052734	-0.018372	0.999958	0.006726	-0.003815	0.004852	
31982	    0	8.529742	6.141645	-3.052226	0.832565	-0.782210	0.823028	0.085161	0.061893	-0.029932	0.999975	0.004163	-0.003911	0.004115	
31983	    0	7.573640	7.100340	-2.978255	0.744061	-0.744634	0.627140	0.075623	0.071350	-0.029236	0.999981	0.003720	-0.003723	0.003136	
31984	    0	6.405242	7.752196	-2.666839	0.786213	-0.690273	0.476458	0.063958	0.077778	-0.026142	0.999983	0.003931	-0.003451	0.002382	
31985	    0	5.054197	8.011132	-2.657510	0.459291	-0.577356	0.354005	0.050476	0.080261	-0.026245	0.999991	0.002296	-0.002887	0.001770	
31986	    0	3.961247	8.219126	-2.334307	-0.162888	-0.497056	0.202942	0.039587	0.082212	-0.023312	0.999995	-0.000814	-0.002485	0.001015	
31987	    0	3.250301	8.138659	-1.155102	-0.449181	-0.467683	-0.003815	0.032532	0.081360	-0.011658	0.999994	-0.002246	-0.002338	-0.000019	
31988	    0	2.620820	7.353972	-0.471994	-0.415994	-0.570680	-0.156784	0.026279	0.073509	-0.004798	0.999993	-0.002080	-0.002853	-0.000784	
31989	    0	2.258356	5.033515	-0.934531	-0.064850	-0.743677	-0.345613	0.022705	0.050293	-0.009277	0.999991	-0.000324	-0.003718	-0.001728	
31990	    0	1.836148	2.707120	-1.861090	0.303079	-0.836376	-0.502779	0.018507	0.027053	-0.018493	0.999987	0.001515	-0.004182	-0.002514	
31991	    0	1.912104	0.428159	-2.127239	0.479319	-0.864415	-0.624851	0.019226	0.004272	-0.021179	0.999983	0.002397	-0.004322	-0.003124	
31992	    0	2.733398	-2.122345	-2.044380	0.288584	-0.997550	-0.693326	0.027362	-0.021289	-0.020338	0.999980	0.001443	-0.004988	-0.003467	
31993	    0	4.161706	-3.180946	-2.097444	-0.206758	-1.203738	-0.727850	0.041626	-0.031982	-0.020691	0.999974	-0.001034	-0.006019	-0.003639	
31994	    0	5.782730	-3.137000	-1.391902	-0.350765	-1.405922	-0.699814	0.057813	-0.031596	-0.013457	0.999968	-0.001754	-0.007030	-0.003499	
31995	    0	6.705838	-2.231480	-0.357215	-0.501258	-1.566907	-0.594337	0.067017	-0.022522	-0.002991	0.999961	-0.002506	-0.007834	-0.002972	
31996	    0	7.329072	-2.805897	-0.056261	-0.436789	-1.680587	-0.371747	0.073239	-0.028195	0.000114	0.999960	-0.002184	-0.008403	-0.001859	
31997	    0	8.582364	-6.412580	-0.688812	-0.195314	-1.540200	-0.179293	0.085815	-0.064209	-0.006165	0.999969	-0.000977	-0.007701	-0.000896	
31998	    0	9.877467	-9.541714	-0.770928	0.386049	-1.031118	-0.102425	0.098764	-0.095453	-0.007384	0.999984	0.001930	-0.005156	-0.000512	
31999	    0	10.072537	-10.131151	-0.369526	0.994306	-0.460055	-0.051880	0.100708	-0.101318	-0.003967	0.999985	0.004972	-0.002300	-0.000259	
32000	    0	9.594115	-8.723418	-0.569243	1.290140	-0.055123	0.045204	0.095963	-0.087173	-0.006228	0.999979	0.006451	-0.000276	0.000226	
32001	    0	8.785299	-6.854336	-0.987549	1.285562	0.137521	0.130464	0.087891	-0.068420	-0.010376	0.999978	0.006428	0.000688	0.000652	
32002	    0	7.534113	-4.441111	-0.569502	0.578881	0.095558	0.232315	0.075390	-0.044307	-0.005859	0.999994	0.002894	0.000478	0.001162	
32003	    0	6.652037	-1.378253	2.121582	-0.526238	-0.148773	0.347901	0.066528	-0.013611	0.021301	0.999994	-0.002631	-0.000744	0.001740	
32004	    0	5.360118	-0.797912	6.609697	-1.773297	-1.160454	0.528537	0.053236	-0.007250	0.066473	0.999940	-0.008866	-0.005802	0.002643	
32005	    0	8.442875	-0.981766	-0.433297	-2.289459	-1.324502	0.373088	0.084473	-0.009705	-0.003662	0.999910	-0.011447	-0.006622	0.001865	
32006	    0	12.976594	-6.875773	8.461470	-0.147057	-1.005370	0.657849	0.129563	-0.068269	0.085317	0.999981	-0.000735	-0.005027	0.003289	
32007	    0	20.111533	-23.502981	-33.542365	2.196595	-2.300932	0.140387	0.205139	-0.231201	-0.335632	0.999873	0.010983	-0.011504	0.000702	
32008	    0	23.265202	-12.533569	-22.801574	0.964556	1.165020	0.405697	0.231568	-0.123759	-0.229966	0.999969	0.004823	0.005825	0.002028	
32009	    0	17.883900	24.381151	8.034995	1.883941	1.770069	-0.009156	0.179565	0.243042	0.081055	0.999916	0.009419	0.008850	-0.000046	
32010	    0	7.964065	35.730062	4.321838	-0.250817	-0.372506	-0.263596	0.080031	0.357249	0.042919	0.999996	-0.001254	-0.001863	-0.001318	
32011	    0	3.076109	32.464635	-10.528085	-1.052675	-0.721747	-0.704962	0.032288	0.323975	-0.106873	0.999973	-0.005263	-0.003609	-0.003525	
32012	    0	4.783627	17.688028	-10.821894	-1.487950	-0.189975	-1.476697	0.049240	0.175709	-0.109483	0.999944	-0.007440	-0.000950	-0.007383	
32013	    0	8.263774	10.932005	-10.419371	-2.275740	-0.328839	-1.834936	0.083801	0.107361	-0.105286	0.999891	-0.011378	-0.001644	-0.009174	
32014	    0	11.475924	9.051229	-12.131935	-1.909706	-0.129704	-2.215274	0.115823	0.088070	-0.122093	0.999892	-0.009548	-0.000648	-0.011076	
32015	    0	15.260660	4.522298	-11.945176	-1.113169	-0.004387	-2.714636	0.153198	0.042480	-0.119690	0.999892	-0.005566	-0.000022	-0.013573	
32016	    0	17.593100	0.583938	-9.728312	-0.866922	-0.070956	-2.826412	0.176021	0.002931	-0.097238	0.999890	-0.004334	-0.000355	-0.014132	
32017	    0	19.272881	-0.027801	-9.988284	-0.672741	-0.339518	-2.529218	0.192871	-0.003052	-0.099548	0.999912	-0.003364	-0.001698	-0.012646	
32018	    0	19.743749	1.068051	-9.202281	-0.133136	-0.270469	-2.465502	0.197673	0.008183	-0.091762	0.999923	-0.000666	-0.001352	-0.012327	
32019	    0	19.172984	-0.145411	-4.877743	-0.125697	-0.072481	-2.398739	0.191711	-0.003784	-0.048706	0.999928	-0.000628	-0.000362	-0.011993	
32020	    0	18.081326	-2.161476	-2.396713	-0.720805	0.092699	-2.305850	0.180536	-0.023784	-0.023968	0.999927	-0.003604	0.000463	-0.011529	
32021	    0	16.497379	-0.732914	-1.884350	-1.063374	0.223547	-2.240811	0.164856	-0.009277	-0.018982	0.999922	-0.005317	0.001118	-0.011204	
32022	    0	15.649611	-0.318872	0.293721	-1.296270	0.313577	-2.192176	0.156453	-0.004886	0.002720	0.999917	-0.006481	0.001568	-0.010961	
32023	    0	15.443797	-1.453285	1.671233	-1.688248	0.313578	-2.150794	0.154297	-0.016052	0.016602	0.999905	-0.008441	0.001568	-0.010754	
32024	    0	15.023887	-3.198647	2.667403	-2.019190	0.354970	-2.037119	0.149952	-0.033245	0.026739	0.999895	-0.010096	0.001775	-0.010185	
32025	    0	14.781671	-4.995226	2.868376	-2.288142	0.451105	-1.902080	0.147400	-0.051025	0.028931	0.999887	-0.011440	0.002255	-0.009510	
32026	    0	14.457704	-5.865738	2.994346	-2.458097	0.561355	-1.756737	0.144141	-0.059554	0.030267	0.999882	-0.012290	0.002807	-0.008783	
32027	    0	13.596326	-6.859542	2.367225	-2.738309	0.660925	-1.576301	0.135498	-0.069336	0.024170	0.999869	-0.013691	0.003304	-0.007881	
32028	    0	12.178344	-8.609675	1.312555	-2.914753	0.696977	-1.421994	0.121216	-0.086761	0.013964	0.999862	-0.014573	0.003485	-0.007110	
32029	    0	9.681028	-10.906672	0.303669	-2.962628	0.673134	-1.266537	0.096130	-0.109619	0.004333	0.999864	-0.014812	0.003366	-0.006332	
32030	    0	6.539965	-12.744090	-0.296088	-3.019084	0.614956	-1.039169	0.064731	-0.127806	-0.001233	0.999867	-0.015095	0.003075	-0.005196	
32031	    0	4.303405	-13.027777	-0.964885	-2.877916	0.477809	-0.724057	0.042542	-0.130554	-0.007874	0.999887	-0.014389	0.002389	-0.003620	
32032	    0	3.851226	-12.377283	-1.507746	-2.435176	0.435268	-0.375185	0.038249	-0.124017	-0.013652	0.999921	-0.012176	0.002176	-0.001876	
32033	    0	4.481060	-11.554981	-1.848248	-1.592274	0.619705	-0.133516	0.044678	-0.115723	-0.017700	0.999963	-0.007961	0.003098	-0.000668	
32034	    0	4.925992	-10.537725	-2.164487	-0.491907	0.797084	-0.028038	0.049159	-0.105437	-0.021582	0.999989	-0.002460	0.003985	-0.000140	
32035	    0	4.799195	-9.512670	-2.463271	0.665286	0.824169	0.049591	0.047913	-0.095032	-0.025146	0.999986	0.003326	0.004121	0.000248	
32036	    0	4.583231	-8.635510	-1.708683	1.346411	0.791939	0.140192	0.045823	-0.086205	-0.017849	0.999969	0.006732	0.003960	0.000701	
32037	    0	4.625789	-6.846942	-0.630709	1.394096	0.752266	0.272372	0.046326	-0.068359	-0.006958	0.999968	0.006970	0.003761	0.001362	
32038	    0	4.786155	-4.105035	0.427464	1.174174	0.719840	0.402073	0.047958	-0.040977	0.003861	0.999974	0.005871	0.003599	0.002010	
32039	    0	5.123848	-1.992010	1.132225	0.883490	0.729566	0.518039	0.051331	-0.019836	0.011047	0.999980	0.004417	0.003648	0.002590	
32040	    0	4.826572	-0.935774	1.675367	0.584987	0.741962	0.597003	0.048355	-0.009262	0.016547	0.999984	0.002925	0.003710	0.002985	
32041	    0	5.228447	-0.674227	1.722659	0.374605	0.708202	0.697330	0.052368	-0.006592	0.017029	0.999986	0.001873	0.003541	0.003487	
32042	    0	5.851179	-0.894903	1.084623	0.191880	0.678256	0.776867	0.058582	-0.008732	0.010639	0.999986	0.000959	0.003391	0.003884	
32043	    0	6.762148	-1.303881	0.383764	-0.018120	0.702671	0.833897	0.067688	-0.012756	0.003601	0.999985	-0.000091	0.003513	0.004169	
32044	    0	7.790747	-1.331758	-0.014764	-0.125123	0.748257	0.865560	0.077963	-0.012980	-0.000431	0.999983	-0.000626	0.003741	0.004328	
32045	    0	8.318614	-1.271468	0.227991	-0.136376	0.805669	0.923163	0.083252	-0.012329	0.001953	0.999981	-0.000682	0.004028	0.004616	
32046	    0	8.666225	-1.217276	0.780184	-0.155831	0.812727	0.991637	0.086752	-0.011737	0.007459	0.999979	-0.000779	0.004064	0.004958	
32047	    0	8.821610	-1.129666	1.107144	-0.267794	0.779158	1.084908	0.088318	-0.010803	0.010742	0.999976	-0.001339	0.003896	0.005424	
32048	    0	8.910800	-1.005911	1.384650	-0.441937	0.713355	1.210796	0.089215	-0.009489	0.013550	0.999972	-0.002210	0.003567	0.006054	
32049	    0	8.868908	-1.271104	1.087192	-0.575072	0.646980	1.341262	0.088806	-0.012085	0.010620	0.999968	-0.002875	0.003235	0.006706	
32050	    0	8.813402	-1.861820	-0.649318	-0.657471	0.536544	1.471156	0.088250	-0.017991	-0.006670	0.999964	-0.003287	0.002683	0.007356	
32051	    0	9.323887	-3.018768	-2.758746	-0.639351	0.204661	1.573963	0.093445	-0.029541	-0.027588	0.999963	-0.003197	0.001023	0.007870	
32052	    0	11.773812	-5.218990	-5.818191	-0.410275	-0.224688	1.604099	0.118217	-0.051362	-0.057943	0.999965	-0.002051	-0.001123	0.008020	
32053	    0	15.885259	-7.868635	-8.444909	0.009155	-0.510984	1.541918	0.159668	-0.077454	-0.084045	0.999967	0.000046	-0.002555	0.007710	
32054	    0	20.935639	-8.353126	-9.308461	0.549513	-0.362973	1.508539	0.210146	-0.081693	-0.092930	0.999966	0.002748	-0.001815	0.007543	
32055	    0	24.019161	-5.306033	-6.812938	1.217864	0.083162	1.701386	0.240601	-0.050598	-0.068542	0.999945	0.006089	0.000416	0.008507	
32056	    0	24.169823	-1.572288	-3.049362	1.741272	0.352870	2.047220	0.241786	-0.012980	-0.031041	0.999907	0.008706	0.001764	0.010236	
32057	    0	21.205427	1.079975	-0.092097	2.030260	0.286304	2.239313	0.211914	0.013184	-0.001099	0.999885	0.010151	0.001431	0.011196	
32058	    0	18.205764	1.939471	1.101465	1.953962	0.069049	2.286807	0.181825	0.021366	0.011154	0.999887	0.009769	0.000345	0.011434	
32059	    0	16.793860	2.841372	0.950791	1.681764	-0.083163	2.242353	0.167603	0.030212	0.009827	0.999901	0.008409	-0.000416	0.011211	
32060	    0	16.382096	3.555905	0.989406	1.474422	-0.186353	2.141441	0.163419	0.037235	0.010317	0.999914	0.007372	-0.000932	0.010707	
32061	    0	16.330887	3.766119	1.002864	1.281769	-0.271422	2.024890	0.162903	0.039246	0.010498	0.999927	0.006409	-0.001357	0.010124	
32062	    0	15.970049	3.633804	0.898199	1.159311	-0.302512	1.903383	0.159331	0.037802	0.009439	0.999936	0.005796	-0.001513	0.009517	
32063	    0	15.199959	3.518180	0.898532	1.201080	-0.341040	1.728854	0.151672	0.036438	0.009460	0.999943	0.006005	-0.001705	0.008644	
32064	    0	14.256314	3.450410	0.705376	1.258301	-0.396736	1.612502	0.142264	0.035605	0.007558	0.999946	0.006291	-0.001984	0.008062	
32065	    0	13.368826	3.747847	-0.347253	1.202411	-0.469787	1.430534	0.133423	0.038452	-0.002930	0.999953	0.006012	-0.002349	0.007153	
32066	    0	12.116243	4.432949	-1.108467	1.169030	-0.599106	1.256006	0.120913	0.045152	-0.010460	0.999958	0.005845	-0.002995	0.006280	
32067	    0	10.968583	4.758643	-2.005062	1.080335	-0.697144	1.070417	0.109497	0.048279	-0.019409	0.999965	0.005402	-0.003486	0.005352	
32068	    0	9.804734	5.590591	-2.791600	0.880249	-0.752265	0.896653	0.097898	0.056466	-0.027300	0.999972	0.004401	-0.003761	0.004483	
32069	    0	8.712754	6.798937	-2.978528	0.657658	-0.746732	0.768285	0.086975	0.068420	-0.029236	0.999980	0.003288	-0.003734	0.003841	
32070	    0	7.744442	7.208472	-2.811084	0.622562	-0.723270	0.616458	0.077322	0.072410	-0.027606	0.999984	0.003113	-0.003616	0.003082	
32071	    0	6.289877	7.191424	-2.923678	0.454141	-0.647738	0.520327	0.062805	0.072144	-0.028870	0.999989	0.002271	-0.003239	0.002602	
32072	    0	5.241771	6.838448	-2.902919	0.119400	-0.529672	0.399018	0.052358	0.068506	-0.028850	0.999994	0.000597	-0.002648	0.001995	
32073	    0	4.592459	6.458588	-1.854378	0.000954	-0.482941	0.218964	0.045898	0.064636	-0.018433	0.999996	0.000005	-0.002415	0.001095	
32074	    0	3.803168	5.678285	-1.049904	0.048065	-0.570298	0.081444	0.038038	0.056801	-0.010377	0.999995	0.000240	-0.002851	0.000407	
32075	    0	3.318941	4.277055	-1.510180	0.422097	-0.715639	-0.099182	0.033264	0.042786	-0.014893	0.999990	0.002110	-0.003578	-0.000496	
32076	    0	2.673972	2.263358	-2.228948	0.907332	-0.806051	-0.258829	0.026858	0.022699	-0.022079	0.999980	0.004537	-0.004030	-0.001294	
32077	    0	1.887594	0.452514	-2.390986	1.231396	-0.821503	-0.350956	0.018982	0.004639	-0.023804	0.999970	0.006157	-0.004107	-0.001755	
32078	    0	2.028151	-1.555188	-1.933738	1.108562	-0.955972	-0.413136	0.020342	-0.015487	-0.019326	0.999970	0.005543	-0.004780	-0.002066	
32079	    0	3.179755	-2.563650	-2.181836	0.720412	-1.144419	-0.481419	0.031860	-0.025635	-0.021729	0.999973	0.003602	-0.005722	-0.002407	
32080	    0	4.862823	-2.334538	-1.418551	0.527959	-1.271641	-0.479893	0.048661	-0.023425	-0.013938	0.999973	0.002640	-0.006358	-0.002399	
32081	    0	6.243188	-1.372655	-0.588717	0.226786	-1.312267	-0.431827	0.062439	-0.013855	-0.005493	0.999975	0.001134	-0.006561	-0.002159	
32082	    0	7.001007	-0.966265	-0.035246	0.209047	-1.264963	-0.299837	0.069996	-0.009768	0.000080	0.999978	0.001045	-0.006325	-0.001499	
32083	    0	7.584653	-3.044668	0.239035	0.311281	-1.064878	-0.176240	0.075806	-0.030518	0.002747	0.999984	0.001556	-0.005324	-0.000881	
32084	    0	8.070195	-5.322212	0.092556	0.590708	-0.764468	-0.086022	0.080675	-0.053260	0.001077	0.999988	0.002954	-0.003822	-0.000430	
32085	    0	8.492178	-6.240747	0.087170	1.017957	-0.420382	-0.064850	0.084900	-0.062439	0.000732	0.999985	0.005090	-0.002102	-0.000324	
32086	    0	8.151821	-5.715561	-0.166904	1.154143	-0.098229	-0.033379	0.081510	-0.057158	-0.001959	0.999983	0.005771	-0.000491	-0.000167	
32087	    0	7.757615	-4.490810	0.234422	0.998883	0.115204	-0.007629	0.077576	-0.044922	0.002075	0.999987	0.004994	0.000576	-0.000038	
32088	    0	7.310021	-3.449022	0.663705	0.368309	0.114441	0.065994	0.073115	-0.034478	0.006532	0.999997	0.001842	0.000572	0.000330	
32089	    0	6.914276	-1.497369	0.564725	-0.457573	-0.161743	0.196839	0.069153	-0.014893	0.005737	0.999996	-0.002288	-0.000809	0.000984	
32090	    0	6.275173	0.541145	1.069429	-1.091202	-0.589184	0.297739	0.062712	0.005564	0.010849	0.999979	-0.005456	-0.002946	0.001489	
32091	    0	5.004159	1.325671	2.977322	-1.736480	-1.006144	0.379950	0.049866	0.013611	0.029907	0.999948	-0.008682	-0.005031	0.001900	
32092	    0	4.437568	0.621597	-1.132048	-1.904355	-1.880893	0.325022	0.044470	0.006183	-0.010962	0.999908	-0.009521	-0.009404	0.001625	
32093	    0	5.847850	2.566591	-2.824984	-1.902614	-0.795760	-0.022126	0.058594	0.025391	-0.028259	0.999947	-0.009513	-0.003979	-0.000111	
32094	    0	12.601134	-5.491282	8.163467	0.870899	-0.301362	0.310136	0.125974	-0.055073	0.081585	0.999988	0.004354	-0.001507	0.001551	
32095	    0	21.998841	-27.952132	-23.087276	3.215248	-2.460458	-0.354791	0.222351	-0.276184	-0.232605	0.999793	0.016075	-0.012301	-0.001774	
32096	    0	26.427863	-30.210912	-36.380537	0.073815	0.547792	0.566293	0.264134	-0.301227	-0.364640	0.999991	0.000369	0.002739	0.002831	
32097	    0	20.415057	18.803235	2.804962	1.308471	1.954124	0.013733	0.204407	0.187866	0.027283	0.999930	0.006542	0.009770	0.000069	
32098	    0	10.985361	31.090184	9.340258	0.249672	0.397683	-0.100136	0.110195	0.310730	0.093572	0.999996	0.001248	0.001988	-0.000501	
32099	    0	4.949402	33.026422	-3.220537	-0.179291	-0.859645	-0.141144	0.049866	0.330200	-0.032288	0.999990	-0.000896	-0.004298	-0.000706	
32100	    0	3.470344	18.883888	-13.063974	-1.391236	-0.420575	-0.776490	0.035710	0.187787	-0.131874	0.999966	-0.006956	-0.002103	-0.003882	
32101	    0	4.772838	13.006309	-9.075875	-2.196564	-0.059320	-1.377144	0.048645	0.128723	-0.092163	0.999915	-0.010983	-0.000297	-0.006886	
32102	    0	7.323326	11.569331	-9.970930	-2.116079	-0.197989	-1.721627	0.074319	0.113994	-0.100848	0.999906	-0.010580	-0.000990	-0.008608	
32103	    0	12.611447	7.366732	-10.258057	-1.450392	-0.024987	-2.287362	0.126953	0.071472	-0.103088	0.999907	-0.007252	-0.000125	-0.011436	
32104	    0	18.032696	2.248844	-10.428332	-1.309825	0.070575	-2.681832	0.180564	0.019384	-0.104481	0.999888	-0.006549	0.000353	-0.013409	
32105	    0	20.985632	2.757236	-8.849725	-1.078067	-0.069239	-2.494126	0.210205	0.024475	-0.088562	0.999907	-0.005390	-0.000346	-0.012470	
32106	    0	22.018188	1.006634	-7.681903	-0.786229	-0.072863	-2.348197	0.220305	0.007178	-0.076771	0.999923	-0.003931	-0.000364	-0.011741	
32107	    0	20.947903	-1.934769	-5.471587	-0.709360	0.044252	-2.264457	0.209229	-0.021912	-0.054688	0.999929	-0.003547	0.000221	-0.011322	
32108	    0	19.202871	-2.116608	-2.727463	-0.893424	0.152782	-2.227837	0.191755	-0.023425	-0.027320	0.999928	-0.004467	0.000764	-0.011139	
32109	    0	16.599661	-0.518947	-2.207826	-1.203759	0.287636	-2.191220	0.165894	-0.007141	-0.022278	0.999920	-0.006019	0.001438	-0.010956	
32110	    0	15.098883	0.115798	-1.211475	-1.411478	0.392544	-2.173104	0.150965	-0.000569	-0.012411	0.999913	-0.007057	0.001963	-0.010865	
32111	    0	13.955592	-0.213901	0.184334	-1.616527	0.403607	-2.114932	0.139526	-0.003601	0.001587	0.999908	-0.008082	0.002018	-0.010574	
32112	    0	12.929358	-1.517066	1.480970	-1.881280	0.400938	-2.067825	0.129158	-0.016368	0.014701	0.999900	-0.009406	0.002005	-0.010339	
32113	    0	12.661582	-3.570488	1.486976	-2.197920	0.404373	-1.999739	0.126282	-0.036804	0.015015	0.999887	-0.010989	0.002022	-0.009998	
32114	    0	12.954439	-4.734170	1.266330	-2.356050	0.481434	-1.930313	0.129111	-0.048438	0.012918	0.999881	-0.011780	0.002407	-0.009651	
32115	    0	12.916063	-5.711653	1.053724	-2.390955	0.565360	-1.829600	0.128662	-0.058167	0.010864	0.999882	-0.011954	0.002827	-0.009148	
32116	    0	12.109318	-7.253379	0.926707	-2.494147	0.590348	-1.690549	0.120503	-0.073434	0.009823	0.999882	-0.012470	0.002952	-0.008452	
32117	    0	10.479103	-8.857408	0.541148	-2.662004	0.594545	-1.533571	0.104126	-0.089294	0.006287	0.999877	-0.013309	0.002973	-0.007668	
32118	    0	8.038026	-10.412220	-0.085147	-2.759665	0.596643	-1.361140	0.079669	-0.104667	0.000352	0.999877	-0.013798	0.002983	-0.006805	
32119	    0	5.846742	-11.407296	-0.830236	-2.741155	0.558493	-1.130719	0.057800	-0.114502	-0.006897	0.999886	-0.013705	0.002792	-0.005653	
32120	    0	5.006278	-11.709828	-1.135021	-2.467419	0.545709	-0.848032	0.049537	-0.117438	-0.010038	0.999910	-0.012337	0.002728	-0.004240	
32121	    0	5.209528	-11.212369	-1.150620	-1.867708	0.626575	-0.540171	0.051758	-0.112366	-0.010620	0.999948	-0.009338	0.003133	-0.002701	
32122	    0	5.500824	-10.653373	-1.170400	-1.020439	0.733571	-0.347331	0.054781	-0.106688	-0.011361	0.999978	-0.005102	0.003668	-0.001737	
32123	    0	5.263818	-10.058637	-1.169882	-0.144005	0.816348	-0.198365	0.052490	-0.100647	-0.011841	0.999990	-0.000720	0.004082	-0.000992	
32124	    0	4.608292	-9.438539	-0.703671	0.484468	0.810817	-0.059319	0.046025	-0.094381	-0.007452	0.999989	0.002422	0.004054	-0.000297	
32125	    0	4.179097	-8.179990	-0.034421	0.704196	0.771526	0.050354	0.041809	-0.081787	-0.000793	0.999986	0.003521	0.003858	0.000252	
32126	    0	4.302879	-6.351004	0.339152	0.637820	0.703814	0.184441	0.043098	-0.063480	0.003037	0.999988	0.003189	0.003519	0.000922	
32127	    0	4.142000	-4.223527	0.397256	0.490000	0.704196	0.334169	0.041504	-0.042175	0.003723	0.999989	0.002450	0.003521	0.001671	
32128	    0	4.739126	-2.715433	0.588071	0.350381	0.754169	0.485994	0.047479	-0.027049	0.005654	0.999988	0.001752	0.003771	0.002430	
32129	    0	5.167939	-1.595804	0.796609	0.213052	0.764469	0.611880	0.051758	-0.015808	0.007751	0.999987	0.001065	0.003822	0.003059	
32130	    0	5.681861	-1.354341	0.549539	0.065804	0.726894	0.724986	0.056887	-0.013339	0.005284	0.999987	0.000329	0.003634	0.003625	
32131	    0	6.616570	-1.649821	-0.196734	-0.076104	0.713352	0.796513	0.066223	-0.016235	-0.002197	0.999985	-0.000381	0.003567	0.003983	
32132	    0	7.559191	-2.374233	-0.617464	-0.115395	0.727848	0.845914	0.075668	-0.023426	-0.006436	0.999984	-0.000577	0.003639	0.004230	
32133	    0	8.369312	-3.069808	-0.640920	-0.049401	0.745396	0.872045	0.083801	-0.030334	-0.006714	0.999983	-0.000247	0.003727	0.004360	
32134	    0	8.630492	-3.056482	-0.246194	0.016403	0.750355	0.908094	0.086432	-0.030172	-0.002789	0.999982	0.000082	0.003752	0.004540	
32135	    0	9.014087	-2.363453	0.471528	0.049782	0.698094	0.980383	0.090271	-0.023193	0.004395	0.999981	0.000249	0.003490	0.004902	
32136	    0	8.859503	-1.689902	0.914618	0.005341	0.628094	1.056487	0.088711	-0.016431	0.008867	0.999981	0.000027	0.003140	0.005282	
32137	    0	8.951276	-1.322771	0.419612	-0.103760	0.525860	1.184090	0.089600	-0.012695	0.003967	0.999978	-0.000519	0.002629	0.005920	
32138	    0	9.143736	-1.766414	-1.032319	-0.157167	0.332644	1.327334	0.091535	-0.017065	-0.010462	0.999976	-0.000786	0.001663	0.006637	
32139	    0	10.711043	-3.542723	-3.187132	-0.109674	0.015259	1.448072	0.107361	-0.034668	-0.031860	0.999973	-0.000548	0.000076	0.007240	
32140	    0	13.710002	-5.954188	-5.403639	0.159265	-0.212862	1.514259	0.137603	-0.058458	-0.053937	0.999970	0.000796	-0.001064	0.007571	
32141	    0	17.850493	-7.513942	-6.664782	0.520330	-0.212672	1.517503	0.179138	-0.073608	-0.066650	0.999967	0.002602	-0.001063	0.007587	
32142	    0	21.763477	-6.291875	-5.365382	1.046578	0.070001	1.583314	0.218103	-0.060911	-0.054052	0.999954	0.005233	0.000350	0.007916	
32143	    0	23.300322	-2.898991	-2.220144	1.531257	0.356492	1.839492	0.233215	-0.026672	-0.022827	0.999927	0.007656	0.001782	0.009197	
32144	    0	21.641486	0.327949	0.423607	1.704651	0.413908	2.115125	0.216372	0.005534	0.003829	0.999906	0.008523	0.002069	0.010575	
32145	    0	18.656045	2.071904	2.105898	1.652009	0.262460	2.251508	0.186340	0.022644	0.020996	0.999901	0.008260	0.001312	0.011257	
32146	    0	16.904565	2.546475	2.219185	1.381344	0.088122	2.327609	0.168745	0.027276	0.022302	0.999907	0.006907	0.000441	0.011638	
32147	    0	16.463601	3.245166	1.852454	1.047734	-0.045015	2.295746	0.164246	0.034241	0.018738	0.999920	0.005239	-0.000225	0.011478	
32148	    0	16.666879	3.559356	1.472542	0.838490	-0.165752	2.208952	0.166250	0.037369	0.015018	0.999929	0.004192	-0.000829	0.011045	
32149	    0	16.514489	3.107433	0.965335	0.655378	-0.230222	2.102704	0.164795	0.032776	0.009949	0.999938	0.003277	-0.001151	0.010513	
32150	    0	16.258958	2.411966	0.414966	0.582897	-0.280385	2.006949	0.162331	0.025737	0.004451	0.999944	0.002914	-0.001402	0.010035	
32151	    0	15.950033	1.936477	0.261049	0.753798	-0.304228	1.907383	0.159302	0.020874	0.002930	0.999946	0.003769	-0.001521	0.009537	
32152	    0	15.500968	1.866908	0.014223	1.014156	-0.367744	1.806674	0.154832	0.020066	0.000526	0.999944	0.005071	-0.001839	0.009033	
32153	    0	14.679868	2.369169	-0.664074	1.217865	-0.445565	1.681550	0.146606	0.024963	-0.006165	0.999943	0.006089	-0.002228	0.008408	
32154	    0	13.678826	3.363069	-2.000515	1.287675	-0.533877	1.572066	0.136570	0.034831	-0.019419	0.999945	0.006438	-0.002669	0.007860	
32155	    0	12.524110	5.061698	-2.554536	1.273368	-0.603305	1.471736	0.124939	0.051697	-0.024841	0.999948	0.006367	-0.003016	0.007359	
32156	    0	11.355715	5.728970	-2.825710	1.336120	-0.656139	1.346039	0.113258	0.058238	-0.027498	0.999949	0.006680	-0.003281	0.006730	
32157	    0	10.231094	6.199394	-3.625815	1.092543	-0.652131	1.205460	0.102051	0.062805	-0.035583	0.999961	0.005463	-0.003261	0.006027	
32158	    0	8.935585	7.137020	-3.853484	0.788886	-0.574880	1.093111	0.089073	0.072008	-0.037995	0.999972	0.003944	-0.002874	0.005466	
32159	    0	7.729580	7.154061	-3.223067	0.693707	-0.472263	0.959784	0.077026	0.072021	-0.031799	0.999979	0.003469	-0.002361	0.004799	
32160	    0	6.140768	6.950427	-2.675047	0.641636	-0.380900	0.860410	0.061158	0.069853	-0.026410	0.999983	0.003208	-0.001904	0.004302	
32161	    0	4.598542	6.844907	-2.359806	0.438692	-0.310327	0.715640	0.045776	0.068665	-0.023376	0.999990	0.002193	-0.001552	0.003578	
32162	    0	3.472999	6.695321	-1.901822	0.197602	-0.322724	0.472642	0.034602	0.067054	-0.018896	0.999995	0.000988	-0.001614	0.002363	
32163	    0	2.421633	6.599386	-1.302746	0.277710	-0.474358	0.233460	0.024170	0.066040	-0.012878	0.999995	0.001389	-0.002372	0.001167	
32164	    0	1.506342	5.650169	-1.886226	0.527956	-0.669672	0.023270	0.015120	0.056553	-0.018662	0.999990	0.002640	-0.003348	0.000116	
32165	    0	1.047276	4.000507	-2.820622	0.740055	-0.810055	-0.167848	0.010620	0.040100	-0.028015	0.999984	0.003700	-0.004050	-0.000839	
32166	    0	0.903956	2.169276	-3.343959	0.752263	-0.835423	-0.334932	0.009215	0.021803	-0.033319	0.999982	0.003761	-0.004177	-0.001675	
32167	    0	1.609747	0.529725	-2.785374	0.349428	-0.907712	-0.441744	0.016235	0.005310	-0.027771	0.999986	0.001747	-0.004539	-0.002209	
32168	    0	3.362760	-0.189271	-2.233713	-0.126839	-1.097114	-0.569156	0.033744	-0.002003	-0.022151	0.999980	-0.000634	-0.005486	-0.002846	
32169	    0	5.132094	-1.081414	-0.694591	-0.224116	-1.332105	-0.641638	0.051331	-0.010986	-0.006592	0.999971	-0.001121	-0.006660	-0.003208	
32170	    0	6.426577	-2.146596	-0.498644	-0.408178	-1.548023	-0.618751	0.064235	-0.021674	-0.004445	0.999963	-0.002041	-0.007740	-0.003094	
32171	    0	6.831151	-3.009186	-0.109720	-0.398832	-1.607534	-0.527961	0.068237	-0.030273	-0.000488	0.999962	-0.001994	-0.008038	-0.002640	
32172	    0	7.251517	-5.161874	0.158608	-0.156404	-1.502052	-0.380329	0.072402	-0.051755	0.002171	0.999969	-0.000782	-0.007510	-0.001902	
32173	    0	7.963478	-7.753250	0.074823	0.393870	-1.264963	-0.257113	0.079529	-0.077637	0.001099	0.999977	0.001969	-0.006325	-0.001286	
32174	    0	8.822743	-9.181836	-0.309636	1.091585	-0.916107	-0.195886	0.088152	-0.091887	-0.003194	0.999973	0.005458	-0.004580	-0.000979	
32175	    0	9.038241	-8.570032	-1.146397	1.537340	-0.488859	-0.184633	0.090332	-0.085693	-0.011902	0.999967	0.007687	-0.002444	-0.000923	
32176	    0	8.629226	-5.908397	-0.879589	1.677342	0.113489	-0.147058	0.086244	-0.059071	-0.009340	0.999964	0.008387	0.000567	-0.000735	
32177	    0	7.795299	-3.180965	0.216424	1.267252	0.493816	-0.099183	0.077942	-0.031860	0.001770	0.999976	0.006336	0.002469	-0.000496	
32178	    0	6.813619	-0.978715	1.670247	0.191879	0.344086	0.020409	0.068166	-0.009796	0.016576	0.999997	0.000959	0.001720	0.000102	
32179	    0	5.092401	0.365259	3.947636	-1.331150	-0.393680	0.202944	0.050842	0.003967	0.039551	0.999975	-0.006656	-0.001968	0.001015	
32180	    0	4.513240	1.006367	-2.069047	-2.254368	-1.627784	0.227745	0.045288	0.009884	-0.020434	0.999902	-0.011271	-0.008139	0.001139	
32181	    0	3.493929	6.598950	-2.575385	-2.528453	-0.546089	-0.256355	0.035095	0.065613	-0.026489	0.999915	-0.012642	-0.002730	-0.001282	
32182	    0	4.922135	6.732535	-1.290092	-0.972373	-0.747686	-0.311281	0.049375	0.067185	-0.013043	0.999980	-0.004862	-0.003738	-0.001556	
32183	    0	13.568784	-8.260866	9.239492	2.301844	-0.713938	-0.106051	0.135315	-0.083740	0.091919	0.999927	0.011509	-0.003570	-0.000530	
32184	    0	21.402454	-33.352983	-28.333385	3.074670	-2.620117	-0.693561	0.216608	-0.329899	-0.285598	0.999789	0.015372	-0.013100	-0.003468	
32185	    0	26.732452	-20.743362	-30.801794	0.505069	1.048476	0.219728	0.265930	-0.206360	-0.309937	0.999982	0.002525	0.005242	0.001099	
32186	    0	19.925769	19.907697	9.485666	1.212522	1.507785	-0.593386	0.200560	0.197909	0.094550	0.999949	0.006063	0.007539	-0.002967	
32187	    0	9.874878	32.554959	3.980967	0.020599	-0.272179	-0.337220	0.099243	0.325378	0.039978	0.999997	0.000103	-0.001361	-0.001686	
32188	    0	5.946342	28.680250	-7.581869	-0.217057	-0.732234	-0.510218	0.060472	0.286567	-0.075910	0.999989	-0.001085	-0.003661	-0.002551	
32189	    0	7.452683	16.494418	-9.826204	-1.271645	-0.167849	-1.158919	0.075562	0.163879	-0.099243	0.999962	-0.006358	-0.000839	-0.005795	
32190	    0	8.098049	12.265209	-8.050484	-1.946883	-0.174146	-1.601262	0.082026	0.121207	-0.081618	0.999920	-0.009734	-0.000871	-0.008006	
32191	    0	9.048896	11.662382	-8.013637	-1.790478	-0.121311	-1.861624	0.091614	0.115051	-0.081116	0.999916	-0.008952	-0.000607	-0.009308	
32192	    0	13.074207	7.457264	-9.440558	-1.421020	0.072672	-2.361945	0.131571	0.072349	-0.094973	0.999905	-0.007105	0.000363	-0.011809	
32193	    0	16.850892	4.273412	-9.222819	-1.496752	0.067141	-2.589513	0.169006	0.039856	-0.092590	0.999887	-0.007483	0.000336	-0.012947	
32194	    0	19.836673	3.903864	-8.818948	-1.369711	0.044824	-2.421648	0.198795	0.036028	-0.088488	0.999903	-0.006848	0.000224	-0.012108	
32195	    0	21.219983	0.368858	-6.301185	-1.215969	0.197607	-2.309484	0.212158	0.000854	-0.063232	0.999914	-0.006080	0.000988	-0.011547	
32196	    0	20.819219	-4.236617	-3.789923	-1.212724	0.305375	-2.185689	0.207653	-0.044868	-0.037950	0.999920	-0.006063	0.001527	-0.010928	
32197	    0	18.870494	-3.978614	-2.225050	-1.430551	0.341997	-2.108060	0.188232	-0.041931	-0.022278	0.999917	-0.007153	0.001710	-0.010540	
32198	    0	16.281192	-1.677306	-1.532128	-1.535650	0.445760	-2.064382	0.162592	-0.018571	-0.015546	0.999914	-0.007678	0.002229	-0.010322	
32199	    0	14.879392	-1.594408	-0.044047	-1.665356	0.500503	-2.027190	0.148621	-0.017456	-0.000671	0.999910	-0.008327	0.002502	-0.010136	
32200	    0	13.584291	-2.225017	1.077100	-1.788957	0.497070	-1.970733	0.135642	-0.023492	0.010640	0.999907	-0.008945	0.002485	-0.009853	
32201	    0	12.654642	-3.166169	1.645718	-1.927247	0.554866	-1.917328	0.126282	-0.032715	0.016418	0.999904	-0.009636	0.002774	-0.009586	
32202	    0	12.546404	-5.039536	1.773547	-2.074502	0.630972	-1.844278	0.125050	-0.051365	0.017870	0.999898	-0.010372	0.003155	-0.009221	
32203	    0	12.703553	-6.286362	1.002016	-2.148319	0.708032	-1.718197	0.126526	-0.063843	0.010254	0.999899	-0.010741	0.003540	-0.008591	
32204	    0	12.252195	-7.272755	0.679061	-2.144310	0.732255	-1.613860	0.121956	-0.073638	0.007130	0.999903	-0.010721	0.003661	-0.008069	
32205	    0	10.961405	-9.022892	0.429273	-2.049887	0.734732	-1.506086	0.108948	-0.091003	0.004822	0.999912	-0.010249	0.003674	-0.007530	
32206	    0	8.752207	-10.961022	0.225018	-2.025659	0.700397	-1.360930	0.086783	-0.110174	0.003059	0.999919	-0.010128	0.003502	-0.006804	
32207	    0	6.448469	-12.309939	-0.184137	-2.102523	0.586715	-1.134520	0.063782	-0.123474	-0.000732	0.999924	-0.010512	0.002934	-0.005672	
32208	    0	4.833022	-12.873851	-1.142985	-1.991312	0.465593	-0.806062	0.047786	-0.129038	-0.010258	0.999939	-0.009956	0.002328	-0.004030	
32209	    0	4.727625	-12.130878	-1.391101	-1.393905	0.506025	-0.504308	0.046936	-0.121521	-0.013184	0.999969	-0.006969	0.002530	-0.002522	
32210	    0	5.202278	-10.931068	-1.419080	-0.481798	0.610735	-0.274850	0.051829	-0.109416	-0.014086	0.999991	-0.002409	0.003054	-0.001374	
32211	    0	5.266587	-9.753009	-1.457406	0.426484	0.652506	-0.135804	0.052551	-0.097534	-0.014954	0.999991	0.002132	0.003263	-0.000679	
32212	    0	5.010802	-8.737939	-1.074088	1.109703	0.644498	-0.026894	0.050060	-0.087324	-0.011387	0.999979	0.005548	0.003222	-0.000134	
32213	    0	5.257982	-7.560676	-0.206812	1.360525	0.624853	0.106813	0.052612	-0.075562	-0.002747	0.999971	0.006803	0.003124	0.000534	
32214	    0	5.050096	-5.493820	0.356374	1.224718	0.597196	0.266649	0.050584	-0.054891	0.003077	0.999975	0.006124	0.002986	0.001333	
32215	    0	5.477314	-3.339359	0.978067	0.949102	0.590709	0.415042	0.054871	-0.033325	0.009460	0.999982	0.004745	0.002954	0.002075	
32216	    0	5.392696	-1.877723	1.658781	0.700954	0.582126	0.543215	0.054026	-0.018688	0.016365	0.999986	0.003505	0.002911	0.002716	
32217	    0	5.292376	-1.422913	2.289387	0.451090	0.592044	0.684360	0.053040	-0.014099	0.022705	0.999987	0.002255	0.002960	0.003422	
32218	    0	5.783937	-1.376568	2.066415	0.206948	0.573542	0.815586	0.057954	-0.013551	0.020484	0.999987	0.001035	0.002868	0.004078	
32219	    0	6.471270	-1.445863	1.404553	-0.031090	0.595096	0.914769	0.064819	-0.014160	0.013855	0.999985	-0.000155	0.002975	0.004574	
32220	    0	7.357921	-1.466018	0.824056	-0.146485	0.675778	0.992209	0.073678	-0.014289	0.008002	0.999981	-0.000732	0.003379	0.004961	
32221	    0	8.162504	-1.434745	0.761903	-0.146295	0.746923	1.042945	0.081726	-0.013916	0.007324	0.999979	-0.000731	0.003735	0.005215	
32222	    0	8.896759	-1.482026	0.929029	-0.177957	0.801284	1.128206	0.089086	-0.014310	0.008946	0.999975	-0.000890	0.004006	0.005641	
32223	    0	9.282771	-1.394377	1.218759	-0.255587	0.783737	1.209270	0.092957	-0.013367	0.011841	0.999972	-0.001278	0.003919	0.006046	
32224	    0	9.426555	-1.372802	1.451659	-0.394444	0.732239	1.312460	0.094405	-0.013081	0.014197	0.999969	-0.001972	0.003661	0.006562	
32225	    0	9.380644	-1.333321	1.059354	-0.525671	0.665482	1.430528	0.093933	-0.012634	0.010315	0.999965	-0.002628	0.003327	0.007153	
32226	    0	9.540992	-1.534506	-0.215992	-0.621613	0.530441	1.577970	0.095521	-0.014599	-0.002367	0.999960	-0.003108	0.002652	0.007890	
32227	    0	9.961874	-2.391808	-1.904875	-0.601014	0.251773	1.690697	0.099792	-0.023132	-0.019104	0.999958	-0.003005	0.001259	0.008453	
32228	    0	12.220230	-4.479300	-4.405338	-0.388532	-0.120546	1.749444	0.122615	-0.043807	-0.043894	0.999959	-0.001943	-0.000603	0.008747	
32229	    0	15.939372	-6.760662	-6.627995	-0.017357	-0.369268	1.737999	0.160095	-0.066223	-0.065979	0.999960	-0.000087	-0.001846	0.008690	
32230	    0	20.322923	-7.481594	-7.889820	0.363545	-0.315480	1.699279	0.203979	-0.072942	-0.078711	0.999961	0.001818	-0.001577	0.008496	
32231	    0	23.516930	-4.948439	-6.083819	0.878158	0.040627	1.833375	0.235596	-0.047058	-0.061096	0.999948	0.004391	0.000203	0.009167	
32232	    0	23.758759	-1.516465	-3.016944	1.277385	0.322350	2.126940	0.237680	-0.012443	-0.030638	0.999921	0.006387	0.001612	0.010634	
32233	    0	21.218397	1.066562	-0.090729	1.521543	0.326549	2.366717	0.212036	0.013184	-0.001160	0.999899	0.007607	0.001633	0.011833	
32234	    0	18.360840	1.725960	1.338241	1.578769	0.148969	2.476209	0.183387	0.019425	0.013393	0.999891	0.007894	0.000745	0.012381	
32235	    0	16.824594	2.604190	1.284246	1.387070	-0.034906	2.455984	0.167908	0.028015	0.013062	0.999900	0.006935	-0.000175	0.012280	
32236	    0	16.305148	3.437938	1.151298	1.220167	-0.165181	2.355073	0.162622	0.036224	0.011865	0.999911	0.006101	-0.000826	0.011775	
32237	    0	16.014287	3.502620	0.978928	1.075772	-0.261504	2.215633	0.159729	0.036743	0.010193	0.999923	0.005379	-0.001307	0.011078	
32238	    0	15.489664	3.188592	0.620176	0.934049	-0.320251	2.079056	0.154544	0.033463	0.006603	0.999933	0.004670	-0.001601	0.010395	
32239	    0	14.690535	2.906405	0.464212	0.997373	-0.373848	1.931802	0.146606	0.030457	0.005066	0.999939	0.004987	-0.001869	0.009659	
32240	    0	14.120821	2.654372	0.305791	1.114867	-0.434884	1.776348	0.140958	0.027778	0.003517	0.999942	0.005574	-0.002174	0.008882	
32241	    0	13.479430	2.651130	-0.186845	1.208708	-0.536356	1.585416	0.134583	0.027588	-0.001343	0.999947	0.006043	-0.002682	0.007927	
32242	    0	12.774265	3.323841	-1.625316	1.261541	-0.631343	1.408219	0.127554	0.034237	-0.015636	0.999949	0.006308	-0.003157	0.007041	
32243	    0	11.622226	5.430095	-2.563277	1.137559	-0.720797	1.261157	0.115967	0.055176	-0.024902	0.999957	0.005688	-0.003604	0.006306	
32244	    0	10.438244	5.873678	-2.062441	1.364729	-0.795377	1.100557	0.104136	0.059447	-0.019806	0.999953	0.006824	-0.003977	0.005503	
32245	    0	9.222888	6.117978	-3.818570	0.856980	-0.836190	0.924691	0.092102	0.061768	-0.037537	0.999971	0.004285	-0.004181	0.004623	
32246	    0	7.875804	7.105066	-4.161922	0.385859	-0.741009	0.776677	0.078634	0.071436	-0.041190	0.999983	0.001929	-0.003705	0.003883	
32247	    0	6.452529	7.515975	-3.460425	0.433351	-0.621607	0.637057	0.064392	0.075439	-0.034241	0.999988	0.002167	-0.003108	0.003185	
32248	    0	5.262886	7.078591	-2.256382	0.545694	-0.493623	0.514223	0.052502	0.070982	-0.022241	0.999990	0.002728	-0.002468	0.002571	
32249	    0	4.431968	6.532898	-2.195082	0.195313	-0.440026	0.358582	0.044250	0.065430	-0.021790	0.999995	0.000977	-0.002200	0.001793	
32250	    0	3.526899	6.543580	-1.764314	-0.174523	-0.470925	0.177002	0.035253	0.065452	-0.017617	0.999996	-0.000873	-0.002355	0.000885	
32251	    0	2.497960	6.041560	-1.385468	0.133705	-0.650789	0.000000	0.025024	0.060425	-0.013733	0.999994	0.000669	-0.003254	0.000000	
32252	    0	2.097803	3.983505	-2.135109	0.691990	-0.820355	-0.190164	0.021103	0.039888	-0.021127	0.999985	0.003460	-0.004102	-0.000951	
32253	    0	1.740214	1.780669	-3.330917	0.997933	-0.887878	-0.319674	0.017578	0.017944	-0.033142	0.999976	0.004990	-0.004439	-0.001598	
32254	    0	1.735521	0.037921	-3.081767	0.917060	-0.847632	-0.432590	0.017487	0.000483	-0.030742	0.999978	0.004585	-0.004238	-0.002163	
32255	    0	2.487673	-1.219482	-2.627219	0.396731	-0.900845	-0.514987	0.024963	-0.012207	-0.026184	0.999984	0.001984	-0.004504	-0.002575	
32256	    0	3.931295	-1.609527	-1.777628	-0.128365	-1.027304	-0.596431	0.039355	-0.016224	-0.017564	0.999982	-0.000642	-0.005136	-0.002982	
32257	    0	5.451937	-1.947322	-0.797958	-0.403407	-1.139840	-0.603490	0.054504	-0.019653	-0.007629	0.999977	-0.002017	-0.005699	-0.003017	
32258	    0	6.436327	-1.995899	0.145583	-0.439457	-1.343931	-0.544363	0.064297	-0.020130	0.001932	0.999970	-0.002197	-0.006720	-0.002722	
32259	    0	7.262385	-2.638861	-0.113172	-0.364689	-1.471535	-0.441747	0.072571	-0.026550	-0.000549	0.999969	-0.001823	-0.007358	-0.002209	
32260	    0	8.169018	-4.846321	-0.189618	0.008965	-1.274499	-0.305369	0.081626	-0.048588	-0.001378	0.999978	0.000045	-0.006372	-0.001527	
32261	    0	9.119925	-7.687023	-0.370490	0.686650	-0.941282	-0.235750	0.091125	-0.076965	-0.003540	0.999982	0.003433	-0.004706	-0.001179	
32262	    0	9.462499	-8.699400	-0.235149	1.282321	-0.504116	-0.206568	0.094542	-0.087075	-0.002671	0.999975	0.006412	-0.002521	-0.001033	
32263	    0	9.057888	-7.725899	0.002015	1.499190	-0.156976	-0.165559	0.090515	-0.077332	-0.000488	0.999970	0.007496	-0.000785	-0.000828	
32264	    0	8.318314	-5.473028	-0.118027	1.340113	0.049782	-0.099183	0.083156	-0.054762	-0.001568	0.999977	0.006701	0.000249	-0.000496	
32265	    0	7.526115	-3.113388	-0.299840	0.695039	0.178719	-0.012970	0.075256	-0.031128	-0.003174	0.999993	0.003475	0.000894	-0.000065	
32266	    0	6.590884	-0.555019	0.452901	-0.296974	-0.038719	0.086021	0.065910	-0.005515	0.004550	0.999998	-0.001485	-0.000194	0.000430	
32267	    0	5.750956	1.723294	2.427311	-1.346409	-0.473027	0.207521	0.057434	0.017456	0.024292	0.999973	-0.006732	-0.002365	0.001038	
32268	    0	4.209675	2.418752	2.771151	-2.370148	-1.437234	0.232323	0.041869	0.024565	0.027723	0.999903	-0.011850	-0.007186	0.001162	
32269	    0	4.236591	3.578890	-4.003368	-2.765767	-1.415119	-0.076297	0.042664	0.035217	-0.040222	0.999879	-0.013828	-0.007075	-0.000381	
32270	    0	5.353991	7.760339	-0.755565	-1.834709	-0.679218	-0.369650	0.053710	0.077432	-0.008084	0.999950	-0.009173	-0.003396	-0.001848	
32271	    0	15.592814	-11.441141	8.779830	1.742594	-1.562345	0.162510	0.155334	-0.115051	0.088013	0.999930	0.008713	-0.007812	0.000813	
32272	    0	26.793875	-35.924892	-35.573290	3.146222	-2.875549	-0.482596	0.272211	-0.354288	-0.357439	0.999769	0.015730	-0.014377	-0.002413	
32273	    0	30.985579	-27.350461	-29.400886	0.918597	1.959458	0.267797	0.307312	-0.271729	-0.298279	0.999940	0.004593	0.009797	0.001339	
32274	    0	18.218148	18.008407	15.463112	1.604900	2.419366	-0.091556	0.184128	0.178763	0.153850	0.999894	0.008024	0.012096	-0.000458	
32275	    0	8.637351	40.511180	9.162773	-0.244713	-0.267792	-0.025940	0.086304	0.405212	0.091248	0.999998	-0.001224	-0.001339	-0.000130	
32276	    0	3.829623	36.890359	-6.847722	-0.356294	-0.859264	-0.366975	0.039268	0.368710	-0.068967	0.999987	-0.001781	-0.004296	-0.001835	
32277	    0	4.052393	17.662586	-11.595848	-1.907386	-0.095942	-1.051351	0.041504	0.175293	-0.117615	0.999940	-0.009537	-0.000480	-0.005257	
