// Start Time: Unknown
// Update Rate: 100.0Hz
// Filter Profile: human (34.3)
// Firmware Version: 2.1.4
PacketCounter	SampleTimeFine	Acc_X	Acc_Y	Acc_Z	Gyr_X	Gyr_Y	Gyr_Z	VelInc_X	VelInc_Y	VelInc_Z	OriInc_q0	OriInc_q1	OriInc_q2	OriInc_q3	
43470	    0	14.045384	0.081212	0.091062	0.578844	-0.764288	7.940692	0.140269	0.006381	0.001460	0.999200	0.002893	-0.003820	0.039693	
43471	    0	15.982800	1.015316	0.014196	0.892316	-0.812757	8.090940	0.159241	0.016602	0.000854	0.999163	0.004460	-0.004063	0.040443	
43472	    0	18.333029	2.463647	-0.992488	1.182516	-0.795022	8.205878	0.182150	0.032183	-0.009024	0.999132	0.005911	-0.003974	0.041018	
43473	    0	20.917694	4.614833	-2.963479	1.414328	-0.734924	8.195587	0.207153	0.054871	-0.028503	0.999128	0.007070	-0.003674	0.040966	
43474	    0	24.304469	10.477123	-4.342382	1.248518	-0.610522	8.067094	0.238680	0.114724	-0.041995	0.999162	0.006241	-0.003052	0.040324	
43475	    0	26.345798	15.613663	-3.699911	0.840397	-0.375460	7.688536	0.257263	0.166260	-0.035828	0.999250	0.004201	-0.001877	0.038433	
43476	    0	26.808539	18.618544	-3.672464	0.697278	-0.314777	6.948551	0.261457	0.195473	-0.035639	0.999389	0.003486	-0.001574	0.034736	
43477	    0	26.254084	23.387762	-5.521207	0.694378	-0.330974	5.919000	0.255554	0.241699	-0.053955	0.999555	0.003471	-0.001655	0.029591	
43478	    0	22.498297	28.286378	-8.249759	0.448078	-0.397719	4.697666	0.218417	0.288229	-0.081417	0.999720	0.002240	-0.001988	0.023486	
43479	    0	16.587688	34.550560	-8.277555	0.077251	-0.601989	3.366253	0.160278	0.348267	-0.082153	0.999853	0.000386	-0.003010	0.016830	
43480	    0	12.268770	37.652221	-5.100617	-0.306326	-0.731863	1.968421	0.119162	0.377628	-0.051144	0.999943	-0.001532	-0.003659	0.009842	
43481	    0	11.458273	37.148055	-1.658144	-0.503351	-0.641634	0.466921	0.113770	0.371704	-0.017151	0.999989	-0.002517	-0.003208	0.002335	
43482	    0	12.390298	36.377797	0.916161	-0.397494	-0.445941	-1.039893	0.125772	0.363145	0.008718	0.999982	-0.001987	-0.002230	-0.005199	
43483	    0	15.315478	31.887721	0.673564	0.269515	-0.284584	-2.455202	0.157043	0.316956	0.007385	0.999922	0.001348	-0.001423	-0.012276	
43484	    0	27.701332	26.489373	2.350984	1.885417	0.043683	-4.598900	0.283008	0.258195	0.025904	0.999691	0.009426	0.000218	-0.022992	
43485	    0	47.820561	1.491990	10.633523	1.577202	0.406891	-5.351955	0.478577	0.001282	0.105408	0.999608	0.007885	0.002034	-0.026756	
43486	    0	27.434356	-0.052767	1.712026	1.939072	-0.958186	-5.156235	0.274119	-0.007771	0.018382	0.999609	0.009694	-0.004790	-0.025778	
43487	    0	20.530710	-7.481680	2.010680	1.879412	-1.419860	-5.633657	0.202942	-0.080750	0.020813	0.999534	0.009396	-0.007098	-0.028164	
43488	    0	9.715165	1.455390	-1.551488	1.977886	-2.060107	-5.824920	0.097675	0.011860	-0.014384	0.999474	0.009888	-0.010299	-0.029119	
43489	    0	1.992913	19.239024	-4.972903	1.089059	-1.863361	-5.400847	0.025574	0.192017	-0.048462	0.999577	0.005445	-0.009315	-0.027000	
43490	    0	6.363013	24.546103	-4.203747	-0.676984	-1.040560	-4.665828	0.069551	0.243741	-0.042513	0.999708	-0.003385	-0.005202	-0.023327	
43491	    0	1.798980	6.379597	-8.484151	-0.830126	-0.868847	-3.508960	0.019470	0.063110	-0.085022	0.999827	-0.004150	-0.004344	-0.017544	
43492	    0	1.275039	4.042644	-5.938149	-0.718149	-0.519585	-3.151271	0.013537	0.040004	-0.059491	0.999866	-0.003591	-0.002598	-0.015756	
43493	    0	12.478244	6.804495	-1.884416	-0.817137	-0.215729	-2.781775	0.125732	0.066223	-0.018982	0.999894	-0.004086	-0.001079	-0.013908	
43494	    0	14.506115	0.992307	-3.062756	-0.660532	-0.329026	-2.409045	0.145216	0.008074	-0.030417	0.999920	-0.003303	-0.001645	-0.012045	
43495	    0	11.490186	2.314200	-4.015040	-0.152401	-0.328835	-2.402555	0.115234	0.021729	-0.039978	0.999926	-0.000762	-0.001644	-0.012012	
43496	    0	15.432052	5.490416	-5.798269	-0.246817	-0.232511	-2.337892	0.155015	0.053023	-0.057869	0.999929	-0.001234	-0.001163	-0.011689	
43497	    0	17.538312	2.323587	-4.700309	-0.509653	-0.209622	-2.067605	0.175659	0.021301	-0.046875	0.999942	-0.002548	-0.001048	-0.010338	
43498	    0	13.865019	2.300105	-4.296167	-0.558098	-0.244907	-1.775005	0.138899	0.021649	-0.042853	0.999955	-0.002790	-0.001225	-0.008875	
43499	    0	10.167956	4.820638	-4.903014	-0.799570	-0.050927	-1.508350	0.102051	0.047241	-0.049194	0.999963	-0.003998	-0.000255	-0.007542	
43500	    0	10.816755	4.539790	-5.410107	-0.896082	0.062752	-1.329436	0.108448	0.044435	-0.054336	0.999968	-0.004480	0.000314	-0.006647	
43501	    0	14.473267	4.950933	-5.780972	-1.113141	0.202372	-1.168073	0.144958	0.048340	-0.058228	0.999967	-0.005566	0.001012	-0.005840	
43502	    0	16.866922	2.455444	-4.429824	-1.493475	0.340276	-1.036659	0.168716	0.023347	-0.044763	0.999957	-0.007467	0.001701	-0.005183	
43503	    0	17.376861	1.578806	-4.474130	-1.602770	0.350958	-1.036851	0.173767	0.014526	-0.045166	0.999952	-0.008014	0.001755	-0.005184	
43504	    0	18.683734	1.833996	-2.791499	-1.680022	0.348097	-1.128026	0.186887	0.017049	-0.028387	0.999947	-0.008400	0.001740	-0.005640	
43505	    0	18.876235	-0.282827	-1.145641	-1.961369	0.379952	-1.085686	0.188721	-0.003967	-0.011780	0.999935	-0.009807	0.001900	-0.005428	
43506	    0	17.350323	-2.120148	-0.524736	-2.174052	0.395213	-1.135092	0.173368	-0.022243	-0.005352	0.999923	-0.010870	0.001976	-0.005675	
43507	    0	16.157578	-3.008532	-0.158217	-2.242152	0.433362	-1.269567	0.161377	-0.031128	-0.001587	0.999914	-0.011210	0.002167	-0.006348	
43508	    0	15.632854	-3.045001	0.067966	-2.173868	0.436032	-1.412432	0.156110	-0.031546	0.000678	0.999913	-0.010869	0.002180	-0.007062	
43509	    0	14.860707	-4.819286	0.168963	-2.286411	0.480667	-1.460312	0.148254	-0.049255	0.001892	0.999905	-0.011432	0.002403	-0.007301	
43510	    0	13.779424	-4.506203	-0.480707	-2.344593	0.527591	-1.539664	0.137429	-0.046176	-0.004633	0.999898	-0.011723	0.002638	-0.007698	
43511	    0	13.984084	-4.721729	-1.398927	-2.394001	0.632500	-1.632750	0.139404	-0.048523	-0.013855	0.999889	-0.011970	0.003162	-0.008163	
43512	    0	13.576998	-5.175148	-1.489448	-2.410029	0.697735	-1.753113	0.135257	-0.053117	-0.014732	0.999883	-0.012050	0.003489	-0.008765	
43513	    0	11.828776	-6.330966	-1.808860	-2.283566	0.688389	-1.905134	0.117615	-0.064636	-0.017761	0.999883	-0.011417	0.003442	-0.009525	
43514	    0	11.174060	-6.353406	-2.013981	-1.843902	0.672747	-2.230154	0.110954	-0.064959	-0.019919	0.999889	-0.009219	0.003364	-0.011150	
43515	    0	11.952806	-6.471747	-1.500211	-1.293233	0.737219	-2.677259	0.118591	-0.066406	-0.015015	0.999883	-0.006466	0.003686	-0.013386	
43516	    0	12.161423	-9.002489	-2.202263	-0.744853	0.737414	-3.130864	0.120103	-0.091995	-0.022127	0.999864	-0.003724	0.003687	-0.015654	
43517	    0	12.271443	-9.128259	-2.332131	-0.388358	0.688401	-3.582965	0.120972	-0.093506	-0.023560	0.999831	-0.001942	0.003442	-0.017914	
43518	    0	13.063073	-8.896630	-3.480875	-0.094038	0.760891	-3.900785	0.128729	-0.091506	-0.035258	0.999802	-0.000470	0.003804	-0.019503	
43519	    0	14.896055	-8.589145	-4.081023	-0.057034	0.725610	-4.180459	0.146973	-0.088989	-0.041321	0.999775	-0.000285	0.003628	-0.020901	
43520	    0	15.195625	-6.280656	-4.338209	0.047306	0.642640	-4.435529	0.150373	-0.066143	-0.043882	0.999748	0.000237	0.003213	-0.022176	
43521	    0	14.458032	-5.215507	-5.415099	0.128948	0.528192	-4.594068	0.143188	-0.055420	-0.054565	0.999732	0.000645	0.002641	-0.022968	
43522	    0	13.794665	-3.727039	-6.204306	0.090416	0.403631	-4.621157	0.136911	-0.040414	-0.062338	0.999730	0.000452	0.002018	-0.023104	
43523	    0	14.737592	-2.142798	-8.899930	-0.049404	0.409733	-4.450596	0.146667	-0.024719	-0.089294	0.999750	-0.000247	0.002048	-0.022251	
43524	    0	22.347672	-4.025937	-8.180819	-0.119027	0.528180	-3.981095	0.222399	-0.044743	-0.082371	0.999798	-0.000595	0.002641	-0.019904	
43525	    0	25.417361	-10.117625	-7.702076	0.080113	0.599129	-3.468502	0.252136	-0.105530	-0.077820	0.999845	0.000401	0.002995	-0.017342	
43526	    0	20.460912	-12.707696	-3.792741	0.677518	0.604273	-2.997712	0.202559	-0.129992	-0.038979	0.999877	0.003387	0.003021	-0.014988	
43527	    0	17.000044	-8.796125	-3.215114	1.362851	0.379958	-2.633765	0.168762	-0.089966	-0.033081	0.999887	0.006814	0.001900	-0.013168	
43528	    0	13.104654	-5.833961	-3.484747	1.386870	0.157933	-2.085740	0.130403	-0.059458	-0.035360	0.999921	0.006934	0.000790	-0.010428	
43529	    0	10.334001	-3.896143	-3.741781	1.120203	0.039673	-1.551080	0.103027	-0.039551	-0.037659	0.999954	0.005601	0.000198	-0.007755	
43530	    0	7.878310	-4.081104	-3.991154	0.946624	-0.027657	-0.926787	0.078599	-0.040986	-0.040094	0.999977	0.004733	-0.000138	-0.004634	
43531	    0	6.047254	-4.477062	-3.906600	0.885967	-0.061035	-0.267030	0.060425	-0.044678	-0.039246	0.999989	0.004430	-0.000305	-0.001335	
43532	    0	4.404657	-3.726126	-3.494538	0.947766	-0.091553	0.437166	0.044144	-0.036999	-0.035101	0.999986	0.004739	-0.000458	0.002186	
43533	    0	2.957743	-2.169963	-3.403385	0.952921	-0.118066	1.178753	0.029724	-0.021362	-0.034119	0.999970	0.004765	-0.000590	0.005894	
43534	    0	2.103307	-1.012078	-3.280533	0.825897	-0.123980	1.944960	0.021150	-0.009780	-0.032833	0.999944	0.004129	-0.000620	0.009725	
43535	    0	2.113604	-1.118969	-3.055524	0.634786	-0.106624	2.724546	0.021301	-0.010803	-0.030579	0.999902	0.003174	-0.000533	0.013622	
43536	    0	2.698896	-1.867041	-2.741854	0.436233	-0.100332	3.473841	0.027321	-0.018138	-0.027445	0.999846	0.002181	-0.000502	0.017368	
43537	    0	3.301506	-2.361647	-2.018287	0.313591	-0.098999	4.178162	0.033508	-0.022888	-0.020203	0.999780	0.001568	-0.000495	0.020889	
43538	    0	4.113371	-2.717641	-1.167007	0.301200	-0.136770	4.813852	0.041780	-0.026158	-0.011682	0.999708	0.001506	-0.000684	0.024067	
43539	    0	5.175326	-2.831968	-0.569000	0.268014	-0.193047	5.341977	0.052490	-0.026917	-0.005676	0.999641	0.001340	-0.000965	0.026707	
43540	    0	6.538936	-2.765372	-0.194789	0.239406	-0.250661	5.827205	0.066160	-0.025731	-0.001897	0.999574	0.001197	-0.001253	0.029132	
43541	    0	7.873878	-2.689626	0.026951	0.220526	-0.314192	6.263235	0.079529	-0.024414	0.000366	0.999507	0.001102	-0.001571	0.031311	
43542	    0	8.888191	-2.479777	0.237135	0.228924	-0.355977	6.663797	0.089638	-0.021822	0.002504	0.999442	0.001144	-0.001780	0.033313	
43543	    0	9.726769	-2.252524	0.831047	0.250487	-0.406731	7.022018	0.097961	-0.019104	0.008484	0.999380	0.001252	-0.002033	0.035103	
43544	    0	10.593458	-2.132071	1.579350	0.406358	-0.491636	7.380075	0.106586	-0.017427	0.016017	0.999313	0.002031	-0.002458	0.036892	
43545	    0	12.156031	-1.645767	2.344403	0.693877	-0.566243	7.710676	0.122009	-0.011841	0.023743	0.999247	0.003469	-0.002831	0.038544	
43546	    0	13.931220	-0.507392	2.943636	0.949355	-0.637991	7.993390	0.139276	0.000353	0.029874	0.999185	0.004745	-0.003189	0.039956	
43547	    0	15.392826	0.354202	3.571287	1.263789	-0.643151	8.158153	0.153503	0.009583	0.036255	0.999143	0.006317	-0.003215	0.040779	
43548	    0	17.226893	1.682039	2.662210	1.613144	-0.550625	8.281504	0.171308	0.023710	0.027267	0.999106	0.008063	-0.002752	0.041395	
43549	    0	19.855948	4.470033	0.296862	1.754716	-0.319005	8.302513	0.196472	0.052856	0.003723	0.999098	0.008771	-0.001595	0.041500	
43550	    0	23.160135	9.255830	-2.458746	1.613518	0.001336	8.235869	0.227525	0.102180	-0.023790	0.999119	0.008065	0.000007	0.041167	
43551	    0	25.781298	14.039668	-4.259728	1.243928	0.293239	7.953505	0.251892	0.150757	-0.042053	0.999188	0.006218	0.001466	0.039757	
43552	    0	27.141156	17.726929	-5.908420	1.119488	0.360762	7.312920	0.264577	0.187357	-0.058536	0.999313	0.005596	0.001803	0.036556	
43553	    0	27.252170	22.547818	-8.046184	1.095766	0.158909	6.275476	0.265198	0.234314	-0.079407	0.999492	0.005478	0.000794	0.031372	
43554	    0	23.872082	29.080034	-9.929170	0.755393	-0.135818	5.069334	0.231310	0.297098	-0.098019	0.999671	0.003777	-0.000679	0.025344	
43555	    0	17.778883	34.639698	-9.482107	0.249496	-0.381301	3.705812	0.171509	0.349731	-0.094055	0.999825	0.001247	-0.001906	0.018528	
43556	    0	13.707049	38.305079	-6.605616	-0.203519	-0.543607	2.283721	0.132865	0.384517	-0.066082	0.999930	-0.001018	-0.002718	0.011418	
43557	    0	12.515632	37.292096	-3.996820	-0.310327	-0.523379	0.794223	0.123779	0.373352	-0.040222	0.999987	-0.001552	-0.002617	0.003971	
43558	    0	11.473498	36.519748	-1.707902	0.024414	-0.402070	-0.791934	0.116214	0.364741	-0.016802	0.999990	0.000122	-0.002010	-0.003960	
43559	    0	12.271015	34.777615	-2.290035	0.612655	-0.369081	-2.246909	0.126648	0.346436	-0.021606	0.999930	0.003063	-0.001845	-0.011234	
43560	    0	16.699373	28.454622	-8.488355	1.972926	-0.586747	-3.835981	0.172663	0.282086	-0.081592	0.999763	0.009864	-0.002934	-0.019178	
43561	    0	42.528279	0.844641	3.152640	1.723685	0.277934	-5.050497	0.425354	-0.002563	0.030945	0.999642	0.008617	0.001390	-0.025249	
43562	    0	35.885738	0.481663	7.081150	1.576630	-0.599177	-5.342419	0.358591	-0.005329	0.071871	0.999607	0.007882	-0.002995	-0.026709	
43563	    0	23.545736	-1.430965	-0.443450	1.852868	-1.269709	-5.351245	0.234985	-0.020569	-0.003113	0.999578	0.009263	-0.006348	-0.026752	
43564	    0	20.259648	0.965224	-0.585897	1.148591	-1.787842	-5.694121	0.202804	0.003906	-0.004013	0.999537	0.005742	-0.008938	-0.028466	
43565	    0	4.179357	7.556116	-5.521851	0.760759	-1.972288	-5.443583	0.044373	0.074585	-0.054504	0.999574	0.003803	-0.009860	-0.027214	
43566	    0	2.107197	20.012724	-5.511277	-0.194189	-1.435628	-4.917302	0.026378	0.199469	-0.055130	0.999671	-0.000971	-0.007177	-0.024584	
43567	    0	6.910575	14.213571	-5.001775	-0.891183	-0.991708	-4.128589	0.072266	0.140442	-0.050293	0.999764	-0.004456	-0.004958	-0.020641	
43568	    0	1.871804	1.532158	-6.090173	-0.666083	-0.933317	-3.451156	0.019260	0.014790	-0.060863	0.999834	-0.003330	-0.004666	-0.017255	
43569	    0	5.730408	5.419655	-2.647879	-0.395220	-0.539994	-3.182361	0.058228	0.053223	-0.026428	0.999867	-0.001976	-0.002700	-0.015911	
43570	    0	12.886963	6.057063	-2.296149	-0.463119	-0.428786	-2.727979	0.129728	0.058752	-0.022821	0.999902	-0.002316	-0.002144	-0.013639	
43571	    0	11.636226	4.641469	-4.800612	-0.476850	-0.345430	-2.465123	0.117004	0.044861	-0.047913	0.999919	-0.002384	-0.001727	-0.012325	
43572	    0	13.000238	3.983920	-6.002779	-0.346955	-0.281150	-2.379476	0.130548	0.038184	-0.059912	0.999927	-0.001735	-0.001406	-0.011897	
43573	    0	16.470536	4.262373	-5.432923	-0.576795	-0.227933	-2.202654	0.165222	0.040649	-0.054260	0.999934	-0.002884	-0.001140	-0.011013	
43574	    0	15.539190	2.980162	-3.628906	-0.720037	-0.228314	-1.915203	0.155708	0.028181	-0.036215	0.999947	-0.003600	-0.001142	-0.009576	
43575	    0	12.558036	3.046839	-3.337715	-0.784313	-0.170710	-1.654839	0.125854	0.029297	-0.033386	0.999957	-0.003922	-0.000854	-0.008274	
43576	    0	10.092123	4.476194	-4.850772	-0.912296	-0.083161	-1.440256	0.101259	0.043812	-0.048667	0.999963	-0.004561	-0.000416	-0.007201	
43577	    0	12.923333	4.790205	-5.749694	-1.075567	0.077058	-1.296249	0.129517	0.046753	-0.057800	0.999964	-0.005378	0.000385	-0.006481	
43578	    0	15.798598	3.779540	-4.881358	-1.371975	0.222591	-1.187341	0.158151	0.036520	-0.049243	0.999958	-0.006860	0.001113	-0.005937	
43579	    0	15.277871	1.132072	-4.387882	-1.591517	0.296979	-1.097124	0.152771	0.010132	-0.044189	0.999951	-0.007957	0.001485	-0.005486	
43580	    0	16.513628	2.207520	-4.099967	-1.596287	0.322347	-1.158161	0.165193	0.020789	-0.041435	0.999949	-0.007981	0.001612	-0.005791	
43581	    0	17.758184	1.538365	-2.797395	-1.738581	0.385292	-1.169608	0.177612	0.014099	-0.028442	0.999943	-0.008693	0.001926	-0.005848	
43582	    0	17.144807	-0.940367	-1.800581	-1.952977	0.438128	-1.135470	0.171350	-0.010554	-0.018282	0.999933	-0.009765	0.002191	-0.005677	
43583	    0	15.913351	-1.660585	-1.501236	-2.081923	0.460064	-1.178008	0.158997	-0.017700	-0.015198	0.999926	-0.010409	0.002300	-0.005890	
43584	    0	15.497852	-2.090017	-1.175368	-2.055793	0.496114	-1.311336	0.154807	-0.022038	-0.011915	0.999922	-0.010279	0.002481	-0.006557	
43585	    0	15.122636	-2.714253	-1.069569	-2.082882	0.527396	-1.410714	0.151001	-0.028320	-0.010803	0.999917	-0.010414	0.002637	-0.007053	
43586	    0	14.443555	-3.454772	-1.228834	-2.215835	0.613995	-1.462409	0.144139	-0.035739	-0.012340	0.999907	-0.011079	0.003070	-0.007312	
43587	    0	13.741761	-4.237533	-2.011382	-2.282790	0.670837	-1.509907	0.137024	-0.043640	-0.020081	0.999900	-0.011414	0.003354	-0.007549	
43588	    0	13.632208	-3.304329	-2.454280	-2.319800	0.702501	-1.630650	0.135959	-0.034438	-0.024627	0.999893	-0.011599	0.003512	-0.008153	
43589	    0	13.444122	-4.555652	-1.722083	-2.478700	0.754578	-1.739573	0.133972	-0.046936	-0.017151	0.999878	-0.012393	0.003773	-0.008698	
43590	    0	12.393218	-7.428104	-0.998580	-2.300164	0.751716	-1.933938	0.123169	-0.075586	-0.009585	0.999880	-0.011500	0.003758	-0.009669	
43591	    0	12.076148	-7.424198	-0.701584	-1.827310	0.742559	-2.295009	0.119873	-0.075684	-0.006775	0.999885	-0.009136	0.003713	-0.011475	
43592	    0	13.120718	-7.664074	-0.566868	-1.340731	0.741608	-2.762337	0.130111	-0.078481	-0.005630	0.999875	-0.006703	0.003708	-0.013811	
43593	    0	13.466508	-9.494107	-1.488278	-0.968027	0.713384	-3.225867	0.133057	-0.097168	-0.014893	0.999851	-0.004840	0.003567	-0.016129	
43594	    0	13.774610	-9.632383	-2.494346	-0.800943	0.727315	-3.604911	0.135888	-0.098885	-0.025047	0.999823	-0.004004	0.003636	-0.018023	
43595	    0	14.549197	-9.437301	-3.538314	-0.671432	0.726558	-3.881332	0.143494	-0.097290	-0.035583	0.999799	-0.003357	0.003633	-0.019405	
43596	    0	15.429827	-7.968823	-3.905828	-0.509109	0.639009	-4.112545	0.152490	-0.082936	-0.039339	0.999780	-0.002545	0.003195	-0.020561	
43597	    0	15.420699	-5.816554	-4.505281	-0.430332	0.556418	-4.334607	0.152771	-0.061584	-0.045349	0.999759	-0.002151	0.002782	-0.021671	
43598	    0	15.199970	-6.420104	-5.415548	-0.235768	0.441015	-4.415112	0.150413	-0.067597	-0.054410	0.999753	-0.001179	0.002205	-0.022074	
43599	    0	15.215562	-4.710797	-6.480296	0.036624	0.412974	-4.385731	0.150940	-0.050415	-0.065125	0.999757	0.000183	0.002065	-0.021927	
43600	    0	17.729342	-3.773985	-8.384778	0.219361	0.581212	-4.140966	0.176218	-0.041304	-0.084405	0.999781	0.001097	0.002906	-0.020703	
43601	    0	23.497864	-4.277757	-7.684043	0.486785	0.637283	-3.711160	0.233887	-0.046936	-0.077698	0.999820	0.002434	0.003186	-0.018555	
43602	    0	23.667760	-10.450560	-4.707404	0.885430	0.714143	-3.044262	0.234881	-0.107878	-0.048388	0.999867	0.004427	0.003571	-0.015221	
43603	    0	17.251071	-11.259129	-2.465560	1.370481	0.658441	-2.575017	0.170959	-0.114624	-0.026001	0.999887	0.006852	0.003292	-0.012875	
43604	    0	13.264930	-7.846742	-2.615402	1.675659	0.491349	-2.153084	0.131730	-0.079664	-0.027143	0.999904	0.008378	0.002457	-0.010765	
43605	    0	10.062538	-4.779160	-3.506873	1.568066	0.395211	-1.647223	0.100159	-0.048340	-0.035645	0.999933	0.007840	0.001976	-0.008236	
43606	    0	8.517395	-3.413667	-4.016842	1.349277	0.387960	-1.135842	0.084901	-0.034347	-0.040565	0.999959	0.006746	0.001940	-0.005679	
43607	    0	7.280821	-3.984965	-3.917031	1.238451	0.368503	-0.521092	0.072632	-0.039795	-0.039551	0.999975	0.006192	0.001842	-0.002605	
43608	    0	5.750880	-3.881499	-3.657109	1.227959	0.357249	0.121308	0.057467	-0.038554	-0.036911	0.999979	0.006140	0.001786	0.000607	
43609	    0	4.375582	-3.237681	-3.364854	1.271261	0.378422	0.818642	0.043823	-0.031982	-0.033936	0.999969	0.006356	0.001892	0.004093	
43610	    0	3.680294	-2.447432	-3.308705	1.227400	0.420578	1.552990	0.036921	-0.023984	-0.033313	0.999949	0.006137	0.002103	0.007765	
43611	    0	3.492404	-1.675792	-3.401270	1.062804	0.457204	2.298800	0.035034	-0.016174	-0.034180	0.999917	0.005314	0.002286	0.011494	
43612	    0	3.714411	-1.589633	-3.333093	0.837361	0.498030	3.014881	0.037293	-0.015195	-0.033488	0.999874	0.004187	0.002490	0.015074	
43613	    0	4.133863	-2.040523	-3.119991	0.644723	0.521310	3.722607	0.041626	-0.019531	-0.031372	0.999818	0.003223	0.002606	0.018612	
43614	    0	4.713131	-2.441513	-2.529748	0.500148	0.545165	4.380777	0.047581	-0.023313	-0.025486	0.999753	0.002501	0.002726	0.021902	
43615	    0	5.549279	-2.767997	-2.347449	0.447129	0.527437	4.945124	0.056091	-0.026245	-0.023682	0.999688	0.002235	0.002637	0.024723	
43616	    0	6.334920	-3.194229	-2.140817	0.473844	0.455341	5.426510	0.064135	-0.030158	-0.021626	0.999626	0.002369	0.002276	0.027129	
43617	    0	7.198426	-3.312036	-1.894612	0.570952	0.354055	5.844196	0.072876	-0.030945	-0.019165	0.999567	0.002854	0.001770	0.029217	
43618	    0	7.916015	-2.650249	-1.613517	0.647651	0.250857	6.233283	0.079913	-0.023967	-0.016315	0.999508	0.003238	0.001254	0.031161	
43619	    0	8.446847	-1.896022	-1.262911	0.678378	0.163490	6.609035	0.085022	-0.016113	-0.012756	0.999448	0.003391	0.000817	0.033039	
43620	    0	9.043258	-1.432546	-1.194579	0.722271	0.031096	6.989964	0.090857	-0.011111	-0.012004	0.999382	0.003611	0.000155	0.034943	
43621	    0	10.136146	-1.286437	-0.787509	0.809091	-0.085469	7.356415	0.101746	-0.009094	-0.007874	0.999315	0.004045	-0.000427	0.036774	
43622	    0	11.823950	-1.056303	-0.209659	0.989399	-0.155297	7.689495	0.118530	-0.005999	-0.002042	0.999248	0.004946	-0.000776	0.038438	
43623	    0	13.658466	-0.701383	0.065658	1.215881	-0.230470	7.946630	0.136719	-0.001587	0.000793	0.999191	0.006078	-0.001152	0.039722	
43624	    0	15.884301	0.521676	-0.530718	1.483003	-0.249934	8.115401	0.158463	0.011691	-0.005038	0.999148	0.007413	-0.001249	0.040565	
43625	    0	18.408701	2.387356	-2.523434	1.739440	-0.219791	8.209350	0.182922	0.031616	-0.024780	0.999119	0.008695	-0.001099	0.041035	
43626	    0	21.388632	5.872630	-5.643780	1.856397	-0.193081	8.200392	0.211280	0.067945	-0.055631	0.999116	0.009279	-0.000965	0.040990	
43627	    0	24.482685	12.977372	-7.614643	1.358406	-0.070019	8.014597	0.239380	0.139954	-0.075134	0.999173	0.006790	-0.000350	0.040062	
43628	    0	25.394803	17.752466	-7.693182	0.794412	0.011256	7.572668	0.246975	0.187269	-0.076215	0.999275	0.003971	0.000056	0.037854	
43629	    0	25.165601	20.930840	-8.214919	0.457087	-0.142506	6.705211	0.244507	0.217773	-0.081482	0.999434	0.002285	-0.000712	0.033520	
43630	    0	23.839234	27.317527	-9.506098	0.054939	-0.392966	5.637919	0.230753	0.279778	-0.094526	0.999600	0.000275	-0.001965	0.028186	
43631	    0	18.088917	32.197177	-9.932528	-0.466958	-0.536963	4.404815	0.174011	0.325623	-0.099609	0.999751	-0.002335	-0.002685	0.022022	
43632	    0	13.540046	35.662962	-7.592470	-0.789294	-0.637653	2.995044	0.130287	0.358304	-0.076916	0.999874	-0.003946	-0.003188	0.014975	
43633	    0	10.389778	36.376636	-4.336943	-0.826848	-0.625619	1.559471	0.101196	0.364380	-0.044556	0.999956	-0.004134	-0.003128	0.007797	
43634	    0	12.827997	35.635632	-2.231916	-0.734332	-0.537493	0.102234	0.128160	0.356338	-0.023283	0.999990	-0.003672	-0.002687	0.000511	
43635	    0	11.736851	34.294552	0.208336	-0.434879	-0.520139	-1.322949	0.119629	0.342163	0.001648	0.999972	-0.002174	-0.002601	-0.006615	
43636	    0	13.692961	28.180550	-0.621515	0.307092	-0.568216	-2.623829	0.140627	0.279985	-0.005388	0.999908	0.001535	-0.002841	-0.013119	
43637	    0	26.246839	24.403357	-0.213724	1.658218	-0.202198	-4.510933	0.267883	0.238037	0.000122	0.999710	0.008290	-0.001011	-0.022552	
43638	    0	50.726755	-3.100259	9.446653	1.407033	0.200296	-5.240703	0.506306	-0.044940	0.093676	0.999631	0.007034	0.001001	-0.026200	
43639	    0	27.595913	6.059773	0.574645	2.088667	-1.469640	-5.401652	0.277405	0.053040	0.008362	0.999554	0.010442	-0.007347	-0.027004	
43640	    0	27.353922	-1.951149	1.190389	1.614436	-1.728703	-5.574506	0.272737	-0.027229	0.014065	0.999541	0.008071	-0.008642	-0.027868	
43641	    0	14.097160	-0.512987	0.461559	1.075917	-2.259998	-5.674890	0.140686	-0.009155	0.006165	0.999518	0.005379	-0.011298	-0.028370	
43642	    0	-2.280857	13.497723	-4.505674	0.723939	-2.150832	-5.282557	-0.018748	0.135671	-0.044783	0.999586	0.003619	-0.010753	-0.026409	
43643	    0	4.122068	22.332994	-6.605344	-0.384559	-1.420541	-4.604025	0.046814	0.222168	-0.066162	0.999707	-0.001923	-0.007102	-0.023018	
43644	    0	2.232178	7.448155	-8.832363	-0.788357	-1.187591	-3.641933	0.024194	0.073704	-0.088475	0.999808	-0.003942	-0.005938	-0.018209	
43645	    0	1.108125	2.465289	-5.948448	-0.586729	-0.813905	-3.238833	0.011719	0.024292	-0.059509	0.999856	-0.002934	-0.004069	-0.016193	
43646	    0	12.685907	5.771987	-2.622133	-0.578712	-0.503178	-2.936667	0.127753	0.055773	-0.026064	0.999885	-0.002893	-0.002516	-0.014683	
43647	    0	13.544574	2.205809	-3.779902	-0.645466	-0.485816	-2.555924	0.135803	0.020203	-0.037537	0.999909	-0.003227	-0.002429	-0.012779	
43648	    0	9.853229	3.077029	-5.935725	-0.398838	-0.432217	-2.504227	0.099034	0.029414	-0.059203	0.999917	-0.001994	-0.002161	-0.012521	
43649	    0	15.333924	5.095689	-6.065391	-0.402843	-0.348482	-2.450626	0.154053	0.048950	-0.060486	0.999921	-0.002014	-0.001742	-0.012253	
43650	    0	17.056512	2.397603	-4.096450	-0.551617	-0.336082	-2.185297	0.170881	0.021997	-0.040740	0.999934	-0.002758	-0.001680	-0.010926	
43651	    0	14.175600	2.990977	-3.347337	-0.562296	-0.323301	-1.934848	0.142090	0.028442	-0.033325	0.999948	-0.002811	-0.001616	-0.009674	
43652	    0	9.561555	4.860765	-4.526645	-0.697527	-0.198367	-1.656746	0.096058	0.047655	-0.045339	0.999959	-0.003488	-0.000992	-0.008284	
43653	    0	8.856806	5.558688	-6.120521	-0.843821	-0.080682	-1.441972	0.088989	0.054688	-0.061401	0.999965	-0.004219	-0.000403	-0.007210	
43654	    0	12.722469	5.500720	-6.690607	-1.054775	0.052262	-1.236357	0.127542	0.053865	-0.067225	0.999967	-0.005274	0.000261	-0.006182	
43655	    0	16.363460	4.178099	-4.209833	-1.302926	0.215152	-1.119246	0.163818	0.040588	-0.042542	0.999962	-0.006515	0.001076	-0.005596	
43656	    0	16.748472	2.892747	-4.092093	-1.463338	0.263408	-1.046767	0.167578	0.027749	-0.041348	0.999958	-0.007317	0.001317	-0.005234	
43657	    0	17.711041	2.361841	-3.319541	-1.501487	0.297742	-1.091782	0.177185	0.022400	-0.033630	0.999955	-0.007507	0.001489	-0.005459	
43658	    0	18.206921	1.539536	-2.180518	-1.704055	0.308996	-1.074619	0.182114	0.014229	-0.022211	0.999948	-0.008520	0.001545	-0.005373	
43659	    0	18.255234	0.616185	-1.309532	-2.050637	0.370034	-1.050591	0.182556	0.005066	-0.013489	0.999931	-0.010253	0.001850	-0.005253	
43660	    0	17.274980	-1.875368	-1.095377	-2.300135	0.406276	-1.076156	0.172623	-0.019810	-0.011081	0.999917	-0.011500	0.002031	-0.005381	
43661	    0	16.556427	-3.284779	-0.831548	-2.305479	0.450147	-1.199376	0.165344	-0.033936	-0.008301	0.999912	-0.011527	0.002251	-0.005997	
43662	    0	16.288132	-4.035717	-0.814660	-2.384071	0.501458	-1.299327	0.162594	-0.041511	-0.008064	0.999905	-0.011920	0.002507	-0.006496	
43663	    0	16.069934	-3.749926	-1.125272	-2.524467	0.575277	-1.390889	0.160400	-0.038757	-0.011230	0.999891	-0.012622	0.002876	-0.006954	
43664	    0	15.356584	-5.591145	-1.530278	-2.677833	0.599694	-1.414355	0.153119	-0.057198	-0.015002	0.999881	-0.013389	0.002998	-0.007071	
43665	    0	14.591373	-5.535752	-1.307795	-2.694051	0.598360	-1.524416	0.145447	-0.056641	-0.012756	0.999875	-0.013470	0.002992	-0.007622	
43666	    0	13.442970	-5.989055	-0.533104	-2.645986	0.563073	-1.671671	0.133908	-0.061078	-0.004906	0.999873	-0.013229	0.002815	-0.008358	
43667	    0	11.837424	-6.984421	-0.531693	-2.297300	0.536558	-1.939467	0.117676	-0.071045	-0.004822	0.999883	-0.011486	0.002683	-0.009697	
43668	    0	11.701771	-7.853652	-1.093336	-1.670901	0.549910	-2.460192	0.116010	-0.080057	-0.010589	0.999886	-0.008354	0.002749	-0.012300	
43669	    0	12.126168	-8.328014	-1.998568	-1.125195	0.542474	-3.012218	0.119934	-0.085205	-0.019836	0.999866	-0.005626	0.002712	-0.015060	
43670	    0	12.826347	-9.237359	-3.008690	-0.844048	0.507573	-3.484344	0.126551	-0.094715	-0.030013	0.999836	-0.004220	0.002538	-0.017421	
43671	    0	13.549014	-9.929325	-3.489216	-0.575101	0.553928	-3.779074	0.133484	-0.101929	-0.034973	0.999813	-0.002875	0.002769	-0.018894	
43672	    0	14.602253	-9.276924	-4.048858	-0.213447	0.480685	-4.011046	0.144025	-0.095715	-0.040735	0.999795	-0.001067	0.002403	-0.020054	
43673	    0	15.085739	-6.144974	-4.691178	-0.220506	0.370245	-4.263632	0.149414	-0.064697	-0.047119	0.999770	-0.001102	0.001851	-0.021317	
43674	    0	14.328237	-4.340711	-5.173730	-0.372345	0.254843	-4.436479	0.142205	-0.046666	-0.051834	0.999751	-0.001862	0.001274	-0.022181	
43675	    0	13.043955	-2.422515	-5.798298	-0.537918	0.109300	-4.462809	0.129822	-0.027283	-0.057983	0.999747	-0.002689	0.000546	-0.022312	
43676	    0	13.199195	-0.447676	-8.917490	-0.803822	0.092895	-4.327170	0.131807	-0.007689	-0.089210	0.999758	-0.004019	0.000464	-0.021634	
43677	    0	19.626944	-3.501084	-8.315427	-1.049872	0.302334	-3.756190	0.195435	-0.039124	-0.083252	0.999808	-0.005249	0.001512	-0.018780	
43678	    0	27.040464	-11.407690	-7.881807	-0.818482	0.440428	-3.244363	0.268330	-0.118764	-0.078931	0.999857	-0.004092	0.002202	-0.016221	
43679	    0	20.687518	-15.369900	-2.433774	-0.032807	0.515192	-2.777192	0.204651	-0.156555	-0.024841	0.999900	-0.000164	0.002576	-0.013885	
43680	    0	16.224672	-11.064697	-1.524611	1.054795	0.357638	-2.421069	0.160864	-0.112516	-0.016125	0.999910	0.005274	0.001788	-0.012105	
43681	    0	12.179621	-7.003495	-2.146347	1.480139	0.177960	-1.931811	0.121094	-0.071045	-0.022095	0.999925	0.007401	0.000890	-0.009659	
43682	    0	9.721151	-4.241950	-2.654924	1.379035	0.100328	-1.399063	0.096899	-0.042913	-0.026893	0.999951	0.006895	0.000502	-0.006995	
43683	    0	7.633969	-4.061779	-3.114518	1.281178	0.071717	-0.769813	0.076172	-0.040710	-0.031433	0.999971	0.006406	0.000359	-0.003849	
43684	    0	5.811539	-4.829004	-3.210807	1.201256	0.087929	-0.120736	0.058072	-0.048131	-0.032423	0.999981	0.006006	0.000440	-0.000604	
43685	    0	4.093305	-3.886886	-3.000807	1.243601	0.121499	0.521855	0.041016	-0.038574	-0.030273	0.999976	0.006218	0.000607	0.002609	
43686	    0	2.581915	-2.167823	-3.043895	1.239602	0.147821	1.221291	0.025928	-0.021331	-0.030591	0.999962	0.006198	0.000739	0.006106	
43687	    0	1.818380	-0.963885	-3.234175	1.130128	0.162510	1.958508	0.018250	-0.009277	-0.032410	0.999935	0.005651	0.000813	0.009792	
43688	    0	1.678801	-0.473044	-3.211814	0.922997	0.181586	2.685637	0.016819	-0.004356	-0.032154	0.999898	0.004615	0.000908	0.013428	
43689	    0	1.997635	-0.826359	-3.046831	0.708807	0.210010	3.421958	0.020081	-0.007812	-0.030518	0.999846	0.003544	0.001050	0.017109	
43690	    0	2.680573	-1.340353	-2.646371	0.537720	0.227563	4.108915	0.027042	-0.012778	-0.026529	0.999784	0.002688	0.001138	0.020543	
43691	    0	3.726676	-1.814774	-2.024141	0.435871	0.240349	4.751276	0.037659	-0.017212	-0.020325	0.999714	0.002179	0.001202	0.023754	
43692	    0	4.989947	-2.052019	-1.752926	0.375411	0.226429	5.305344	0.050400	-0.019155	-0.017623	0.999645	0.001877	0.001132	0.026524	
43693	    0	6.193625	-2.123274	-1.498436	0.325058	0.188663	5.773968	0.062500	-0.019409	-0.015076	0.999581	0.001625	0.000943	0.028866	
43694	    0	7.470694	-2.238446	-1.076901	0.252955	0.137733	6.199878	0.075345	-0.020041	-0.010847	0.999518	0.001265	0.000689	0.030994	
43695	    0	8.596682	-1.968189	-0.648717	0.234455	0.052652	6.550245	0.086548	-0.016846	-0.006531	0.999462	0.001172	0.000263	0.032745	
43696	    0	9.525537	-1.189611	-0.367894	0.210804	-0.060666	6.886891	0.095591	-0.008604	-0.003660	0.999406	0.001054	-0.000303	0.034428	
43697	    0	10.523761	-0.562736	0.346341	0.216150	-0.151858	7.215923	0.105347	-0.001831	0.003540	0.999348	0.001081	-0.000759	0.036072	
43698	    0	11.711325	-0.591405	0.967147	0.360955	-0.272433	7.500696	0.117212	-0.001536	0.009826	0.999293	0.001804	-0.001362	0.037495	
43699	    0	13.225522	-0.431848	1.432872	0.690061	-0.396065	7.712198	0.132263	0.000732	0.014587	0.999249	0.003449	-0.001980	0.038551	
43700	    0	15.199775	0.497243	1.462261	1.101975	-0.477154	7.864928	0.151612	0.010859	0.015034	0.999208	0.005508	-0.002385	0.039314	
43701	    0	17.490463	2.362392	0.543272	1.425561	-0.469145	7.963452	0.173767	0.030518	0.006042	0.999179	0.007126	-0.002345	0.039806	
43702	    0	20.338529	4.987031	-1.137021	1.526681	-0.342654	7.981402	0.201197	0.058013	-0.010602	0.999173	0.007631	-0.001713	0.039896	
43703	    0	23.283092	9.150427	-2.808358	1.469814	-0.124965	7.869533	0.229004	0.100769	-0.027222	0.999198	0.007347	-0.000625	0.039337	
43704	    0	25.297360	13.473551	-3.171967	1.305518	0.073260	7.553806	0.247630	0.144361	-0.030890	0.999265	0.006526	0.000366	0.037760	
43705	    0	26.071087	17.481985	-3.840587	1.308137	0.149567	6.884649	0.254456	0.183899	-0.037415	0.999386	0.006539	0.000748	0.034416	
43706	    0	26.259358	21.661771	-6.377595	1.355567	0.129719	5.863312	0.256045	0.224615	-0.062439	0.999547	0.006777	0.000648	0.029312	
43707	    0	23.721347	28.216843	-9.586153	1.163592	-0.069243	4.609351	0.230652	0.288086	-0.094116	0.999717	0.005817	-0.000346	0.023045	
43708	    0	16.966880	34.108834	-10.163828	0.828973	-0.273336	3.240165	0.164247	0.344195	-0.099989	0.999859	0.004145	-0.001367	0.016200	
43709	    0	13.158472	39.491974	-8.486047	0.281720	-0.492867	1.859313	0.128113	0.396240	-0.083984	0.999952	0.001409	-0.002464	0.009296	
43710	    0	10.041172	39.191588	-5.518279	-0.122833	-0.507356	0.438882	0.099691	0.392101	-0.055170	0.999993	-0.000614	-0.002537	0.002194	
43711	    0	11.307428	36.926009	-3.094796	-0.066948	-0.328066	-1.044469	0.115051	0.368652	-0.030884	0.999985	-0.000335	-0.001640	-0.005222	
43712	    0	16.233535	38.664872	-6.436940	1.132440	-0.363556	-2.929047	0.168092	0.384570	-0.061886	0.999875	0.005662	-0.001818	-0.014645	
43713	    0	35.906607	38.870797	-5.318061	2.004728	0.048835	-5.596985	0.369751	0.378967	-0.049438	0.999557	0.010022	0.000244	-0.027981	
43714	    0	43.620191	4.285816	2.575700	0.764749	-0.145167	-5.350956	0.437119	0.031071	0.026208	0.999634	0.003823	-0.000726	-0.026752	
43715	    0	22.806045	-14.293933	-0.030962	1.075107	-1.190133	-5.035987	0.224365	-0.148621	0.000244	0.999650	0.005375	-0.005950	-0.025177	
43716	    0	12.375934	-11.153687	2.479400	1.520971	-1.604717	-5.771411	0.120270	-0.115231	0.024901	0.999522	0.007604	-0.008022	-0.028852	
43717	    0	2.702693	10.243982	-1.033315	1.551495	-1.825243	-5.717621	0.030029	0.101685	-0.009277	0.999519	0.007756	-0.009125	-0.028584	
43718	    0	4.628821	28.854804	-3.236681	0.325052	-1.259004	-5.261302	0.054057	0.287246	-0.031575	0.999633	0.001625	-0.006294	-0.026303	
43719	    0	4.049350	15.116512	-7.665165	-0.514069	-0.911781	-4.123236	0.043945	0.150085	-0.076843	0.999773	-0.002570	-0.004559	-0.020615	
43720	    0	2.398838	-1.703708	-5.821938	-0.250638	-0.722350	-3.426537	0.023901	-0.017520	-0.058111	0.999846	-0.001253	-0.003612	-0.017132	
43721	    0	9.292930	5.227888	-2.325529	-0.036432	-0.544000	-3.193804	0.093811	0.050781	-0.023010	0.999868	-0.000182	-0.002720	-0.015968	
43722	    0	15.620142	7.248969	-2.019820	-0.401891	-0.431647	-2.726643	0.157213	0.070311	-0.020002	0.999903	-0.002009	-0.002158	-0.013633	
43723	    0	11.575767	4.267547	-2.765667	-0.495733	-0.506605	-2.425449	0.116333	0.041199	-0.027466	0.999920	-0.002479	-0.002533	-0.012127	
43724	    0	11.998260	4.432687	-4.891174	-0.429354	-0.423441	-2.273993	0.120579	0.042853	-0.048750	0.999930	-0.002147	-0.002117	-0.011370	
43725	    0	15.717361	5.487354	-5.315545	-0.648321	-0.367744	-2.108809	0.157837	0.053040	-0.053040	0.999937	-0.003242	-0.001839	-0.010544	
43726	    0	15.557657	2.260016	-4.540317	-0.709165	-0.373084	-1.875528	0.155863	0.020979	-0.045189	0.999948	-0.003546	-0.001865	-0.009377	
43727	    0	12.726125	2.931179	-4.907898	-0.779735	-0.280575	-1.638817	0.127563	0.028076	-0.049011	0.999957	-0.003899	-0.001403	-0.008194	
43728	    0	10.557535	3.311721	-5.290819	-0.843440	-0.134851	-1.462191	0.105848	0.032121	-0.052974	0.999964	-0.004217	-0.000674	-0.007311	
43729	    0	13.593398	5.454898	-5.868750	-0.948154	0.025940	-1.358811	0.136292	0.053345	-0.058960	0.999966	-0.004741	0.000130	-0.006794	
43730	    0	15.647007	2.177534	-4.925349	-1.221100	0.178911	-1.188865	0.156550	0.020543	-0.049521	0.999963	-0.006105	0.000895	-0.005944	
43731	    0	15.636701	1.151786	-4.815046	-1.319902	0.229838	-1.130691	0.156372	0.010315	-0.048401	0.999961	-0.006599	0.001149	-0.005653	
43732	    0	17.286177	3.509557	-4.007393	-1.425573	0.274090	-1.155107	0.173004	0.033809	-0.040555	0.999956	-0.007128	0.001370	-0.005775	
43733	    0	17.820246	2.394199	-2.906064	-1.661520	0.323492	-1.113911	0.178284	0.022705	-0.029541	0.999949	-0.008307	0.001617	-0.005569	
43734	    0	17.229013	-0.303601	-1.716252	-1.892129	0.404366	-1.086448	0.172235	-0.004136	-0.017475	0.999938	-0.009460	0.002022	-0.005432	
43735	    0	16.191318	-1.460747	-1.054709	-2.013443	0.431261	-1.124599	0.161804	-0.015625	-0.010742	0.999930	-0.010067	0.002156	-0.005623	
43736	    0	15.962067	-1.751866	-0.732425	-2.082114	0.482762	-1.209862	0.159492	-0.018561	-0.007520	0.999924	-0.010410	0.002414	-0.006049	
43737	    0	15.931358	-2.679010	-0.580668	-2.153074	0.515189	-1.306188	0.159119	-0.027893	-0.005920	0.999917	-0.010765	0.002576	-0.006531	
43738	    0	15.072654	-4.269494	-0.229123	-2.399141	0.575275	-1.312680	0.150435	-0.043710	-0.002204	0.999902	-0.011995	0.002876	-0.006563	
43739	    0	13.910019	-4.145897	-0.540540	-2.535340	0.631928	-1.373341	0.138794	-0.042480	-0.005310	0.999890	-0.012676	0.003160	-0.006866	
43740	    0	13.612798	-4.580061	-0.658919	-2.574829	0.694302	-1.450976	0.135768	-0.046870	-0.006462	0.999885	-0.012874	0.003471	-0.007255	
43741	    0	12.959876	-5.297601	-0.582067	-2.504828	0.722723	-1.593080	0.129150	-0.054077	-0.005615	0.999883	-0.012524	0.003613	-0.007965	
43742	    0	11.850461	-6.566779	-0.809060	-2.291764	0.709751	-1.756924	0.117893	-0.066795	-0.007749	0.999889	-0.011458	0.003549	-0.008784	
43743	    0	11.421223	-5.622758	-0.909741	-1.857059	0.711275	-2.080608	0.113586	-0.057495	-0.008972	0.999896	-0.009285	0.003556	-0.010403	
43744	    0	11.764822	-6.528740	-0.423423	-1.345874	0.742558	-2.510924	0.116800	-0.066786	-0.004223	0.999891	-0.006729	0.003713	-0.012554	
43745	    0	11.726443	-9.036642	-1.411581	-0.827061	0.727303	-2.988560	0.115845	-0.092163	-0.014160	0.999873	-0.004135	0.003636	-0.014942	
43746	    0	12.221965	-8.971404	-2.547604	-0.485446	0.781864	-3.459734	0.120543	-0.091871	-0.025728	0.999840	-0.002427	0.003909	-0.017298	
43747	    0	14.232095	-10.458456	-3.306841	-0.001335	0.798849	-3.854619	0.140137	-0.107300	-0.033630	0.999805	-0.000007	0.003994	-0.019272	
43748	    0	15.274523	-8.408772	-3.508065	0.409730	0.715502	-4.226439	0.150797	-0.087215	-0.035799	0.999767	0.002048	0.003577	-0.021131	
43749	    0	15.681893	-5.775853	-4.127626	0.585417	0.614983	-4.518525	0.155334	-0.061157	-0.041931	0.999735	0.002927	0.003075	-0.022591	
43750	    0	15.230438	-5.871345	-4.684051	0.678317	0.475737	-4.667719	0.150769	-0.062084	-0.047407	0.999719	0.003391	0.002378	-0.023336	
43751	    0	12.263261	-2.526542	-5.444611	0.542502	0.374830	-4.745174	0.121887	-0.028015	-0.054749	0.999713	0.002712	0.001874	-0.023724	
43752	    0	13.602823	-2.555141	-6.105135	0.289942	0.453415	-4.485893	0.135272	-0.028502	-0.061399	0.999744	0.001450	0.002267	-0.022428	
43753	    0	24.174066	-5.192572	-7.636522	0.642443	0.452648	-4.170540	0.240417	-0.056702	-0.077087	0.999774	0.003212	0.002263	-0.020851	
43754	    0	27.025504	-10.965956	-6.842497	0.894220	0.472288	-3.701628	0.268004	-0.114325	-0.069564	0.999816	0.004471	0.002361	-0.018507	
43755	    0	22.202422	-9.964655	-4.188840	1.091823	0.529698	-3.328116	0.220215	-0.103088	-0.043030	0.999843	0.005459	0.002648	-0.016640	
43756	    0	19.254582	-6.730005	-3.651788	1.281411	0.441188	-2.889374	0.191467	-0.069834	-0.037383	0.999872	0.006407	0.002206	-0.014446	
43757	    0	14.564861	-4.865108	-3.801848	1.080542	0.312051	-2.294221	0.145020	-0.050110	-0.038513	0.999918	0.005403	0.001560	-0.011471	
43758	    0	11.220205	-4.045165	-3.659415	0.877203	0.253491	-1.710156	0.111805	-0.041247	-0.036916	0.999952	0.004386	0.001267	-0.008551	
43759	    0	8.914188	-4.356771	-3.590080	0.893410	0.219156	-1.074228	0.088867	-0.043884	-0.036194	0.999974	0.004467	0.001096	-0.005371	
43760	    0	6.900382	-4.032826	-3.632617	1.002698	0.202943	-0.458529	0.068874	-0.040303	-0.036598	0.999984	0.005013	0.001015	-0.002293	
43761	    0	4.827885	-3.082896	-3.512164	1.129347	0.184632	0.212098	0.048279	-0.030579	-0.035339	0.999983	0.005647	0.000923	0.001060	
43762	    0	3.095741	-2.125361	-3.410092	1.179707	0.200464	0.968752	0.031025	-0.020902	-0.034256	0.999969	0.005898	0.001002	0.004844	
43763	    0	1.942914	-0.967949	-3.300769	1.039905	0.248913	1.739532	0.019470	-0.009338	-0.033081	0.999948	0.005199	0.001245	0.008698	
43764	    0	1.476445	-0.454874	-3.070846	0.780701	0.271996	2.554970	0.014778	-0.004240	-0.030746	0.999909	0.003903	0.001360	0.012774	
43765	    0	1.617145	-0.694192	-3.029118	0.523592	0.317398	3.339546	0.016235	-0.006592	-0.030334	0.999855	0.002618	0.001587	0.016697	
43766	    0	2.130847	-1.119738	-3.046565	0.316261	0.324272	4.110438	0.021482	-0.010709	-0.030518	0.999785	0.001581	0.001621	0.020551	
43767	    0	2.670791	-1.343067	-2.734987	0.219748	0.302344	4.791721	0.026978	-0.012756	-0.027405	0.999711	0.001099	0.001512	0.023956	
43768	    0	3.370175	-1.550392	-2.240266	0.092708	0.235205	5.404559	0.034078	-0.014576	-0.022449	0.999634	0.000463	0.001176	0.027020	
43769	    0	4.409806	-1.675157	-1.877347	-0.053986	0.133534	5.921276	0.044556	-0.015442	-0.018799	0.999561	-0.000270	0.000668	0.029602	
43770	    0	5.767459	-2.045446	-1.727609	-0.180085	0.022511	6.407118	0.058289	-0.018609	-0.017265	0.999486	-0.000900	0.000113	0.032030	
43771	    0	7.188574	-2.321018	-1.629548	-0.285968	-0.080887	6.855593	0.072632	-0.020752	-0.016235	0.999411	-0.001430	-0.000404	0.034271	
43772	    0	8.403820	-2.136842	-1.061721	-0.357897	-0.220347	7.230432	0.084749	-0.018332	-0.010489	0.999344	-0.001789	-0.001101	0.036144	
43773	    0	9.371479	-1.778971	-0.020064	-0.279303	-0.380608	7.583153	0.094299	-0.014221	0.000000	0.999278	-0.001396	-0.001903	0.037907	
43774	    0	10.889882	-1.595685	0.827887	-0.042545	-0.571019	7.898678	0.109391	-0.011641	0.008594	0.999216	-0.000213	-0.002854	0.039483	
43775	    0	12.966917	-1.180226	1.680433	0.300682	-0.740831	8.157343	0.129944	-0.006531	0.017273	0.999160	0.001503	-0.003703	0.040775	
43776	    0	14.999910	-0.410694	2.404836	0.743512	-0.849019	8.314283	0.149896	0.002036	0.024685	0.999120	0.003716	-0.004244	0.041559	
43777	    0	17.353654	0.810411	1.857774	1.268391	-0.866009	8.404045	0.172913	0.015259	0.019409	0.999087	0.006340	-0.004329	0.042007	
43778	    0	20.543133	3.459172	-0.208750	1.600755	-0.749054	8.385936	0.203746	0.043171	-0.000999	0.999082	0.008001	-0.003744	0.041917	
43779	    0	24.178390	9.068013	-2.312548	1.562392	-0.429663	8.291039	0.237793	0.100769	-0.021851	0.999107	0.007810	-0.002148	0.041443	
43780	    0	26.457888	13.807731	-3.116677	1.354400	-0.089670	8.019369	0.258770	0.148739	-0.030066	0.999173	0.006770	-0.000448	0.040086	
43781	    0	27.217746	18.040522	-4.348012	1.309701	0.077838	7.374007	0.265259	0.190552	-0.042358	0.999298	0.006547	0.000389	0.036861	
43782	    0	26.692729	21.663010	-7.311002	1.422943	0.018886	6.364424	0.259838	0.225488	-0.071551	0.999468	0.007113	0.000094	0.031816	
43783	    0	23.053808	27.867696	-10.881114	1.186508	-0.176069	5.119914	0.223389	0.285095	-0.106934	0.999654	0.005932	-0.000880	0.025597	
43784	    0	16.744288	34.670778	-11.684084	0.588072	-0.458555	3.757516	0.161152	0.350116	-0.115440	0.999816	0.002940	-0.002293	0.018786	
43785	    0	12.062640	39.524425	-8.167773	-0.162320	-0.672168	2.429264	0.116089	0.396606	-0.081604	0.999920	-0.000812	-0.003361	0.012146	
43786	    0	9.429260	38.005724	-4.095603	-0.586133	-0.623899	1.084146	0.092360	0.380440	-0.041780	0.999975	-0.002931	-0.003119	0.005421	
43787	    0	12.894570	35.152450	-1.483608	-0.619318	-0.462343	-0.339509	0.129578	0.351257	-0.015625	0.999990	-0.003097	-0.002312	-0.001698	
43788	    0	11.925806	32.486615	0.116416	-0.184824	-0.443274	-1.699470	0.122010	0.323838	0.001133	0.999961	-0.000924	-0.002216	-0.008497	
43789	    0	12.980366	27.156354	-3.780909	0.757630	-0.615527	-3.000002	0.133972	0.269714	-0.036377	0.999875	0.003788	-0.003078	-0.014999	
43790	    0	24.814508	14.368416	-3.712344	1.682827	-0.273922	-4.523527	0.251364	0.138327	-0.035602	0.999707	0.008413	-0.001369	-0.022615	
43791	    0	47.060092	-8.623304	7.997966	1.458340	0.054175	-5.118402	0.468201	-0.098816	0.079163	0.999645	0.007291	0.000271	-0.025589	
43792	    0	25.543653	3.697029	1.657358	2.219730	-1.353089	-5.464243	0.256194	0.029778	0.018662	0.999542	0.011097	-0.006764	-0.027317	
43793	    0	25.141629	-0.046300	-0.316827	1.704109	-1.779462	-5.713812	0.251282	-0.007629	-0.000977	0.999516	0.008519	-0.008896	-0.028564	
43794	    0	12.040346	1.761452	-0.418386	1.080878	-2.107960	-5.748530	0.120878	0.014162	-0.002829	0.999516	0.005404	-0.010538	-0.028738	
43795	    0	-0.500263	15.652537	-4.065086	0.493689	-1.946332	-5.339774	-0.000427	0.156677	-0.040283	0.999593	0.002468	-0.009730	-0.026695	
43796	    0	5.548436	21.229335	-4.926600	-0.482798	-1.299416	-4.695789	0.060766	0.210789	-0.049393	0.999700	-0.002414	-0.006496	-0.023477	
43797	    0	1.275057	6.184548	-8.197729	-0.457793	-1.254926	-3.701258	0.014404	0.061401	-0.082031	0.999806	-0.002289	-0.006274	-0.018505	
43798	    0	1.680672	3.868567	-5.260044	-0.424406	-0.791017	-3.324673	0.017653	0.038285	-0.052613	0.999851	-0.002122	-0.003955	-0.016623	
43799	    0	11.747623	6.008438	-2.853309	-0.582908	-0.547620	-2.900805	0.118408	0.058289	-0.028381	0.999887	-0.002914	-0.002738	-0.014503	
43800	    0	13.958729	3.833390	-3.736865	-0.584620	-0.492493	-2.605328	0.140162	0.036402	-0.037132	0.999907	-0.002923	-0.002462	-0.013026	
43801	    0	10.864798	4.399117	-5.773461	-0.361643	-0.469793	-2.466649	0.109314	0.042542	-0.057556	0.999919	-0.001808	-0.002349	-0.012333	
43802	    0	15.398580	5.963504	-6.322097	-0.475132	-0.347336	-2.291924	0.154764	0.057714	-0.063091	0.999929	-0.002376	-0.001737	-0.011459	
43803	    0	16.859735	4.032260	-4.055741	-0.510416	-0.370605	-2.020301	0.169067	0.038513	-0.040344	0.999944	-0.002552	-0.001853	-0.010101	
43804	    0	14.032523	4.258906	-3.441138	-0.621041	-0.317196	-1.687646	0.140732	0.041296	-0.034318	0.999958	-0.003105	-0.001586	-0.008438	
43805	    0	10.192733	4.774564	-4.258135	-0.743683	-0.182344	-1.393905	0.102295	0.046875	-0.042664	0.999968	-0.003718	-0.000912	-0.006969	
43806	    0	10.881884	5.612567	-6.100509	-0.867470	-0.087357	-1.199733	0.109179	0.055206	-0.061198	0.999972	-0.004337	-0.000437	-0.005999	
43807	    0	15.726730	5.677207	-5.923095	-1.097118	0.118448	-1.070415	0.157532	0.055603	-0.059631	0.999970	-0.005486	0.000592	-0.005352	
43808	    0	17.094832	2.525874	-4.410450	-1.457805	0.215915	-0.893222	0.171010	0.024172	-0.044468	0.999963	-0.007289	0.001080	-0.004466	
43809	    0	17.689067	2.524426	-4.314368	-1.560805	0.276188	-0.900281	0.176941	0.024109	-0.043579	0.999958	-0.007804	0.001381	-0.004501	
43810	    0	20.070277	2.843850	-3.047847	-1.770813	0.357825	-0.958841	0.200780	0.027203	-0.031082	0.999948	-0.008854	0.001789	-0.004794	
43811	    0	20.531404	1.076574	-1.900864	-2.182060	0.403033	-0.946831	0.205322	0.009583	-0.019531	0.999927	-0.010910	0.002015	-0.004734	
43812	    0	19.399814	-3.258973	-0.705520	-2.604759	0.445380	-0.880270	0.193836	-0.033535	-0.007054	0.999903	-0.013023	0.002227	-0.004401	
43813	    0	17.598312	-3.863574	-0.266377	-2.729705	0.425736	-1.001013	0.175781	-0.039551	-0.002502	0.999891	-0.013648	0.002129	-0.005005	
43814	    0	17.839409	-4.222560	0.383594	-2.787126	0.473804	-1.150367	0.178157	-0.043196	0.004011	0.999883	-0.013935	0.002369	-0.005752	
43815	    0	16.448294	-6.271893	0.620347	-2.911500	0.500700	-1.187184	0.164124	-0.063599	0.006714	0.999873	-0.014557	0.002503	-0.005936	
43816	    0	14.033699	-6.480904	0.045279	-2.888038	0.535988	-1.220564	0.139940	-0.065652	0.001021	0.999873	-0.014440	0.002680	-0.006103	
43817	    0	12.983268	-5.613571	-0.161946	-2.715217	0.572990	-1.316122	0.129456	-0.057007	-0.001221	0.999882	-0.013576	0.002865	-0.006580	
43818	    0	11.756983	-5.737488	-0.505149	-2.463809	0.549908	-1.454214	0.117135	-0.058287	-0.004660	0.999893	-0.012319	0.002749	-0.007271	
43819	    0	10.698725	-5.798179	-1.121478	-1.954518	0.532548	-1.747183	0.106445	-0.059021	-0.010925	0.999910	-0.009772	0.002663	-0.008736	
43820	    0	11.120959	-6.277732	-1.433442	-1.330224	0.593012	-2.206294	0.110465	-0.064094	-0.014239	0.999912	-0.006651	0.002965	-0.011031	
43821	    0	11.157995	-7.743142	-2.563928	-0.669694	0.686670	-2.748968	0.110413	-0.079041	-0.025757	0.999893	-0.003348	0.003433	-0.013744	
43822	    0	11.223634	-8.477320	-4.218139	-0.067905	0.633269	-3.285752	0.110689	-0.086615	-0.042504	0.999860	-0.000340	0.003166	-0.016428	
43823	    0	12.556814	-9.096582	-4.594259	0.331135	0.566325	-3.718025	0.123718	-0.093201	-0.046448	0.999822	0.001656	0.002831	-0.018589	
43824	    0	13.197433	-8.485376	-4.182893	0.457224	0.529136	-4.061033	0.130105	-0.087412	-0.042373	0.999787	0.002286	0.002645	-0.020304	
43825	    0	14.210807	-7.080992	-4.008470	0.379211	0.432049	-4.337657	0.140442	-0.073792	-0.040527	0.999761	0.001896	0.002160	-0.021687	
43826	    0	13.330970	-4.995430	-4.318779	0.198191	0.356133	-4.519469	0.132059	-0.052905	-0.043475	0.999743	0.000991	0.001781	-0.022595	
43827	    0	11.975248	-2.745868	-5.260417	-0.158705	0.257324	-4.547513	0.119019	-0.030212	-0.052734	0.999740	-0.000793	0.001287	-0.022736	
43828	    0	10.737212	-1.774618	-7.323077	-0.796193	0.180641	-4.376010	0.106879	-0.020380	-0.073250	0.999752	-0.003981	0.000903	-0.021878	
43829	    0	16.642703	-0.817376	-7.308895	-1.828903	0.229090	-3.827192	0.166138	-0.012024	-0.073181	0.999774	-0.009144	0.001145	-0.019135	
43830	    0	23.488650	-10.115220	-6.706612	-2.056068	0.434332	-3.399885	0.232969	-0.105809	-0.066502	0.999800	-0.010280	0.002172	-0.016998	
43831	    0	22.004044	-14.819866	-3.958459	-1.346654	0.562505	-3.106079	0.217590	-0.151855	-0.039185	0.999852	-0.006733	0.002812	-0.015530	
43832	    0	20.681167	-12.730870	-2.885643	-0.335514	0.568028	-2.778911	0.204933	-0.130214	-0.029223	0.999898	-0.001678	0.002840	-0.013894	
43833	    0	17.629007	-9.566252	-2.127780	0.500691	0.445568	-2.333889	0.175110	-0.097656	-0.021912	0.999926	0.002503	0.002228	-0.011669	
43834	    0	13.890491	-6.349174	-1.756671	0.755514	0.330931	-1.834328	0.138286	-0.064694	-0.018039	0.999949	0.003778	0.001655	-0.009171	
43835	    0	10.582228	-4.299001	-1.807945	0.718886	0.257876	-1.239788	0.105530	-0.043579	-0.018372	0.999973	0.003594	0.001289	-0.006199	
43836	    0	8.162459	-4.235864	-2.512111	0.691226	0.230981	-0.592806	0.081470	-0.042513	-0.025362	0.999989	0.003456	0.001155	-0.002964	
43837	    0	6.264699	-4.364505	-3.200599	0.706674	0.212861	0.042725	0.062622	-0.043518	-0.032227	0.999992	0.003533	0.001064	0.000214	
43838	    0	4.147461	-3.463029	-3.221130	0.769809	0.197221	0.670627	0.041558	-0.034367	-0.032385	0.999986	0.003849	0.000986	0.003353	
43839	    0	2.456325	-1.964524	-3.260960	0.827035	0.201609	1.315321	0.024658	-0.019348	-0.032715	0.999969	0.004135	0.001008	0.006577	
43840	    0	1.829448	-1.059205	-3.259710	0.782219	0.206761	2.024881	0.018366	-0.010279	-0.032657	0.999940	0.003911	0.001034	0.010124	
43841	    0	2.074739	-0.766250	-3.205495	0.704217	0.226028	2.754305	0.020813	-0.007263	-0.032104	0.999898	0.003521	0.001130	0.013771	
43842	    0	2.592929	-0.862671	-3.059855	0.630602	0.196467	3.479949	0.026043	-0.008078	-0.030650	0.999843	0.003153	0.000982	0.017399	
43843	    0	3.484576	-1.076695	-2.893046	0.589987	0.177778	4.190377	0.035034	-0.009949	-0.028992	0.999775	0.002950	0.000889	0.020950	
43844	    0	4.641333	-1.168795	-2.756040	0.540024	0.184268	4.830455	0.046651	-0.010489	-0.027633	0.999703	0.002700	0.000921	0.024150	
43845	    0	5.889424	-1.338064	-2.549220	0.487006	0.174735	5.412959	0.059204	-0.011719	-0.025574	0.999630	0.002435	0.000874	0.027061	
43846	    0	7.351492	-1.674876	-2.316585	0.399458	0.139257	5.937308	0.073952	-0.014511	-0.023248	0.999557	0.001997	0.000696	0.029682	
43847	    0	8.709417	-1.758421	-1.903849	0.310569	0.094048	6.368572	0.087585	-0.014771	-0.019104	0.999492	0.001553	0.000470	0.031837	
43848	    0	9.758435	-1.401401	-1.470346	0.227590	-0.001526	6.742039	0.097982	-0.010698	-0.014716	0.999431	0.001138	-0.000008	0.033704	
43849	    0	10.826367	-0.958945	-1.136251	0.134496	-0.139647	7.089956	0.108521	-0.005737	-0.011292	0.999371	0.000672	-0.000698	0.035442	
43850	    0	11.911043	-0.965820	-0.587821	0.070970	-0.268998	7.399533	0.119367	-0.005242	-0.005720	0.999314	0.000355	-0.001345	0.036989	
43851	    0	13.192770	-1.054199	-0.028486	0.193071	-0.441659	7.641942	0.132202	-0.005493	0.000000	0.999267	0.000965	-0.002208	0.038200	
43852	    0	14.864719	-0.423591	0.409774	0.403700	-0.565676	7.869287	0.148648	0.001605	0.004518	0.999220	0.002018	-0.002828	0.039336	
43853	    0	16.861557	0.181512	0.835496	0.698470	-0.634175	8.026018	0.168335	0.008545	0.008911	0.999184	0.003491	-0.003170	0.040119	
43854	    0	19.425786	1.097720	0.539428	1.105812	-0.635327	8.135042	0.193580	0.018829	0.006100	0.999152	0.005527	-0.003176	0.040664	
43855	    0	22.183313	2.690783	-0.902757	1.505138	-0.599079	8.125340	0.220520	0.035950	-0.008118	0.999142	0.007524	-0.002995	0.040615	
43856	    0	25.648674	7.829423	-2.106357	1.554924	-0.449306	8.029321	0.253111	0.088660	-0.019830	0.999161	0.007772	-0.002246	0.040135	
43857	    0	26.770784	12.978210	-1.493040	1.444806	-0.205283	7.713773	0.262451	0.140076	-0.013672	0.999229	0.007222	-0.001026	0.038559	
43858	    0	26.206611	15.926651	-1.558036	1.649259	-0.062765	7.006632	0.256276	0.168434	-0.014135	0.999352	0.008245	-0.000314	0.035026	
43859	    0	25.400090	20.059024	-4.214285	1.922922	-0.002098	5.963347	0.247864	0.208435	-0.040161	0.999509	0.009613	-0.000010	0.029812	
43860	    0	21.749333	25.878563	-8.685529	1.823436	-0.064857	4.809528	0.211203	0.264692	-0.084391	0.999669	0.009116	-0.000324	0.024045	
43861	    0	16.345915	31.944231	-11.400060	1.338469	-0.267045	3.586798	0.157837	0.323059	-0.111633	0.999815	0.006692	-0.001335	0.017933	
43862	    0	11.482632	36.796057	-9.334318	0.671213	-0.531973	2.334846	0.110764	0.369579	-0.091806	0.999922	0.003356	-0.002660	0.011674	
43863	    0	8.276598	36.263703	-5.836229	0.187112	-0.544742	0.996404	0.081116	0.363098	-0.057800	0.999983	0.000936	-0.002724	0.004982	
43864	    0	9.241473	35.828308	-2.817625	-0.101090	-0.324059	-0.347329	0.093082	0.358108	-0.028207	0.999996	-0.000505	-0.001620	-0.001737	
43865	    0	10.046407	32.785761	-1.802164	-0.129510	-0.208284	-1.367961	0.102722	0.327148	-0.018127	0.999975	-0.000648	-0.001041	-0.006840	
43866	    0	12.461719	27.021174	-2.509693	0.124744	-0.354776	-2.480190	0.127999	0.268654	-0.024704	0.999921	0.000624	-0.001774	-0.012401	
43867	    0	8.557718	19.893324	-1.450000	1.086676	-0.547820	-3.409000	0.088989	0.197510	-0.013184	0.999836	0.005433	-0.002739	-0.017044	
43868	    0	19.523035	7.355622	-4.762551	1.780279	-0.202196	-4.140824	0.196751	0.069912	-0.046794	0.999745	0.008901	-0.001011	-0.020702	
43869	    0	44.672089	-17.082825	8.174812	1.651184	0.335921	-4.874961	0.442505	-0.182312	0.079529	0.999667	0.008255	0.001679	-0.024372	
43870	    0	25.968606	9.745230	-4.352337	2.739976	-1.576302	-5.431115	0.262540	0.090914	-0.040186	0.999506	0.013698	-0.007880	-0.027151	
43871	    0	30.686008	11.284081	-4.966649	1.873515	-2.023648	-5.644391	0.310364	0.104553	-0.045532	0.999506	0.009366	-0.010117	-0.028217	
43872	    0	17.734708	8.144423	0.148566	0.316666	-2.221809	-5.438063	0.179441	0.076579	0.003595	0.999567	0.001583	-0.011107	-0.027186	
43873	    0	1.644253	13.804097	0.322254	-0.411274	-1.850925	-5.058904	0.019897	0.137573	0.003113	0.999635	-0.002056	-0.009254	-0.025291	
43874	    0	3.167290	13.923253	-3.438820	-0.390276	-1.222329	-4.248586	0.034830	0.138448	-0.034452	0.999753	-0.001951	-0.006111	-0.021241	
43875	    0	3.191180	4.623985	-7.037389	-0.230420	-1.071798	-3.460120	0.033081	0.045593	-0.070251	0.999835	-0.001152	-0.005359	-0.017300	
43876	    0	1.570770	5.794816	-5.909347	-0.365082	-0.655202	-3.097475	0.016795	0.057586	-0.059145	0.999872	-0.001825	-0.003276	-0.015487	
43877	    0	11.562200	6.565692	-4.618280	-0.498025	-0.345623	-2.713100	0.116577	0.063965	-0.046143	0.999903	-0.002490	-0.001728	-0.013565	
43878	    0	14.476396	2.927110	-4.184063	-0.382052	-0.269897	-2.455775	0.145164	0.027411	-0.041698	0.999922	-0.001910	-0.001349	-0.012279	
43879	    0	11.233899	4.159252	-6.491564	-0.295264	-0.169186	-2.262165	0.112854	0.040222	-0.064880	0.999934	-0.001476	-0.000846	-0.011311	
43880	    0	15.274122	5.186355	-6.892697	-0.447282	-0.017548	-2.060738	0.153270	0.050132	-0.069027	0.999944	-0.002236	-0.000088	-0.010303	
43881	    0	18.764601	1.787104	-3.850241	-0.421721	-0.025940	-1.850919	0.187805	0.016052	-0.038513	0.999954	-0.002109	-0.000130	-0.009254	
43882	    0	15.305674	2.560207	-3.097916	-0.450139	-0.031662	-1.565760	0.153255	0.024333	-0.031011	0.999967	-0.002251	-0.000158	-0.007829	
43883	    0	10.081005	3.520867	-3.913549	-0.584989	0.138093	-1.327526	0.101013	0.034424	-0.039307	0.999973	-0.002925	0.000690	-0.006638	
43884	    0	11.087181	5.918677	-6.029225	-0.772483	0.269129	-1.187907	0.111138	0.058293	-0.060668	0.999973	-0.003862	0.001346	-0.005939	
43885	    0	15.762845	5.024776	-5.095334	-1.132023	0.432591	-1.044475	0.157776	0.049133	-0.051575	0.999968	-0.005660	0.002163	-0.005222	
43886	    0	16.666590	0.462116	-3.929602	-1.408976	0.473982	-0.895511	0.166590	0.003596	-0.039719	0.999962	-0.007045	0.002370	-0.004478	
43887	    0	17.595283	1.759959	-3.073959	-1.489088	0.437170	-0.940717	0.175964	0.016541	-0.031250	0.999958	-0.007445	0.002186	-0.004704	
43888	    0	18.983701	2.071721	-1.586845	-1.731902	0.386626	-0.946442	0.189900	0.019678	-0.016409	0.999949	-0.008659	0.001933	-0.004732	
43889	    0	18.680913	-0.722154	-0.252972	-2.082108	0.384721	-0.929281	0.186768	-0.008118	-0.002808	0.999932	-0.010410	0.001924	-0.004646	
43890	    0	16.973045	-2.766433	0.863233	-2.322069	0.362406	-0.973728	0.169609	-0.028390	0.008652	0.999919	-0.011610	0.001812	-0.004869	
43891	    0	15.605313	-3.420371	1.217902	-2.385591	0.337992	-1.096376	0.155884	-0.034912	0.012329	0.999912	-0.011928	0.001690	-0.005482	
43892	    0	15.222470	-3.525688	1.424005	-2.362513	0.334750	-1.249351	0.152025	-0.036037	0.014408	0.999908	-0.011812	0.001674	-0.006247	
43893	    0	14.184462	-5.895614	0.906528	-2.376439	0.354015	-1.283304	0.141479	-0.059753	0.009521	0.999907	-0.011882	0.001770	-0.006416	
43894	    0	12.640611	-5.718916	-0.351410	-2.356031	0.409711	-1.351590	0.126009	-0.058080	-0.003092	0.999906	-0.011780	0.002048	-0.006758	
43895	    0	12.239404	-5.415673	-1.491677	-2.268100	0.479904	-1.496172	0.121948	-0.055237	-0.014587	0.999905	-0.011340	0.002399	-0.007481	
43896	    0	11.873002	-5.638121	-2.460303	-2.000105	0.504127	-1.703122	0.118181	-0.057633	-0.024329	0.999910	-0.010000	0.002521	-0.008515	
43897	    0	10.953818	-6.280721	-2.967989	-1.690533	0.508896	-2.001250	0.108826	-0.064148	-0.029419	0.999910	-0.008452	0.002544	-0.010006	
43898	    0	10.724516	-6.380200	-3.402644	-1.210252	0.527399	-2.445109	0.106363	-0.065311	-0.033916	0.999903	-0.006051	0.002637	-0.012225	
43899	    0	10.846560	-7.324796	-3.598955	-0.727684	0.542473	-3.034337	0.107239	-0.075012	-0.036011	0.999874	-0.003638	0.002712	-0.015171	
43900	    0	11.195636	-8.553673	-2.942679	-0.260749	0.408576	-3.553390	0.110353	-0.087545	-0.029540	0.999839	-0.001304	0.002043	-0.017766	
43901	    0	12.183471	-8.275598	-3.155333	-0.137910	0.402858	-3.921000	0.120117	-0.085144	-0.031738	0.999805	-0.000690	0.002014	-0.019604	
43902	    0	13.953378	-7.538160	-3.377806	-0.297569	0.381498	-4.220708	0.137836	-0.078353	-0.033927	0.999774	-0.001488	0.001907	-0.021102	
43903	    0	14.733033	-6.083252	-3.087246	-0.322560	0.321224	-4.462044	0.145874	-0.064148	-0.031006	0.999748	-0.001613	0.001606	-0.022308	
43904	    0	14.818377	-4.432591	-3.750171	-0.400961	0.259614	-4.627264	0.147056	-0.047812	-0.037600	0.999729	-0.002005	0.001298	-0.023134	
43905	    0	14.138427	-3.125043	-4.477873	-0.573783	0.166527	-4.670384	0.140564	-0.034668	-0.044800	0.999722	-0.002869	0.000833	-0.023350	
43906	    0	13.955837	-1.410044	-6.550369	-0.792194	0.092515	-4.600180	0.139151	-0.017564	-0.065503	0.999727	-0.003961	0.000463	-0.022999	
43907	    0	15.515287	-1.985102	-6.891197	-1.194858	0.246640	-4.180476	0.154602	-0.023499	-0.068970	0.999763	-0.005974	0.001233	-0.020901	
43908	    0	24.541154	-7.642153	-7.172493	-1.059026	0.399996	-3.695909	0.243795	-0.081317	-0.071792	0.999813	-0.005295	0.002000	-0.018478	
43909	    0	22.936083	-13.636798	-3.756730	-0.517106	0.502801	-3.276979	0.226990	-0.140198	-0.037781	0.999859	-0.002585	0.002514	-0.016384	
43910	    0	18.827446	-11.058690	-1.882106	0.351728	0.394836	-2.929605	0.186590	-0.113295	-0.019388	0.999888	0.001759	0.001974	-0.014647	
43911	    0	14.779570	-7.225208	-1.930050	0.769256	0.178533	-2.526166	0.146851	-0.074036	-0.019714	0.999912	0.003846	0.000893	-0.012630	
43912	    0	11.675162	-4.654176	-2.053357	0.701727	0.032807	-2.038614	0.116266	-0.047656	-0.020719	0.999942	0.003509	0.000164	-0.010193	
43913	    0	9.655092	-4.087659	-2.613622	0.623519	-0.041199	-1.471726	0.096252	-0.041504	-0.026245	0.999968	0.003118	-0.000206	-0.007359	
43914	    0	7.801702	-4.640609	-2.929373	0.635341	-0.102425	-0.870518	0.077829	-0.046652	-0.029402	0.999985	0.003177	-0.000512	-0.004353	
43915	    0	5.728977	-4.250687	-2.985657	0.679971	-0.114441	-0.263215	0.057251	-0.042480	-0.029968	0.999992	0.003400	-0.000572	-0.001316	
43916	    0	3.793684	-2.834983	-2.851498	0.758364	-0.112343	0.368310	0.038005	-0.028172	-0.028601	0.999990	0.003792	-0.000562	0.001842	
43917	    0	2.736235	-1.648794	-2.674649	0.783735	-0.116731	1.076516	0.027466	-0.016235	-0.026794	0.999977	0.003919	-0.000584	0.005383	
43918	    0	2.665216	-0.832525	-2.553475	0.668918	-0.125315	1.821356	0.026742	-0.007997	-0.025545	0.999952	0.003345	-0.000627	0.009107	
43919	    0	2.741058	-0.285914	-2.510292	0.504508	-0.174718	2.582625	0.027466	-0.002441	-0.025085	0.999912	0.002522	-0.000874	0.012913	
43920	    0	2.849133	0.070106	-2.493256	0.338188	-0.219737	3.297576	0.028502	0.001213	-0.024899	0.999862	0.001691	-0.001099	0.016487	
43921	    0	3.141242	-0.314494	-2.042625	0.197614	-0.274485	3.955338	0.031494	-0.002502	-0.020386	0.999803	0.000988	-0.001372	0.019775	
43922	    0	3.797807	-1.055504	-1.717748	0.161757	-0.356705	4.555527	0.038236	-0.009672	-0.017118	0.999738	0.000809	-0.001783	0.022776	
43923	    0	4.877712	-1.615344	-1.230176	0.194571	-0.446941	5.091650	0.049194	-0.014893	-0.012207	0.999673	0.000973	-0.002234	0.025455	
43924	    0	6.043320	-1.722272	-0.777441	0.201442	-0.521346	5.561027	0.060901	-0.015526	-0.007632	0.999609	0.001007	-0.002606	0.027802	
43925	    0	7.173576	-1.680039	-0.356478	0.189428	-0.617311	5.964029	0.072205	-0.014648	-0.003357	0.999550	0.000947	-0.003086	0.029816	
43926	    0	8.345836	-1.529610	0.153250	0.154331	-0.706029	6.327936	0.083880	-0.012648	0.001818	0.999493	0.000772	-0.003530	0.031634	
43927	    0	9.233837	-1.222870	0.610438	0.167878	-0.807913	6.652552	0.092651	-0.009155	0.006470	0.999438	0.000839	-0.004039	0.033257	
43928	    0	10.096547	-1.008593	1.466395	0.253539	-0.914952	6.956385	0.101167	-0.006588	0.015117	0.999383	0.001267	-0.004574	0.034775	
43929	    0	11.300704	-0.982465	2.006528	0.519105	-1.030960	7.212144	0.113159	-0.005798	0.020630	0.999332	0.002595	-0.005154	0.036053	
43930	    0	12.781454	-0.254881	2.589417	0.837715	-1.112056	7.400163	0.127648	0.002067	0.026607	0.999290	0.004188	-0.005559	0.036992	
43931	    0	14.543642	0.795171	2.952337	1.185139	-1.108635	7.543528	0.144836	0.013245	0.030396	0.999255	0.005924	-0.005542	0.037708	
43932	    0	16.582013	2.435834	2.795195	1.510057	-1.020696	7.670291	0.164583	0.030471	0.029009	0.999223	0.007548	-0.005102	0.038342	
43933	    0	18.994238	5.336784	1.849804	1.637698	-0.785843	7.722973	0.187622	0.060486	0.019714	0.999213	0.008186	-0.003928	0.038605	
43934	    0	20.831226	8.242273	0.666814	1.607156	-0.415144	7.605756	0.204965	0.090201	0.007800	0.999242	0.008034	-0.002075	0.038019	
43935	    0	22.258810	11.199202	-0.229569	1.656725	-0.093673	7.270972	0.218323	0.119995	-0.001221	0.999305	0.008282	-0.000468	0.036346	
43936	    0	23.684286	14.701705	-1.053133	1.757022	0.114655	6.726285	0.231714	0.154954	-0.009327	0.999395	0.008783	0.000573	0.033625	
43937	    0	23.606287	17.786247	-3.017600	1.936842	0.187713	5.895417	0.230652	0.184998	-0.028625	0.999517	0.009683	0.000938	0.029472	
43938	    0	22.153455	22.175589	-5.590197	2.002373	0.058181	4.839306	0.216059	0.227573	-0.053706	0.999657	0.010011	0.000291	0.024194	
43939	    0	18.697976	27.649902	-6.879275	1.792460	-0.206771	3.656259	0.181946	0.280457	-0.066101	0.999792	0.008962	-0.001034	0.018280	
43940	    0	14.656299	32.546601	-5.516775	1.351781	-0.421156	2.383499	0.142780	0.327544	-0.052655	0.999904	0.006759	-0.002106	0.011917	
43941	    0	11.368838	34.250318	-3.250532	0.909623	-0.434880	1.095591	0.111877	0.343262	-0.030701	0.999971	0.004548	-0.002174	0.005478	
43942	    0	12.824071	33.733421	-2.306068	0.598527	-0.367356	-0.162316	0.128555	0.337296	-0.021815	0.999993	0.002993	-0.001837	-0.000812	
43943	    0	10.924402	33.184243	-1.738509	0.519567	-0.301173	-1.390089	0.111572	0.331116	-0.016357	0.999970	0.002598	-0.001506	-0.006950	
43944	    0	11.615381	31.199464	-5.321376	0.737785	-0.370991	-2.599034	0.120294	0.310642	-0.051846	0.999907	0.003689	-0.001855	-0.012995	
43945	    0	16.269721	34.537724	-20.010002	1.607085	-0.881274	-4.260636	0.170898	0.343384	-0.196594	0.999731	0.008035	-0.004406	-0.021301	
43946	    0	42.328668	8.943359	-4.149603	0.194191	0.011064	-5.345219	0.425473	0.078121	-0.041440	0.999642	0.000971	0.000055	-0.026723	
43947	    0	29.592540	-5.232971	-2.119478	0.391433	-1.038290	-5.142042	0.294556	-0.059875	-0.019775	0.999654	0.001957	-0.005191	-0.025707	
43948	    0	19.800886	-10.194216	-1.016586	1.131220	-1.729259	-5.483077	0.195198	-0.107266	-0.009067	0.999571	0.005655	-0.008645	-0.027411	
43949	    0	11.627572	-4.476000	1.763685	0.742447	-1.788398	-5.562633	0.114807	-0.048035	0.018494	0.999566	0.003712	-0.008941	-0.027809	
43950	    0	0.442685	20.558608	1.203246	0.431879	-1.828617	-5.197805	0.009653	0.205354	0.012548	0.999618	0.002159	-0.009142	-0.025986	
43951	    0	4.457750	24.681196	-3.850305	-0.157943	-1.262594	-4.597146	0.050476	0.245667	-0.038391	0.999715	-0.000790	-0.006312	-0.022984	
43952	    0	0.739728	6.232358	-5.177007	0.154886	-1.194263	-3.608158	0.008829	0.062213	-0.051672	0.999819	0.000774	-0.005971	-0.018040	
43953	    0	4.267227	2.252316	-4.884497	0.312056	-0.768887	-3.195336	0.043213	0.021912	-0.048645	0.999864	0.001560	-0.003844	-0.015976	
43954	    0	12.844776	8.150740	-4.164707	0.119595	-0.572034	-2.856928	0.129713	0.079685	-0.041229	0.999893	0.000598	-0.002860	-0.014284	
43955	    0	14.592037	6.805653	-4.034349	-0.338754	-0.486578	-2.492591	0.146851	0.066162	-0.040100	0.999917	-0.001694	-0.002433	-0.012463	
43956	    0	11.698574	5.384435	-5.539517	-0.566495	-0.354202	-2.203036	0.117666	0.052394	-0.055337	0.999933	-0.002832	-0.001771	-0.011015	
43957	    0	14.282739	4.807830	-5.622543	-0.529489	-0.275998	-1.984441	0.143372	0.046509	-0.056152	0.999946	-0.002647	-0.001380	-0.009922	
43958	    0	16.311406	4.017902	-3.809090	-0.342374	-0.294690	-1.841573	0.163530	0.038610	-0.037917	0.999954	-0.001712	-0.001473	-0.009208	
43959	    0	14.707074	4.732089	-3.918115	-0.522429	-0.160219	-1.543444	0.147461	0.046082	-0.039185	0.999966	-0.002612	-0.000801	-0.007717	
43960	    0	11.898308	3.931012	-5.182733	-0.677115	0.068474	-1.281177	0.119213	0.038371	-0.051999	0.999973	-0.003386	0.000342	-0.006406	
43961	    0	12.416143	4.486984	-6.751265	-0.617795	0.258638	-1.151284	0.124329	0.043945	-0.067810	0.999977	-0.003089	0.001293	-0.005756	
43962	    0	17.201892	5.171873	-6.240669	-0.759894	0.500874	-1.101312	0.172142	0.050532	-0.063031	0.999974	-0.003799	0.002504	-0.005507	
43963	    0	19.122630	0.459107	-6.123708	-1.127446	0.660713	-0.927744	0.191040	0.003357	-0.061890	0.999968	-0.005637	0.003304	-0.004639	
43964	    0	20.407849	1.793370	-5.521633	-1.261346	0.699243	-0.992978	0.203968	0.016569	-0.056037	0.999961	-0.006307	0.003496	-0.004965	
43965	    0	22.490019	2.808942	-3.225647	-1.679070	0.747694	-1.013965	0.224915	0.026672	-0.033325	0.999945	-0.008395	0.003738	-0.005070	
43966	    0	22.291577	-0.490370	-1.294558	-2.180347	0.748654	-0.945879	0.222838	-0.006104	-0.013718	0.999922	-0.010901	0.003743	-0.004729	
43967	    0	19.894271	-3.614032	0.444980	-2.525411	0.705932	-0.906401	0.198792	-0.036987	0.004211	0.999904	-0.012627	0.003530	-0.004532	
43968	    0	18.135111	-3.495687	1.691015	-2.767476	0.680568	-0.946080	0.181241	-0.035582	0.016783	0.999887	-0.013837	0.003403	-0.004730	
43969	    0	17.116020	-4.219675	2.068266	-2.884790	0.636508	-0.966683	0.171021	-0.042725	0.020752	0.999879	-0.014423	0.003182	-0.004833	
43970	    0	14.943806	-6.498195	2.302811	-3.016983	0.647573	-0.887909	0.149224	-0.065292	0.023528	0.999870	-0.015084	0.003238	-0.004439	
43971	    0	11.778844	-7.442306	1.669225	-2.831948	0.704220	-0.791198	0.117554	-0.074646	0.017334	0.999886	-0.014159	0.003521	-0.003956	
43972	    0	9.759327	-6.324339	0.296823	-2.344580	0.788711	-0.835824	0.097341	-0.063613	0.003328	0.999914	-0.011723	0.003943	-0.004179	
43973	    0	9.343935	-5.511231	-1.485866	-1.550321	0.865380	-1.068134	0.093079	-0.055725	-0.014832	0.999946	-0.007751	0.004327	-0.005341	
43974	    0	9.380100	-3.764644	-3.880319	-0.823796	0.866903	-1.484130	0.093349	-0.038501	-0.039051	0.999954	-0.004119	0.004334	-0.007421	
43975	    0	9.452492	-3.766566	-3.682398	-0.283056	0.850885	-1.947822	0.093994	-0.038635	-0.037170	0.999942	-0.001415	0.004254	-0.009739	
43976	    0	8.709589	-3.597641	-5.056586	0.133136	0.691431	-2.299936	0.086499	-0.036940	-0.050890	0.999928	0.000666	0.003457	-0.011499	
43977	    0	9.801690	-4.061607	-4.143575	0.551814	0.531023	-2.681056	0.097351	-0.041809	-0.041809	0.999903	0.002759	0.002655	-0.013405	
43978	    0	10.136765	-3.288776	-4.041536	0.679807	0.366226	-3.038149	0.100780	-0.034284	-0.040715	0.999877	0.003399	0.001831	-0.015190	
43979	    0	9.904736	-3.006350	-3.989484	0.746194	0.304620	-3.450956	0.098450	-0.031616	-0.040161	0.999843	0.003731	0.001523	-0.017254	
43980	    0	10.262124	-2.888962	-3.887445	0.793507	0.253884	-3.787087	0.102002	-0.030670	-0.039124	0.999811	0.003967	0.001269	-0.018934	
43981	    0	9.682394	-1.941120	-3.959161	0.583117	0.170147	-4.029362	0.096375	-0.021240	-0.039734	0.999792	0.002915	0.000851	-0.020145	
43982	    0	9.539092	-1.740412	-3.944142	-0.027659	0.153171	-4.126270	0.094975	-0.019372	-0.039512	0.999786	-0.000138	0.000766	-0.020630	
43983	    0	13.777951	-0.413623	-4.091678	-0.894231	0.094802	-4.098811	0.137634	-0.007141	-0.040955	0.999780	-0.004471	0.000474	-0.020493	
43984	    0	15.257014	-6.317948	-3.887631	-1.719608	0.013734	-3.961871	0.151272	-0.066516	-0.038324	0.999766	-0.008597	0.000069	-0.019808	
43985	    0	13.766113	-8.462786	-3.323535	-2.269936	-0.037196	-3.879874	0.135986	-0.087646	-0.032227	0.999747	-0.011349	-0.000186	-0.019398	
43986	    0	14.467503	-7.290257	-3.714897	-2.576481	-0.038341	-3.792714	0.143259	-0.076098	-0.036155	0.999737	-0.012881	-0.000192	-0.018962	
43987	    0	16.475654	-7.257773	-4.517125	-2.589629	0.060468	-3.608237	0.163391	-0.076111	-0.044250	0.999753	-0.012947	0.000302	-0.018040	
43988	    0	20.424112	-8.566491	-5.178736	-1.963359	0.214781	-3.373361	0.202697	-0.089597	-0.051139	0.999808	-0.009816	0.001074	-0.016866	
43989	    0	23.485733	-9.619769	-5.251431	-1.100973	0.340478	-3.141931	0.233215	-0.100159	-0.052368	0.999860	-0.005505	0.001702	-0.015709	
43990	    0	23.123380	-9.360629	-4.177490	-0.276766	0.327884	-2.830793	0.229809	-0.096924	-0.042020	0.999897	-0.001384	0.001639	-0.014153	
43991	    0	19.371643	-7.537001	-3.180179	0.256354	0.148205	-2.453676	0.192749	-0.077698	-0.032043	0.999923	0.001282	0.000741	-0.012268	
43992	    0	13.871202	-4.545388	-2.201490	0.417526	0.032044	-1.997601	0.138246	-0.046790	-0.022134	0.999948	0.002088	0.000160	-0.009988	
43993	    0	10.075554	-3.095007	-2.180697	0.534063	0.041390	-1.440444	0.100525	-0.031616	-0.021912	0.999970	0.002670	0.000207	-0.007202	
43994	    0	8.632376	-3.123974	-2.928786	0.773625	0.110627	-0.898176	0.086166	-0.031513	-0.029457	0.999982	0.003868	0.000553	-0.004491	
43995	    0	7.436280	-2.872582	-3.378151	1.062208	0.168611	-0.379183	0.074280	-0.028687	-0.033997	0.999983	0.005311	0.000843	-0.001896	
43996	    0	5.415559	-1.784202	-3.140691	1.309214	0.226023	0.173761	0.054135	-0.017589	-0.031584	0.999977	0.006546	0.001130	0.000869	
43997	    0	3.750643	-0.193658	-2.734081	1.466578	0.274661	0.794229	0.037476	-0.001587	-0.027405	0.999964	0.007333	0.001373	0.003971	
43998	    0	2.796777	0.947867	-2.408637	1.450375	0.318915	1.510267	0.027856	0.009864	-0.024060	0.999944	0.007252	0.001595	0.007551	
43999	    0	2.505288	1.470124	-2.276044	1.343576	0.364124	2.270575	0.024841	0.015137	-0.022705	0.999911	0.006718	0.001821	0.011353	
44000	    0	2.543106	1.270990	-2.575927	1.199013	0.374429	3.033774	0.025185	0.013247	-0.025728	0.999865	0.005995	0.001872	0.015168	
44001	    0	2.552579	0.726353	-2.574505	1.026410	0.402858	3.763058	0.025330	0.007874	-0.025757	0.999807	0.005132	0.002014	0.018814	
44002	    0	2.804075	0.302662	-2.492155	0.946126	0.384173	4.424857	0.027915	0.003763	-0.024959	0.999742	0.004730	0.001921	0.022122	
44003	    0	3.438405	-0.138729	-2.276366	0.872897	0.350418	5.006950	0.034363	-0.000427	-0.022827	0.999675	0.004364	0.001752	0.025032	
44004	    0	4.513481	-0.467160	-2.348548	0.829042	0.288238	5.522112	0.045205	-0.003326	-0.023566	0.999609	0.004145	0.001441	0.027607	
44005	    0	5.653277	-0.153214	-2.404989	0.689230	0.204499	5.990746	0.056519	0.000244	-0.024109	0.999544	0.003446	0.001022	0.029949	
44006	    0	6.492500	0.321110	-2.522773	0.478446	0.098436	6.439565	0.064763	0.005359	-0.025249	0.999478	0.002392	0.000492	0.032192	
44007	    0	7.441587	0.585014	-2.247416	0.209087	-0.014308	6.866279	0.074158	0.008423	-0.022461	0.999410	0.001045	-0.000072	0.034325	
44008	    0	8.354763	0.247083	-1.371266	0.091000	-0.165975	7.225465	0.083397	0.005492	-0.013641	0.999347	0.000455	-0.000830	0.036119	
44009	    0	9.380192	0.093909	-0.537081	0.264230	-0.380796	7.487718	0.093689	0.004456	-0.005188	0.999296	0.001321	-0.001904	0.037430	
44010	    0	10.601301	0.720149	0.060340	0.656671	-0.618896	7.633944	0.105633	0.011236	0.000963	0.999261	0.003283	-0.003094	0.038160	
44011	    0	12.692118	2.096663	-0.009348	1.144707	-0.798052	7.780956	0.125977	0.025879	0.000549	0.999219	0.005722	-0.003989	0.038895	
44012	    0	15.413918	3.818507	-0.568769	1.540795	-0.855679	7.893043	0.152493	0.044265	-0.004707	0.999182	0.007702	-0.004277	0.039454	
44013	    0	18.175152	5.206805	-1.545525	1.879069	-0.843282	7.897852	0.179565	0.059326	-0.014160	0.999166	0.009393	-0.004215	0.039478	
44014	    0	21.006009	7.313219	-2.584762	2.209701	-0.845952	7.787374	0.207099	0.081509	-0.024097	0.999171	0.011045	-0.004229	0.038926	
44015	    0	23.747163	11.866231	-2.697639	2.168267	-0.771533	7.566517	0.232849	0.127808	-0.024719	0.999218	0.010839	-0.003857	0.037823	
44016	    0	25.041026	17.068732	-2.069719	1.741804	-0.584735	7.146167	0.244153	0.179654	-0.018438	0.999319	0.008707	-0.002923	0.035723	
44017	    0	24.771280	21.535344	-2.566241	1.257554	-0.387453	6.486932	0.240601	0.223389	-0.023804	0.999452	0.006287	-0.001937	0.032429	
44018	    0	23.774106	23.479604	-4.760474	0.908784	-0.241884	5.614467	0.231079	0.241558	-0.046235	0.999595	0.004543	-0.001209	0.028069	
44019	    0	19.851023	24.679535	-7.145651	0.701392	-0.212115	4.475786	0.192993	0.251404	-0.070374	0.999743	0.003507	-0.001060	0.022377	
44020	    0	15.227597	27.952679	-7.957107	0.551249	-0.346581	3.268965	0.147815	0.282185	-0.078537	0.999861	0.002756	-0.001733	0.016344	
44021	    0	12.099203	32.884874	-6.191988	0.070192	-0.472841	2.137036	0.117615	0.330139	-0.061523	0.999940	0.000351	-0.002364	0.010685	
44022	    0	9.338495	33.516100	-3.121499	-0.464824	-0.460246	1.012999	0.091759	0.335555	-0.031782	0.999981	-0.002324	-0.002301	0.005065	
44023	    0	9.886589	30.669282	-0.808178	-0.796321	-0.297547	-0.157929	0.099121	0.306580	-0.009155	0.999990	-0.003982	-0.001488	-0.000790	
44024	    0	14.100611	28.635227	-0.556642	-1.026547	-0.296978	-1.317421	0.142898	0.285382	-0.006822	0.999964	-0.005133	-0.001485	-0.006587	
44025	    0	10.446238	24.774143	0.104815	-0.785847	-0.312622	-2.298794	0.107300	0.246521	0.000244	0.999925	-0.003929	-0.001563	-0.011494	
44026	    0	13.146803	23.366253	-4.011899	0.201616	-0.542285	-3.347176	0.135462	0.231458	-0.039521	0.999855	0.001008	-0.002711	-0.016735	
44027	    0	33.674905	15.980827	-0.615429	0.863736	0.039105	-4.882550	0.340515	0.151550	-0.005554	0.999692	0.004318	0.000196	-0.024410	
44028	    0	37.886762	-4.263302	3.141626	0.956449	-0.491196	-4.992646	0.377565	-0.052222	0.032110	0.999674	0.004782	-0.002456	-0.024961	
44029	    0	20.378018	-9.534410	-2.496823	2.075489	-1.621285	-5.194826	0.201416	-0.100342	-0.024353	0.999576	0.010376	-0.008105	-0.025970	
44030	    0	17.206872	-5.137139	-0.139594	1.843932	-1.909555	-5.522257	0.170569	-0.056089	-0.000265	0.999530	0.009218	-0.009546	-0.027607	
44031	    0	3.133614	9.799582	-0.666738	1.077417	-2.080628	-5.204716	0.033936	0.097168	-0.005798	0.999593	0.005386	-0.010402	-0.026020	
44032	    0	1.657163	27.631171	-3.435164	-0.040822	-1.490750	-4.799967	0.023451	0.275797	-0.034250	0.999683	-0.000204	-0.007453	-0.023997	
44033	    0	4.061442	15.555694	-7.400186	-0.386073	-1.237380	-3.787484	0.044006	0.154602	-0.074036	0.999799	-0.001930	-0.006186	-0.018936	
44034	    0	1.505462	-0.659189	-6.194563	-0.138479	-0.989193	-3.038154	0.015258	-0.006866	-0.061866	0.999871	-0.000692	-0.004946	-0.015190	
44035	    0	10.183700	8.044161	-3.088385	-0.251779	-0.670458	-2.891647	0.103088	0.078918	-0.030640	0.999888	-0.001259	-0.003352	-0.014458	
44036	    0	14.801145	5.864290	-2.976062	-0.400173	-0.597970	-2.442998	0.148801	0.056769	-0.029431	0.999918	-0.002001	-0.002990	-0.012215	
44037	    0	11.944348	2.701756	-4.419829	-0.257689	-0.580611	-2.317103	0.119873	0.025574	-0.043884	0.999928	-0.001288	-0.002903	-0.011585	
44038	    0	13.591470	6.356845	-6.473918	-0.458727	-0.401505	-2.158019	0.136719	0.061948	-0.064609	0.999937	-0.002294	-0.002007	-0.010790	
44039	    0	16.048789	4.419762	-5.402161	-0.611698	-0.398261	-1.930271	0.161011	0.042480	-0.053833	0.999947	-0.003058	-0.001991	-0.009651	
44040	    0	15.612680	4.428690	-4.275536	-0.641641	-0.363355	-1.672577	0.156567	0.042842	-0.042610	0.999958	-0.003208	-0.001817	-0.008363	
44041	    0	12.803330	4.276458	-3.811347	-0.753792	-0.195124	-1.361098	0.128357	0.041748	-0.038147	0.999969	-0.003769	-0.000976	-0.006805	
44042	    0	12.596740	5.984754	-4.969715	-0.749022	0.004768	-1.165209	0.126311	0.058926	-0.049922	0.999975	-0.003745	0.000024	-0.005826	
44043	    0	15.772330	6.646821	-6.821405	-0.953491	0.251009	-0.978859	0.157959	0.065369	-0.068726	0.999975	-0.004767	0.001255	-0.004894	
44044	    0	19.248087	2.404025	-5.964692	-1.236547	0.450902	-0.854119	0.192445	0.022847	-0.060225	0.999969	-0.006183	0.002254	-0.004271	
44045	    0	20.099917	0.213682	-5.238220	-1.437205	0.523383	-0.838481	0.200867	0.000916	-0.052917	0.999962	-0.007186	0.002617	-0.004192	
44046	    0	21.804364	3.276171	-4.213829	-1.744874	0.630199	-0.916497	0.218055	0.031389	-0.043103	0.999946	-0.008724	0.003151	-0.004582	
44047	    0	22.967327	0.900625	-2.657330	-2.302423	0.695820	-0.873590	0.229614	0.007690	-0.027466	0.999918	-0.011512	0.003479	-0.004368	
44048	    0	20.879970	-3.860917	-1.529331	-2.658743	0.678658	-0.779178	0.208594	-0.039627	-0.015479	0.999898	-0.013293	0.003393	-0.003896	
44049	    0	18.401205	-3.898626	-0.167047	-2.868574	0.658443	-0.853000	0.183838	-0.039795	-0.001709	0.999882	-0.014342	0.003292	-0.004265	
44050	    0	17.291675	-3.999097	0.373309	-3.076881	0.649100	-0.877801	0.172751	-0.040691	0.003795	0.999866	-0.015384	0.003245	-0.004389	
44051	    0	15.503184	-6.551864	0.698078	-3.198966	0.680574	-0.824777	0.154785	-0.066040	0.007507	0.999857	-0.015994	0.003403	-0.004124	
44052	    0	12.786705	-7.237982	0.621754	-3.097671	0.712426	-0.728067	0.127626	-0.072742	0.006887	0.999866	-0.015488	0.003562	-0.003640	
44053	    0	10.833594	-7.573028	0.279987	-2.768045	0.800543	-0.672937	0.108093	-0.076050	0.003418	0.999890	-0.013840	0.004003	-0.003365	
44054	    0	9.969857	-6.673305	-1.121352	-1.978919	0.847454	-0.885220	0.099355	-0.067283	-0.010971	0.999931	-0.009894	0.004237	-0.004426	
44055	    0	10.054426	-4.688119	-3.110509	-1.209088	0.861373	-1.316092	0.100098	-0.047729	-0.031250	0.999950	-0.006045	0.004307	-0.006580	
44056	    0	9.747471	-3.307439	-2.991894	-0.572788	0.838105	-1.861607	0.097034	-0.034065	-0.030230	0.999944	-0.002864	0.004190	-0.009308	
44057	    0	8.884557	-3.744475	-4.363335	-0.008393	0.708978	-2.273613	0.088257	-0.038452	-0.043945	0.999928	-0.000042	0.003545	-0.011368	
44058	    0	10.316930	-4.476264	-3.973885	0.394643	0.557918	-2.728171	0.102435	-0.046084	-0.040115	0.999901	0.001973	0.002789	-0.013640	
44059	    0	10.984581	-4.563295	-4.283314	0.529503	0.468656	-3.151840	0.109009	-0.047241	-0.043213	0.999869	0.002647	0.002343	-0.015759	
44060	    0	10.361045	-5.028362	-4.139931	0.686685	0.401139	-3.636952	0.102592	-0.052012	-0.041782	0.999826	0.003433	0.002006	-0.018184	
44061	    0	9.966478	-3.850811	-4.080419	0.666855	0.282498	-3.981290	0.098816	-0.040344	-0.041077	0.999795	0.003334	0.001412	-0.019905	
44062	    0	9.682895	-2.895785	-4.784795	0.254077	0.185026	-4.124554	0.096161	-0.030885	-0.047976	0.999785	0.001270	0.000925	-0.020621	
44063	    0	9.638594	-1.470205	-4.903711	-0.606581	0.174917	-4.149932	0.096008	-0.016846	-0.049072	0.999780	-0.003033	0.000875	-0.020748	
44064	    0	14.287468	-1.147664	-5.320393	-1.700535	0.165189	-3.987243	0.142558	-0.014773	-0.053205	0.999764	-0.008502	0.000826	-0.019935	
44065	    0	14.308645	-8.460868	-3.976883	-2.481862	0.177017	-3.766952	0.141418	-0.087769	-0.038818	0.999744	-0.012408	0.000885	-0.018833	
44066	    0	13.207630	-9.886339	-3.139916	-2.842776	0.168052	-3.659576	0.130207	-0.101691	-0.030077	0.999731	-0.014213	0.000840	-0.018296	
44067	    0	12.940838	-9.035674	-3.126671	-2.931282	0.177018	-3.547219	0.127747	-0.093079	-0.030029	0.999735	-0.014655	0.000885	-0.017735	
44068	    0	13.958061	-9.063230	-3.422550	-2.763966	0.220698	-3.351285	0.137994	-0.093416	-0.033100	0.999763	-0.013819	0.001103	-0.016755	
44069	    0	17.015068	-9.739735	-4.135692	-2.017330	0.349637	-3.139680	0.168518	-0.100464	-0.040649	0.999824	-0.010086	0.001748	-0.015697	
44070	    0	20.335210	-10.958004	-4.467829	-0.847850	0.468654	-2.916069	0.201619	-0.112718	-0.044679	0.999882	-0.004239	0.002343	-0.014580	
44071	    0	21.047124	-10.725890	-4.159859	0.203902	0.502792	-2.644428	0.208923	-0.109985	-0.042236	0.999908	0.001019	0.002514	-0.013222	
44072	    0	18.716914	-8.444149	-3.276923	0.984791	0.392924	-2.307191	0.186114	-0.086429	-0.033558	0.999919	0.004924	0.001965	-0.011536	
44073	    0	14.517106	-5.087511	-2.566087	1.295500	0.260359	-1.873057	0.144653	-0.052063	-0.026184	0.999934	0.006477	0.001302	-0.009365	
44074	    0	11.001788	-3.275138	-2.368912	1.368925	0.250820	-1.299496	0.109773	-0.033301	-0.024054	0.999954	0.006845	0.001254	-0.006497	
44075	    0	9.165018	-3.015900	-2.935087	1.484889	0.325016	-0.730142	0.091492	-0.030273	-0.029724	0.999964	0.007424	0.001625	-0.003651	
44076	    0	7.746736	-3.002290	-3.680051	1.699660	0.403600	-0.185015	0.077365	-0.029779	-0.037210	0.999961	0.008498	0.002018	-0.000925	
44077	    0	6.231890	-1.732119	-3.752351	1.885445	0.507363	0.384528	0.062256	-0.016846	-0.037842	0.999950	0.009427	0.002537	0.001923	
44078	    0	4.786996	0.323677	-3.611269	1.938861	0.578893	1.022552	0.047747	0.003832	-0.036216	0.999935	0.009694	0.002894	0.005113	
44079	    0	3.842517	1.840760	-3.434042	1.743364	0.656337	1.758624	0.038147	0.019043	-0.034302	0.999917	0.008717	0.003282	0.008793	
44080	    0	3.380000	2.201120	-3.195995	1.389747	0.734548	2.581885	0.033393	0.022666	-0.031927	0.999886	0.006948	0.003673	0.012909	
44081	    0	3.512816	1.900830	-3.329365	1.056920	0.773663	3.394505	0.034668	0.019775	-0.033325	0.999834	0.005284	0.003868	0.016972	
44082	    0	3.622700	1.433285	-3.448483	0.789703	0.768721	4.161012	0.035784	0.015217	-0.034564	0.999768	0.003948	0.003843	0.020803	
44083	    0	3.856834	1.153960	-3.481197	0.618044	0.720478	4.836000	0.038147	0.012573	-0.034912	0.999696	0.003090	0.003602	0.024178	
44084	    0	4.628428	0.914166	-3.270312	0.481285	0.636372	5.442161	0.045907	0.010473	-0.032825	0.999621	0.002406	0.003181	0.027207	
44085	    0	5.805330	0.670904	-3.099417	0.313043	0.505142	5.967844	0.057739	0.008484	-0.031128	0.999550	0.001565	0.002525	0.029835	
44086	    0	7.045885	0.840076	-3.179605	0.123999	0.358263	6.482691	0.070080	0.010696	-0.031916	0.999473	0.000620	0.001791	0.032408	
44087	    0	8.219520	1.236114	-2.778677	-0.141745	0.235033	6.979263	0.081665	0.015198	-0.027893	0.999390	-0.000709	0.001175	0.034889	
44088	    0	9.201632	1.205051	-1.755562	-0.183338	0.030906	7.369184	0.091487	0.015412	-0.017583	0.999320	-0.000916	0.000154	0.036838	
44089	    0	10.112813	1.343583	-0.506631	0.080891	-0.230273	7.613688	0.100525	0.017273	-0.004944	0.999274	0.000404	-0.001151	0.038059	
44090	    0	11.268307	2.051614	0.154244	0.633971	-0.537435	7.716780	0.111775	0.024836	0.001918	0.999247	0.003169	-0.002687	0.038574	
44091	    0	13.270645	3.278782	0.213589	1.295811	-0.756080	7.788602	0.131287	0.037903	0.002869	0.999213	0.006477	-0.003779	0.038933	
44092	    0	15.831939	5.157130	-0.099119	1.897944	-0.856441	7.785615	0.156154	0.057681	0.000209	0.999187	0.009487	-0.004281	0.038918	
44093	    0	18.050363	7.713177	-0.738657	2.396483	-0.886781	7.733766	0.177368	0.084106	-0.005615	0.999170	0.011979	-0.004433	0.038658	
44094	    0	20.000607	10.285723	-1.444187	2.668353	-0.852820	7.632641	0.195939	0.110560	-0.012159	0.999173	0.013338	-0.004263	0.038153	
44095	    0	21.981949	13.026286	-1.744854	2.561849	-0.698079	7.410818	0.214844	0.138489	-0.014954	0.999225	0.012806	-0.003489	0.037045	
44096	    0	23.214103	15.666358	-1.982112	2.201770	-0.456723	7.023114	0.226488	0.164886	-0.017514	0.999320	0.011006	-0.002283	0.035108	
44097	    0	23.927333	19.043043	-3.593339	1.903317	-0.219005	6.416757	0.233032	0.198303	-0.033813	0.999439	0.009515	-0.001095	0.032078	
44098	    0	23.175615	21.773518	-5.885446	1.586758	-0.061044	5.613742	0.225533	0.224582	-0.057021	0.999574	0.007933	-0.000305	0.028065	
44099	    0	19.420599	23.013360	-8.389686	1.252293	-0.039677	4.609355	0.188843	0.235046	-0.082397	0.999714	0.006261	-0.000198	0.023045	
44100	    0	15.451631	25.921596	-9.808840	0.913479	-0.238813	3.505136	0.150053	0.262316	-0.096714	0.999835	0.004567	-0.001194	0.017525	
44101	    0	12.293053	31.024267	-8.190129	0.296219	-0.437176	2.431551	0.119324	0.311829	-0.081177	0.999922	0.001481	-0.002186	0.012157	
44102	    0	9.010099	31.611107	-5.189289	-0.334171	-0.471120	1.401533	0.088006	0.316646	-0.052213	0.999970	-0.001671	-0.002356	0.007008	
44103	    0	9.517362	28.293352	-2.917187	-0.667574	-0.311852	0.262452	0.094849	0.282959	-0.029968	0.999991	-0.003338	-0.001559	0.001312	
44104	    0	10.053674	26.842504	-1.429410	-0.793271	-0.210191	-0.785450	0.101605	0.267968	-0.015251	0.999984	-0.003966	-0.001051	-0.003927	
44105	    0	8.419317	24.193054	-1.099905	-0.717935	-0.201228	-1.586934	0.086121	0.241211	-0.011780	0.999961	-0.003590	-0.001006	-0.007935	
44106	    0	10.363558	18.730063	-1.232432	-0.512707	-0.347146	-2.296693	0.105799	0.186062	-0.012620	0.999928	-0.002563	-0.001736	-0.011483	
44107	    0	9.111293	15.032775	1.599724	-0.012208	-0.665882	-3.030517	0.093323	0.148926	0.016296	0.999879	-0.000061	-0.003329	-0.015152	
44108	    0	8.411900	11.197940	-3.325325	0.908713	-0.879529	-3.478821	0.086195	0.110641	-0.032372	0.999828	0.004543	-0.004397	-0.017393	
44109	    0	21.783130	-7.684446	-10.355629	1.203235	-0.420217	-3.779853	0.216553	-0.080322	-0.103577	0.999801	0.006016	-0.002101	-0.018898	
44110	    0	39.273417	1.368029	-2.226964	1.450144	-0.766466	-5.162870	0.392997	0.003691	-0.020713	0.999633	0.007250	-0.003832	-0.025811	
44111	    0	24.578891	3.611645	-1.836782	2.267021	-2.029521	-5.041469	0.246765	0.030090	-0.015503	0.999566	0.011333	-0.010146	-0.025204	
44112	    0	23.003015	0.936298	-2.079621	0.983549	-1.924559	-4.960284	0.230355	0.003747	-0.018553	0.999634	0.004917	-0.009622	-0.024798	
44113	    0	8.231056	13.640486	5.132691	0.168820	-2.059409	-4.808593	0.085022	0.134338	0.052307	0.999657	0.000844	-0.010296	-0.024040	
44114	    0	1.386818	15.586636	-2.244036	0.158706	-1.608038	-4.337126	0.017423	0.155532	-0.022186	0.999732	0.000793	-0.008039	-0.021684	
44115	    0	6.186828	10.728624	-6.018038	0.271051	-1.275716	-3.676838	0.064209	0.106201	-0.059631	0.999809	0.001355	-0.006378	-0.018383	
44116	    0	4.093069	4.673039	-6.764562	-0.044634	-1.000828	-3.026900	0.041969	0.046085	-0.067448	0.999872	-0.000223	-0.005004	-0.015134	
44117	    0	6.474727	7.565429	-4.687361	-0.308047	-0.721001	-2.671137	0.065918	0.074707	-0.046753	0.999903	-0.001540	-0.003605	-0.013355	
44118	    0	13.321518	4.844756	-4.175324	-0.374612	-0.538648	-2.329311	0.133879	0.046813	-0.041482	0.999927	-0.001873	-0.002693	-0.011646	
44119	    0	13.138926	5.021644	-6.032487	-0.488863	-0.401314	-2.068369	0.132019	0.048706	-0.060181	0.999941	-0.002444	-0.002007	-0.010342	
44120	    0	13.408246	4.464742	-6.096910	-0.450523	-0.271039	-1.870757	0.134574	0.043253	-0.060885	0.999952	-0.002253	-0.001355	-0.009354	
44121	    0	16.940053	4.846689	-5.979782	-0.539215	-0.202945	-1.686118	0.169861	0.046875	-0.059753	0.999960	-0.002696	-0.001015	-0.008430	
44122	    0	18.145839	3.773021	-5.183597	-0.754365	-0.103189	-1.417366	0.181746	0.036247	-0.051881	0.999968	-0.003772	-0.000516	-0.007087	
44123	    0	15.352110	1.810666	-4.229441	-0.754553	-0.002098	-1.195536	0.153625	0.017029	-0.042358	0.999974	-0.003773	-0.000010	-0.005978	
44124	    0	15.881563	4.601515	-5.200919	-0.775916	0.204279	-1.144609	0.159021	0.044903	-0.052347	0.999975	-0.003880	0.001021	-0.005723	
44125	    0	19.072612	3.289824	-4.588870	-1.065837	0.406841	-1.021586	0.190796	0.031677	-0.046448	0.999970	-0.005329	0.002034	-0.005108	
44126	    0	18.609433	1.313900	-4.293756	-1.400203	0.513656	-0.951589	0.186042	0.011950	-0.043502	0.999960	-0.007001	0.002568	-0.004758	
44127	    0	19.627904	1.147833	-3.318899	-1.733429	0.604450	-0.950639	0.196228	0.010254	-0.033875	0.999946	-0.008667	0.003022	-0.004753	
44128	    0	20.639703	1.038817	-2.244514	-2.174431	0.641457	-0.898383	0.206367	0.009212	-0.023211	0.999926	-0.010872	0.003207	-0.004492	
44129	    0	19.964670	-1.591159	-1.649213	-2.626888	0.634215	-0.837735	0.199524	-0.016968	-0.016907	0.999900	-0.013134	0.003171	-0.004189	
44130	    0	18.255762	-3.578799	-0.923614	-2.967193	0.586724	-0.828968	0.182380	-0.036681	-0.009232	0.999877	-0.014835	0.002934	-0.004145	
44131	    0	16.916267	-5.614494	0.410590	-3.178362	0.577572	-0.813331	0.168945	-0.056763	0.004517	0.999861	-0.015891	0.002888	-0.004066	
44132	    0	14.426058	-7.586388	0.914897	-3.313038	0.584822	-0.776520	0.143993	-0.076262	0.009989	0.999850	-0.016564	0.002924	-0.003882	
44133	    0	12.171444	-7.237702	0.945249	-3.202016	0.593595	-0.782812	0.121460	-0.072693	0.010254	0.999859	-0.016009	0.002968	-0.003914	
44134	    0	10.496440	-7.691761	0.726462	-2.876012	0.665309	-0.806840	0.104679	-0.077229	0.008025	0.999883	-0.014380	0.003326	-0.004034	
44135	    0	9.559242	-8.234370	-0.580642	-2.179775	0.721950	-1.013210	0.095154	-0.082886	-0.005249	0.999921	-0.010899	0.003610	-0.005066	
44136	    0	9.779201	-5.326738	-1.967289	-1.376751	0.736060	-1.507026	0.097314	-0.054137	-0.019661	0.999941	-0.006884	0.003680	-0.007535	
44137	    0	9.531383	-3.004687	-2.216910	-0.765246	0.733392	-2.095080	0.094910	-0.031128	-0.022400	0.999930	-0.003826	0.003667	-0.010475	
44138	    0	8.919720	-4.751873	-3.723207	-0.382244	0.578706	-2.537228	0.088476	-0.048716	-0.037396	0.999913	-0.001911	0.002893	-0.012686	
44139	    0	9.772451	-5.629104	-3.183427	-0.030519	0.448816	-2.972524	0.096802	-0.057739	-0.032043	0.999887	-0.000153	0.002244	-0.014862	
44140	    0	11.124464	-6.203960	-2.561439	0.310531	0.335518	-3.306161	0.110156	-0.063827	-0.025898	0.999861	0.001553	0.001678	-0.016530	
44141	    0	11.431231	-5.523117	-3.223055	0.480680	0.290888	-3.693605	0.113220	-0.057251	-0.032532	0.999825	0.002403	0.001454	-0.018467	
44142	    0	11.927213	-5.329136	-3.211433	0.605625	0.206962	-4.041954	0.118131	-0.055589	-0.032403	0.999790	0.003028	0.001035	-0.020208	
44143	    0	11.026310	-3.651260	-3.218082	0.552601	0.114450	-4.254477	0.109436	-0.038757	-0.032349	0.999769	0.002763	0.000572	-0.021271	
44144	    0	10.171002	-2.468139	-4.165735	0.160993	0.079161	-4.325442	0.101129	-0.026839	-0.041718	0.999765	0.000805	0.000396	-0.021626	
44145	    0	10.000260	-0.730948	-4.551193	-0.716455	0.103958	-4.225482	0.099792	-0.009583	-0.045532	0.999770	-0.003582	0.000520	-0.021126	
44146	    0	17.182672	-2.952008	-4.829815	-1.779311	0.129710	-3.897584	0.171171	-0.033289	-0.048124	0.999770	-0.008896	0.000648	-0.019486	
44147	    0	14.995345	-10.978027	-2.556225	-2.362057	0.149548	-3.661636	0.147888	-0.112793	-0.024353	0.999762	-0.011809	0.000748	-0.018307	
44148	    0	13.999511	-10.793280	-1.439832	-2.400967	0.191513	-3.588193	0.138014	-0.110584	-0.013214	0.999766	-0.012004	0.000957	-0.017940	
44149	    0	15.263328	-9.313237	-1.948365	-2.022684	0.283260	-3.380804	0.151001	-0.095886	-0.018738	0.999804	-0.010113	0.001416	-0.016903	
44150	    0	18.036988	-9.501949	-2.884417	-1.269402	0.399227	-3.127058	0.178796	-0.098005	-0.028586	0.999855	-0.006347	0.001996	-0.015635	
44151	    0	19.563376	-10.155504	-3.003989	-0.337994	0.482385	-2.840523	0.194092	-0.104370	-0.030334	0.999894	-0.001690	0.002412	-0.014202	
44152	    0	18.334544	-9.479990	-2.332587	0.528923	0.461973	-2.504038	0.182085	-0.097022	-0.024002	0.999915	0.002645	0.002310	-0.012520	
44153	    0	15.246462	-7.221393	-2.127324	1.030182	0.344093	-2.063035	0.151672	-0.073669	-0.021912	0.999931	0.005151	0.001720	-0.010315	
44154	    0	11.882458	-4.633115	-2.152505	1.067559	0.252727	-1.517318	0.118442	-0.047114	-0.021925	0.999956	0.005338	0.001264	-0.007586	
44155	    0	9.446816	-3.139314	-2.696524	1.028451	0.199320	-0.897987	0.094299	-0.031677	-0.027222	0.999976	0.005142	0.000997	-0.004490	
44156	    0	7.915600	-2.876420	-3.862407	1.026922	0.207711	-0.304605	0.079072	-0.028686	-0.038854	0.999985	0.005135	0.001039	-0.001523	
44157	    0	6.619305	-2.308376	-4.373307	1.047521	0.279428	0.265504	0.066162	-0.022766	-0.043945	0.999984	0.005238	0.001397	0.001328	
44158	    0	5.360115	-0.742992	-4.115940	1.055345	0.326731	0.849540	0.053564	-0.006985	-0.041285	0.999975	0.005277	0.001634	0.004248	
44159	    0	4.341655	0.969520	-3.634427	0.940145	0.368505	1.508352	0.043274	0.010193	-0.036377	0.999958	0.004701	0.001842	0.007542	
44160	    0	3.888333	1.860693	-2.952334	0.816174	0.397883	2.246721	0.038611	0.019162	-0.029523	0.999927	0.004081	0.001989	0.011233	
44161	    0	4.161933	1.948634	-2.854420	0.693730	0.432604	2.983212	0.041260	0.020203	-0.028564	0.999880	0.003469	0.002163	0.014915	
44162	    0	4.720926	1.687768	-2.898679	0.525696	0.432231	3.690364	0.046824	0.017820	-0.029042	0.999824	0.002628	0.002161	0.018451	
44163	    0	5.330693	1.721731	-3.008599	0.446355	0.398477	4.331552	0.052856	0.018433	-0.030151	0.999761	0.002232	0.001992	0.021656	
44164	    0	5.889151	1.969571	-2.781683	0.334583	0.352704	4.893987	0.058336	0.021174	-0.027885	0.999697	0.001673	0.001763	0.024467	
44165	    0	6.344636	1.926810	-2.307615	0.258096	0.261720	5.385480	0.062866	0.020996	-0.023132	0.999636	0.001290	0.001308	0.026924	
44166	    0	7.071057	1.848055	-2.230499	0.163483	0.139829	5.838652	0.070115	0.020552	-0.022338	0.999573	0.000817	0.000699	0.029189	
44167	    0	7.919927	1.888308	-2.392362	0.034529	0.014498	6.283840	0.078552	0.021362	-0.023926	0.999506	0.000173	0.000072	0.031414	
44168	    0	8.853772	1.832536	-2.054988	-0.102825	-0.127816	6.662266	0.087875	0.021250	-0.020504	0.999444	-0.000514	-0.000639	0.033305	
44169	    0	9.697669	1.573974	-1.637920	-0.054943	-0.308099	6.975446	0.096375	0.019104	-0.016235	0.999391	-0.000275	-0.001540	0.034870	
44170	    0	10.455518	1.903371	-0.920320	0.145944	-0.534746	7.209823	0.103803	0.022792	-0.008909	0.999346	0.000730	-0.002673	0.036041	
44171	    0	11.449135	2.735192	-0.618353	0.499268	-0.759299	7.362528	0.113403	0.031555	-0.005676	0.999311	0.002496	-0.003796	0.036804	
44172	    0	13.273996	3.661724	-0.304938	0.944553	-0.921850	7.443293	0.131267	0.041533	-0.002254	0.999286	0.004722	-0.004608	0.037208	
44173	    0	15.279805	4.807922	-0.473766	1.396713	-1.021827	7.476352	0.150879	0.053772	-0.003601	0.999264	0.006982	-0.005108	0.037373	
44174	    0	17.380076	6.596260	-0.520441	1.772940	-1.052927	7.441271	0.171208	0.072403	-0.003675	0.999254	0.008862	-0.005263	0.037197	
44175	    0	19.041792	8.387247	-0.254577	1.960466	-1.004844	7.300811	0.187195	0.090759	-0.000732	0.999272	0.009800	-0.005023	0.036495	
44176	    0	20.620560	10.553614	0.562698	1.800562	-0.804892	7.087398	0.202269	0.112690	0.007440	0.999323	0.009001	-0.004024	0.035429	
44177	    0	21.723458	13.256307	1.411632	1.469140	-0.467011	6.720539	0.212585	0.139648	0.015625	0.999405	0.007344	-0.002335	0.033596	
44178	    0	21.926932	16.445524	0.634632	1.297976	-0.128195	6.189424	0.214038	0.171087	0.007581	0.999499	0.006489	-0.000641	0.030942	
44179	    0	21.387852	17.896552	-2.442507	1.266837	0.104536	5.470995	0.208862	0.184875	-0.023376	0.999605	0.006333	0.000523	0.027351	
44180	    0	18.863962	19.285253	-6.455687	1.308755	0.089272	4.567767	0.184135	0.197510	-0.063357	0.999717	0.006543	0.000446	0.022837	
44181	    0	15.018868	23.781778	-8.392455	1.229929	-0.153169	3.497515	0.146057	0.240906	-0.082336	0.999827	0.006149	-0.000766	0.017487	
44182	    0	11.252421	30.085466	-7.009769	0.756093	-0.416958	2.387683	0.109064	0.302432	-0.068727	0.999919	0.003780	-0.002085	0.011938	
44183	    0	8.399955	31.376021	-3.864014	0.155832	-0.453190	1.308452	0.082031	0.314331	-0.038208	0.999975	0.000779	-0.002266	0.006542	
44184	    0	10.301227	28.843049	-1.048324	-0.288582	-0.320816	0.203705	0.102736	0.288520	-0.010735	0.999997	-0.001443	-0.001604	0.001019	
44185	    0	10.552556	27.142033	0.509073	-0.396539	-0.160981	-0.816348	0.106628	0.270996	0.004639	0.999989	-0.001983	-0.000805	-0.004082	
44186	    0	8.028758	24.377713	-0.214806	-0.115968	-0.162126	-1.604861	0.082242	0.243121	-0.002223	0.999967	-0.000580	-0.000811	-0.008024	
44187	    0	10.953029	18.165046	-1.291909	0.310715	-0.447093	-2.362881	0.111694	0.180359	-0.012390	0.999926	0.001554	-0.002235	-0.011814	
44188	    0	7.184690	15.310400	-0.314426	1.025246	-0.740466	-3.051324	0.074181	0.151997	-0.002091	0.999864	0.005126	-0.003702	-0.015256	
44189	    0	7.966205	15.394759	-15.769608	1.641391	-1.190271	-3.615066	0.083374	0.153748	-0.155945	0.999784	0.008206	-0.005951	-0.018074	
44190	    0	31.524375	-5.484783	-11.385004	0.967870	-0.254843	-4.381358	0.314095	-0.061187	-0.113735	0.999747	0.004839	-0.001274	-0.021905	
44191	    0	36.389381	9.205427	-0.461670	1.019603	-1.085033	-5.226778	0.366150	0.082520	-0.002197	0.999630	0.005097	-0.005424	-0.026131	
44192	    0	25.187195	3.646560	-3.233009	1.272928	-1.892700	-4.881496	0.252954	0.030495	-0.029733	0.999637	0.006364	-0.009462	-0.024405	
44193	    0	21.142664	-0.825482	2.335855	0.171870	-1.761050	-4.707069	0.210938	-0.013245	0.025208	0.999683	0.000859	-0.008804	-0.023533	
44194	    0	4.377979	15.234122	4.999652	-0.003052	-1.943406	-4.560365	0.046749	0.151299	0.050439	0.999692	-0.000015	-0.009716	-0.022799	
44195	    0	3.899427	12.201710	-3.413748	0.222033	-1.524285	-4.108759	0.041748	0.121216	-0.033691	0.999759	0.001110	-0.007621	-0.020542	
44196	    0	7.611410	10.004348	-6.447961	0.341436	-1.249580	-3.591946	0.078296	0.098760	-0.063826	0.999817	0.001707	-0.006248	-0.017959	
44197	    0	3.317021	3.762891	-6.315628	-0.025178	-1.022955	-3.030525	0.034058	0.037109	-0.062988	0.999871	-0.000126	-0.005115	-0.015152	
44198	    0	8.226933	6.302215	-6.020716	-0.240715	-0.695060	-2.670755	0.083309	0.061842	-0.059994	0.999904	-0.001204	-0.003475	-0.013353	
44199	    0	13.538244	4.700372	-5.429202	-0.484288	-0.479901	-2.333126	0.136047	0.045288	-0.054077	0.999926	-0.002421	-0.002399	-0.011665	
44200	    0	11.879951	4.845345	-5.751514	-0.493822	-0.350577	-2.058450	0.119390	0.047085	-0.057424	0.999942	-0.002469	-0.001753	-0.010292	
44201	    0	14.280871	4.775724	-5.160746	-0.359350	-0.248531	-1.870756	0.143311	0.046326	-0.051514	0.999953	-0.001797	-0.001243	-0.009354	
44202	    0	17.102215	5.703117	-5.831748	-0.546271	-0.151064	-1.611157	0.171517	0.055491	-0.058341	0.999963	-0.002731	-0.000755	-0.008056	
44203	    0	16.439576	2.408680	-5.260151	-0.742156	-0.017548	-1.293957	0.164551	0.022827	-0.052673	0.999971	-0.003711	-0.000088	-0.006470	
44204	    0	14.538423	2.492793	-4.520377	-0.613217	0.068665	-1.154145	0.145509	0.023950	-0.045328	0.999978	-0.003066	0.000343	-0.005771	
44205	    0	16.041429	4.702604	-4.812101	-0.642972	0.315096	-1.058967	0.160583	0.046021	-0.048523	0.999979	-0.003215	0.001575	-0.005295	
44206	    0	18.728801	3.167323	-4.445461	-0.952348	0.487332	-0.986489	0.187331	0.030536	-0.045058	0.999973	-0.004762	0.002437	-0.004932	
44207	    0	18.430312	0.153416	-3.640593	-1.254287	0.559432	-0.951397	0.184204	0.000427	-0.036926	0.999965	-0.006271	0.002797	-0.004757	
44208	    0	20.013197	1.809405	-2.574950	-1.604107	0.627337	-0.990312	0.200135	0.016892	-0.026516	0.999950	-0.008020	0.003137	-0.004951	
44209	    0	20.790449	0.591578	-1.334481	-2.107288	0.614371	-0.912497	0.207886	0.004822	-0.014038	0.999928	-0.010536	0.003072	-0.004562	
44210	    0	19.607528	-1.691953	-0.900248	-2.510339	0.557154	-0.888661	0.195971	-0.017906	-0.009328	0.999907	-0.012551	0.002786	-0.004443	
44211	    0	18.205640	-4.100811	0.433795	-2.858844	0.522824	-0.882755	0.181885	-0.041748	0.004456	0.999885	-0.014294	0.002614	-0.004414	
44212	    0	16.542413	-5.859446	1.157033	-3.029571	0.520347	-0.880470	0.165195	-0.059142	0.012033	0.999871	-0.015147	0.002602	-0.004402	
44213	    0	14.276858	-6.648465	1.310443	-3.077833	0.559450	-0.866737	0.142517	-0.066895	0.013733	0.999867	-0.015388	0.002797	-0.004333	
44214	    0	12.458972	-6.943607	0.957109	-2.923702	0.641276	-0.849377	0.124326	-0.069818	0.010191	0.999879	-0.014618	0.003206	-0.004247	
44215	    0	10.963553	-8.334639	-0.243637	-2.487832	0.685141	-0.898008	0.109253	-0.083862	-0.001770	0.999907	-0.012439	0.003426	-0.004490	
44216	    0	9.946952	-7.362741	-1.659607	-1.833002	0.705925	-1.149775	0.098986	-0.074347	-0.016267	0.999935	-0.009165	0.003530	-0.005749	
44217	    0	9.649818	-4.590866	-2.959134	-1.121351	0.691999	-1.664002	0.096008	-0.046875	-0.029663	0.999943	-0.005607	0.003460	-0.008320	
44218	    0	9.478498	-2.830793	-3.075175	-0.594917	0.712794	-2.241571	0.094349	-0.029459	-0.031002	0.999926	-0.002975	0.003564	-0.011208	
44219	    0	9.094553	-4.005355	-4.600391	-0.249489	0.554102	-2.673424	0.090271	-0.041321	-0.046204	0.999906	-0.001247	0.002770	-0.013367	
44220	    0	10.374827	-5.483679	-3.620269	0.081256	0.427072	-3.036618	0.102822	-0.056388	-0.036446	0.999882	0.000406	0.002135	-0.015182	
44221	    0	11.132729	-6.056198	-3.440088	0.285544	0.323502	-3.373118	0.110229	-0.062378	-0.034668	0.999855	0.001428	0.001617	-0.016865	
44222	    0	10.938832	-5.983276	-3.253716	0.463323	0.219167	-3.744730	0.108208	-0.061790	-0.032798	0.999821	0.002316	0.001096	-0.018723	
44223	    0	10.898221	-5.075789	-3.429272	0.478587	0.124368	-4.028597	0.107910	-0.052856	-0.034485	0.999794	0.002393	0.000622	-0.020142	
44224	    0	10.500773	-3.537107	-3.724195	0.225656	-0.006485	-4.186746	0.104239	-0.037517	-0.037280	0.999780	0.001128	-0.000032	-0.020932	
44225	    0	9.407464	-2.046366	-4.639158	-0.367573	-0.054936	-4.207924	0.093628	-0.022522	-0.046326	0.999777	-0.001838	-0.000275	-0.021038	
44226	    0	11.006865	0.893971	-4.816125	-1.497385	-0.021364	-4.053813	0.110220	0.006346	-0.048203	0.999766	-0.007486	-0.000107	-0.020267	
44227	    0	16.259836	-4.677545	-4.613373	-2.457632	0.003243	-3.724216	0.161682	-0.050354	-0.045532	0.999751	-0.012287	0.000016	-0.018620	
44228	    0	13.610169	-10.534347	-2.263286	-2.887979	0.007439	-3.563621	0.134192	-0.108058	-0.021091	0.999737	-0.014439	0.000037	-0.017817	
44229	    0	12.839172	-9.470868	-1.737616	-2.890834	0.012208	-3.490747	0.126709	-0.097168	-0.015991	0.999743	-0.014453	0.000061	-0.017452	
44230	    0	13.782973	-8.377546	-2.096097	-2.656564	0.093658	-3.305111	0.136408	-0.086307	-0.019890	0.999775	-0.013282	0.000468	-0.016524	
44231	    0	17.248594	-8.690130	-3.232161	-1.920424	0.243582	-3.073289	0.171082	-0.089844	-0.031677	0.999835	-0.009602	0.001218	-0.015366	
44232	    0	20.304746	-9.591777	-3.676755	-0.917087	0.374045	-2.821455	0.201597	-0.098937	-0.036696	0.999887	-0.004585	0.001870	-0.014107	
44233	    0	20.181274	-9.368319	-3.054573	-0.012017	0.402843	-2.494115	0.200562	-0.096191	-0.030945	0.999920	-0.000060	0.002014	-0.012470	
44234	    0	17.134747	-7.094558	-2.484339	0.655188	0.290495	-2.117773	0.170547	-0.072672	-0.025328	0.999937	0.003276	0.001452	-0.010589	
44235	    0	12.795158	-4.421234	-2.011302	0.920882	0.199321	-1.640344	0.127563	-0.045166	-0.020447	0.999955	0.004604	0.000997	-0.008202	
44236	    0	10.030446	-3.379329	-2.135888	1.101314	0.178720	-1.067363	0.100103	-0.034209	-0.021636	0.999969	0.005507	0.000894	-0.005337	
44237	    0	8.666637	-3.128622	-3.082219	1.309215	0.232889	-0.526433	0.086548	-0.031311	-0.031128	0.999974	0.006546	0.001164	-0.002632	
44238	    0	7.344987	-2.327592	-3.701574	1.496520	0.332645	0.009346	0.073389	-0.022994	-0.037311	0.999970	0.007483	0.001663	0.000047	
44239	    0	5.877206	-0.927423	-3.843702	1.690888	0.417334	0.541695	0.058716	-0.008789	-0.038635	0.999958	0.008454	0.002087	0.002708	
44240	    0	4.781816	0.623012	-3.819474	1.788938	0.504313	1.145386	0.047684	0.006845	-0.038256	0.999940	0.008945	0.002522	0.005727	
44241	    0	4.062664	1.965933	-3.441968	1.715898	0.571648	1.831868	0.040344	0.020325	-0.034363	0.999917	0.008579	0.002858	0.009159	
44242	    0	3.685483	2.840656	-3.274387	1.452502	0.655199	2.587609	0.036374	0.029117	-0.032654	0.999884	0.007262	0.003276	0.012938	
44243	    0	3.833666	2.560539	-3.309360	1.128449	0.711289	3.351012	0.037781	0.026428	-0.033081	0.999837	0.005642	0.003556	0.016754	
44244	    0	4.078435	1.360302	-3.379901	0.842157	0.730187	4.080695	0.040370	0.014572	-0.033887	0.999776	0.004210	0.003651	0.020402	
44245	    0	4.386032	0.611593	-3.429621	0.669926	0.689955	4.726105	0.043579	0.007263	-0.034424	0.999709	0.003349	0.003449	0.023628	
44246	    0	5.046091	0.590892	-3.144055	0.547664	0.606418	5.259562	0.050185	0.007318	-0.031574	0.999645	0.002738	0.003032	0.026295	
44247	    0	5.937106	0.830742	-3.234798	0.415860	0.481672	5.735049	0.059021	0.010071	-0.032471	0.999583	0.002079	0.002408	0.028671	
44248	    0	6.968124	1.272411	-3.283901	0.175504	0.337846	6.210948	0.069185	0.014907	-0.032944	0.999516	0.000877	0.001689	0.031050	
44249	    0	7.751852	1.778382	-3.190261	-0.112173	0.178751	6.639557	0.076843	0.020325	-0.031982	0.999448	-0.000561	0.000894	0.033192	
44250	    0	8.298021	1.549129	-2.514728	-0.255828	-0.021176	6.993004	0.082375	0.018347	-0.025161	0.999388	-0.001279	-0.000106	0.034958	
44251	    0	9.118759	1.197321	-1.696847	-0.115992	-0.288264	7.252569	0.090698	0.015259	-0.016846	0.999341	-0.000580	-0.001441	0.036255	
44252	    0	10.179688	1.575643	-0.845761	0.267854	-0.584737	7.412140	0.101144	0.019525	-0.008137	0.999308	0.001339	-0.002923	0.037052	
44253	    0	12.113528	2.279247	-0.403131	0.822648	-0.841535	7.528219	0.120178	0.027344	-0.003418	0.999274	0.004112	-0.004207	0.037632	
44254	    0	14.625076	3.538179	-0.269976	1.368677	-0.997032	7.598125	0.144776	0.040915	-0.001708	0.999242	0.006842	-0.004984	0.037981	
44255	    0	17.297930	5.441031	-0.637641	1.874457	-1.098918	7.593984	0.170776	0.060974	-0.004883	0.999220	0.009370	-0.005493	0.037960	
44256	    0	19.660631	7.546404	-1.170821	2.260606	-1.125629	7.487719	0.193654	0.082870	-0.009704	0.999219	0.011300	-0.005627	0.037429	
44257	    0	22.144829	10.810117	-0.831419	2.261148	-1.015532	7.289398	0.217346	0.116150	-0.005920	0.999259	0.011303	-0.005076	0.036438	
44258	    0	23.696556	14.009329	0.067528	1.814097	-0.714078	6.999602	0.231864	0.148250	0.002830	0.999340	0.009068	-0.003570	0.034990	
44259	    0	23.702842	17.434668	-0.398732	1.345501	-0.395275	6.501442	0.231201	0.181946	-0.002319	0.999447	0.006726	-0.001976	0.032501	
44260	    0	22.798362	18.615043	-2.766919	1.071133	-0.135823	5.830665	0.222445	0.192834	-0.026496	0.999560	0.005355	-0.000679	0.029149	
44261	    0	19.876009	19.257074	-6.458448	0.850958	-0.030521	4.960393	0.193909	0.197693	-0.063721	0.999683	0.004254	-0.000153	0.024799	
44262	    0	15.322185	21.895916	-8.639056	0.748493	-0.212111	3.891819	0.149010	0.222207	-0.085403	0.999803	0.003742	-0.001060	0.019458	
44263	    0	12.737248	27.387955	-7.141867	0.331890	-0.453774	2.817632	0.123657	0.275757	-0.070679	0.999896	0.001659	-0.002269	0.014088	
44264	    0	9.621226	30.070727	-3.433204	-0.306325	-0.507935	1.803044	0.093584	0.301506	-0.034554	0.999954	-0.001532	-0.002540	0.009015	
44265	    0	9.571494	28.290614	-0.905631	-0.827031	-0.328638	0.709538	0.094727	0.283203	-0.010071	0.999984	-0.004135	-0.001643	0.003548	
44266	    0	10.715617	26.814571	0.334514	-1.074034	-0.157357	-0.347712	0.107620	0.267972	0.001990	0.999983	-0.005370	-0.000787	-0.001739	
44267	    0	9.129524	24.673378	0.332030	-1.045810	-0.093843	-1.151287	0.092712	0.246216	0.002075	0.999969	-0.005229	-0.000469	-0.005756	
44268	    0	11.487676	21.652731	-1.258170	-0.935001	-0.274473	-1.972620	0.117023	0.215319	-0.013431	0.999939	-0.004675	-0.001372	-0.009863	
44269	    0	8.452976	16.079066	-0.332675	-0.296793	-0.482003	-2.741331	0.086731	0.159607	-0.003357	0.999902	-0.001484	-0.002410	-0.013706	
44270	    0	12.427230	16.195876	-9.447614	1.007714	-0.776910	-3.608924	0.127537	0.160149	-0.093175	0.999817	0.005038	-0.003884	-0.018044	
44271	    0	37.704549	-0.299783	-2.041874	1.246958	0.050359	-4.727644	0.376831	-0.011780	-0.020569	0.999701	0.006234	0.000252	-0.023636	
44272	    0	33.067268	3.606790	-1.448886	1.505660	-1.006825	-5.193030	0.331529	0.027566	-0.012592	0.999621	0.007527	-0.005033	-0.025962	
44273	    0	23.118713	-1.165853	-2.740295	1.915252	-1.817391	-5.233751	0.231018	-0.017456	-0.025452	0.999570	0.009575	-0.009086	-0.026165	
44274	    0	17.919941	-1.100590	2.068149	0.746251	-1.809163	-5.211549	0.178634	-0.015747	0.022246	0.999612	0.003731	-0.009045	-0.026054	
44275	    0	2.931798	15.107150	3.205283	0.091754	-1.819824	-4.984105	0.032776	0.150269	0.032410	0.999647	0.000459	-0.009098	-0.024918	
44276	    0	2.532381	18.916764	-2.977560	-0.157752	-1.359296	-4.380611	0.029660	0.188526	-0.029733	0.999736	-0.000789	-0.006796	-0.021901	
44277	    0	3.874895	8.421769	-7.421965	-0.010682	-1.245764	-3.582978	0.040710	0.083496	-0.073975	0.999820	-0.000053	-0.006228	-0.017914	
44278	    0	1.907395	4.225663	-6.378691	-0.167663	-0.875319	-3.063523	0.019997	0.041902	-0.063736	0.999872	-0.000838	-0.004376	-0.015317	
44279	    0	9.413236	7.656451	-4.204866	-0.447097	-0.604077	-2.687923	0.095276	0.075195	-0.041931	0.999902	-0.002235	-0.003020	-0.013439	
44280	    0	14.710453	3.511426	-3.373070	-0.482380	-0.463116	-2.347051	0.147580	0.033303	-0.033471	0.999925	-0.002412	-0.002316	-0.011735	
44281	    0	12.758796	4.456634	-6.128916	-0.463114	-0.363739	-2.179764	0.128174	0.043030	-0.061157	0.999936	-0.002316	-0.001819	-0.010899	
44282	    0	14.845829	5.391337	-6.351895	-0.519571	-0.232319	-1.996648	0.149059	0.052262	-0.063483	0.999946	-0.002598	-0.001162	-0.009983	
44283	    0	16.823519	3.301589	-4.808749	-0.465400	-0.223354	-1.818875	0.168579	0.031372	-0.047974	0.999955	-0.002327	-0.001117	-0.009094	
44284	    0	16.322735	4.458385	-4.161829	-0.613029	-0.091363	-1.518839	0.163578	0.043215	-0.041677	0.999966	-0.003065	-0.000457	-0.007594	
44285	    0	12.627469	4.421426	-4.594235	-0.683599	0.081063	-1.238261	0.126526	0.043274	-0.046143	0.999974	-0.003418	0.000405	-0.006191	
44286	    0	13.229885	5.848712	-5.653898	-0.664907	0.315096	-1.088913	0.132524	0.057577	-0.056940	0.999978	-0.003325	0.001575	-0.005445	
44287	    0	17.292453	4.747137	-6.021742	-0.897987	0.561719	-0.939186	0.172974	0.046387	-0.060913	0.999974	-0.004490	0.002809	-0.004696	
44288	    0	20.014207	1.136986	-5.405590	-1.220335	0.707062	-0.849543	0.199994	0.010187	-0.054828	0.999966	-0.006102	0.003535	-0.004248	
44289	    0	20.612180	0.699634	-4.211446	-1.445791	0.726519	-0.863660	0.205994	0.005798	-0.042908	0.999957	-0.007229	0.003633	-0.004318	
44290	    0	22.070180	1.987158	-2.534191	-1.820600	0.749412	-0.886362	0.220689	0.018657	-0.026342	0.999941	-0.009103	0.003747	-0.004432	
44291	    0	22.318451	-1.209115	-1.412767	-2.371282	0.712033	-0.769827	0.223083	-0.013123	-0.014771	0.999915	-0.011856	0.003560	-0.003849	
44292	    0	20.286552	-3.671965	-0.305767	-2.779680	0.642418	-0.769262	0.202712	-0.037543	-0.003191	0.999890	-0.013898	0.003212	-0.003846	
44293	    0	18.173904	-4.927019	1.107445	-3.120562	0.613621	-0.781285	0.181580	-0.049805	0.011292	0.999866	-0.015602	0.003068	-0.003906	
44294	    0	16.135339	-7.248906	1.480070	-3.280799	0.554684	-0.767745	0.161117	-0.072857	0.015547	0.999854	-0.016403	0.002773	-0.003839	
44295	    0	13.931711	-7.292032	1.909551	-3.308841	0.584440	-0.753821	0.139099	-0.073120	0.019897	0.999851	-0.016543	0.002922	-0.003769	
44296	    0	11.881276	-8.212041	1.338337	-3.150702	0.712427	-0.701173	0.118574	-0.082316	0.014256	0.999863	-0.015753	0.003562	-0.003506	
44297	    0	9.959809	-9.979680	-0.176106	-2.480203	0.796534	-0.821711	0.099182	-0.100220	-0.000916	0.999907	-0.012401	0.003983	-0.004108	
44298	    0	9.003144	-7.532993	-3.001401	-1.475934	0.823608	-1.271653	0.089426	-0.076120	-0.029823	0.999944	-0.007380	0.004118	-0.006358	
44299	    0	9.423286	-3.873445	-3.821164	-0.668921	0.793474	-1.985973	0.093689	-0.039795	-0.038452	0.999937	-0.003345	0.003967	-0.009930	
44300	    0	9.023614	-3.552049	-5.077997	-0.185781	0.700208	-2.538755	0.089597	-0.036708	-0.051061	0.999912	-0.000929	0.003501	-0.012693	
44301	    0	9.835229	-4.952593	-4.953651	0.065043	0.515004	-2.975577	0.097473	-0.050964	-0.049805	0.999886	0.000325	0.002575	-0.014877	
44302	    0	11.541275	-6.071978	-4.027468	0.250828	0.386638	-3.324665	0.114305	-0.062575	-0.040574	0.999859	0.001254	0.001933	-0.016623	
44303	    0	11.250786	-5.920902	-3.831062	0.287836	0.315875	-3.695892	0.111328	-0.061218	-0.038574	0.999826	0.001439	0.001579	-0.018478	
44304	    0	11.045023	-5.861595	-3.984796	0.293370	0.240152	-4.021537	0.109195	-0.060761	-0.040068	0.999796	0.001467	0.001201	-0.020106	
44305	    0	10.321977	-4.076949	-4.035081	0.096137	0.185599	-4.205633	0.102295	-0.042908	-0.040466	0.999778	0.000481	0.000928	-0.021027	
44306	    0	10.052671	-3.368290	-4.580489	-0.322557	0.105866	-4.209450	0.099763	-0.035862	-0.045801	0.999777	-0.001613	0.000529	-0.021046	
44307	    0	10.686316	-0.603138	-4.474457	-1.226899	0.077253	-4.080509	0.106689	-0.008484	-0.044739	0.999772	-0.006134	0.000386	-0.020401	
44308	    0	15.260095	-3.609874	-4.957855	-2.243411	0.038150	-3.747284	0.151873	-0.039502	-0.049177	0.999761	-0.011216	0.000191	-0.018735	
44309	    0	12.828593	-10.201934	-3.072421	-2.909911	0.034335	-3.499142	0.126465	-0.104675	-0.029236	0.999741	-0.014548	0.000172	-0.017494	
44310	    0	11.846082	-10.198641	-2.407121	-3.107534	0.020410	-3.368482	0.116714	-0.104320	-0.022474	0.999737	-0.015536	0.000102	-0.016841	
44311	    0	12.258528	-9.187811	-2.489266	-3.043611	0.045208	-3.181715	0.121094	-0.094177	-0.023499	0.999757	-0.015217	0.000226	-0.015907	
44312	    0	14.874981	-9.378190	-3.204796	-2.508509	0.157557	-2.919568	0.147331	-0.096333	-0.030967	0.999814	-0.012542	0.000788	-0.014597	
44313	    0	18.376572	-10.257214	-3.715732	-1.446590	0.306141	-2.677259	0.182312	-0.105286	-0.036682	0.999883	-0.007233	0.001531	-0.013386	
44314	    0	19.602646	-10.402515	-3.588540	-0.323685	0.380907	-2.409996	0.194685	-0.106435	-0.036086	0.999924	-0.001618	0.001904	-0.012050	
44315	    0	18.029615	-8.814237	-2.924862	0.621045	0.356491	-2.064555	0.179321	-0.089905	-0.029846	0.999940	0.003105	0.001782	-0.010323	
44316	    0	14.445381	-5.657813	-2.473798	1.107997	0.265507	-1.647977	0.143949	-0.057627	-0.025247	0.999949	0.005540	0.001328	-0.008240	
44317	    0	10.797538	-2.950123	-1.939428	1.275078	0.241092	-1.097883	0.107788	-0.029968	-0.019714	0.999964	0.006375	0.001205	-0.005489	
44318	    0	8.537700	-2.298416	-2.632858	1.436820	0.243952	-0.550085	0.085281	-0.023028	-0.026598	0.999969	0.007184	0.001220	-0.002750	
44319	    0	7.263343	-2.562428	-3.813819	1.597613	0.305370	-0.032044	0.072571	-0.025330	-0.038452	0.999967	0.007988	0.001527	-0.000160	
44320	    0	6.243740	-1.765378	-4.167508	1.765659	0.428778	0.482185	0.062389	-0.017134	-0.041962	0.999955	0.008828	0.002144	0.002411	
44321	    0	5.275072	-0.479930	-3.870136	1.893083	0.518810	1.068137	0.052673	-0.004150	-0.038879	0.999937	0.009465	0.002594	0.005341	
44322	    0	4.563055	1.116375	-3.623316	1.855902	0.579087	1.719905	0.045425	0.011891	-0.036257	0.999915	0.009279	0.002895	0.008599	
44323	    0	3.944115	2.690097	-3.433645	1.556644	0.600455	2.458281	0.039001	0.027649	-0.034241	0.999889	0.007783	0.003002	0.012291	
44324	    0	3.882340	2.998826	-3.511129	1.152479	0.623926	3.257156	0.038217	0.030816	-0.035055	0.999846	0.005762	0.003119	0.016285	
44325	    0	4.056103	2.272734	-3.677363	0.802670	0.618979	4.015637	0.039978	0.023682	-0.036804	0.999785	0.004013	0.003095	0.020077	
44326	    0	4.295930	1.416958	-3.684942	0.625479	0.547652	4.695002	0.042508	0.015286	-0.036920	0.999716	0.003127	0.002738	0.023473	
44327	    0	4.900550	0.985715	-3.532168	0.500738	0.433401	5.268716	0.048645	0.011230	-0.035400	0.999647	0.002503	0.002167	0.026340	
44328	    0	5.873430	0.509030	-3.237427	0.379043	0.278512	5.762140	0.058509	0.006840	-0.032444	0.999581	0.001895	0.001392	0.028807	
44329	    0	7.261823	0.337831	-3.066792	0.254291	0.107592	6.230410	0.072449	0.005676	-0.030701	0.999514	0.001271	0.000538	0.031147	
44330	    0	8.612153	0.638619	-2.737994	0.077834	-0.076690	6.642419	0.085856	0.009252	-0.027344	0.999448	0.000389	-0.000383	0.033206	
44331	    0	9.596893	0.788064	-2.069426	-0.003815	-0.262314	6.996821	0.095642	0.011230	-0.020569	0.999387	-0.000019	-0.001311	0.034977	
44332	    0	10.662206	0.795114	-1.398961	0.145563	-0.520058	7.259827	0.106276	0.011824	-0.013705	0.999337	0.000728	-0.002600	0.036291	
44333	    0	11.566569	1.262209	-0.538132	0.522926	-0.794405	7.408338	0.115112	0.016907	-0.004883	0.999302	0.002614	-0.003971	0.037033	
44334	    0	13.143382	2.223908	-0.147314	1.073909	-1.055594	7.513740	0.130480	0.027159	-0.000646	0.999266	0.005368	-0.005277	0.037560	
44335	    0	15.789511	4.386354	-0.152232	1.473618	-1.181145	7.654265	0.156067	0.049866	-0.000244	0.999223	0.007366	-0.005904	0.038261	
44336	    0	18.191510	6.201377	-0.136279	1.719170	-1.183253	7.720525	0.179343	0.068974	0.000277	0.999200	0.008594	-0.005915	0.038592	
44337	    0	19.815616	7.273445	-0.569849	2.053623	-1.136895	7.687922	0.195190	0.080322	-0.003784	0.999192	0.010265	-0.005683	0.038429	
44338	    0	21.575395	9.231109	-1.392061	2.292466	-1.051986	7.486955	0.212160	0.100442	-0.011678	0.999219	0.011459	-0.005259	0.037425	
44339	    0	23.839998	14.450910	-1.035376	2.046676	-0.803370	7.114528	0.233093	0.152954	-0.007874	0.999307	0.010231	-0.004016	0.035564	
44340	    0	24.320087	19.109640	-0.342494	1.556504	-0.427709	6.584475	0.236740	0.198978	-0.001386	0.999425	0.007781	-0.002138	0.032916	
44341	    0	22.919777	20.813829	-1.534609	1.272775	-0.176838	5.877809	0.222961	0.214844	-0.013794	0.999547	0.006363	-0.000884	0.029385	
44342	    0	20.697577	21.199548	-4.730743	1.209769	-0.088510	4.906604	0.201709	0.217268	-0.045914	0.999681	0.006048	-0.000443	0.024530	
44343	    0	17.162143	24.336150	-6.753365	1.223835	-0.205053	3.772984	0.167053	0.246948	-0.065857	0.999803	0.006119	-0.001025	0.018864	
44344	    0	13.348021	29.578454	-6.111940	0.979837	-0.381482	2.587784	0.129750	0.297773	-0.059414	0.999902	0.004899	-0.001907	0.012938	
