// Start Time: Unknown
// Update Rate: 100.0Hz
// Filter Profile: human (34.3)
// Firmware Version: 2.1.4
PacketCounter	SampleTimeFine	Acc_X	Acc_Y	Acc_Z	Gyr_X	Gyr_Y	Gyr_Z	VelInc_X	VelInc_Y	VelInc_Z	OriInc_q0	OriInc_q1	OriInc_q2	OriInc_q3	
31399	    0	14.212939	6.663929	-4.266918	-0.758187	-0.356300	-2.068372	0.142883	0.065002	-0.042664	0.999937	-0.003791	-0.001781	-0.010342	
31400	    0	16.325361	3.262384	-3.385549	-0.969521	-0.392920	-1.651027	0.163581	0.031111	-0.033688	0.999951	-0.004848	-0.001965	-0.008255	
31401	    0	14.660647	4.528478	-5.077403	-1.035130	-0.303654	-1.300064	0.146973	0.044067	-0.050781	0.999964	-0.005176	-0.001518	-0.006500	
31402	    0	17.641965	5.407729	-4.910486	-0.799949	-0.271609	-1.155482	0.176794	0.052860	-0.049078	0.999974	-0.004000	-0.001358	-0.005777	
31403	    0	18.664286	0.595037	-3.622377	-0.872048	-0.186731	-1.171123	0.186707	0.004700	-0.036072	0.999972	-0.004360	-0.000934	-0.005856	
31404	    0	20.465068	0.064846	-4.722442	-1.544594	-0.005150	-1.113336	0.204650	-0.000855	-0.047216	0.999954	-0.007723	-0.000026	-0.005567	
31405	    0	18.245749	-0.552527	-5.417824	-1.953165	-0.041009	-1.058219	0.182434	-0.007019	-0.054077	0.999938	-0.009766	-0.000205	-0.005291	
31406	    0	16.773157	-0.444266	-3.990179	-2.010391	-0.106432	-1.157596	0.167722	-0.005814	-0.039759	0.999932	-0.010052	-0.000532	-0.005788	
31407	    0	17.863579	1.371943	-1.505498	-2.411533	-0.014496	-1.146732	0.178711	0.012512	-0.015198	0.999910	-0.012057	-0.000072	-0.005733	
31408	    0	16.542725	-0.326215	-0.726094	-2.900620	0.106816	-1.025813	0.165403	-0.004216	-0.007293	0.999881	-0.014503	0.000534	-0.005129	
31409	    0	15.979787	0.253382	-1.825499	-3.090043	0.187882	-1.059007	0.159790	0.001404	-0.018433	0.999866	-0.015450	0.000939	-0.005295	
31410	    0	16.545114	-2.066555	-1.516985	-3.243225	0.273337	-1.124628	0.165310	-0.021840	-0.015048	0.999851	-0.016215	0.001367	-0.005623	
31411	    0	16.041360	-6.379767	-1.094761	-3.407281	0.277725	-1.131500	0.160034	-0.064880	-0.010071	0.999838	-0.017035	0.001389	-0.005657	
31412	    0	14.537506	-7.678996	-1.262132	-3.438568	0.294129	-1.175183	0.144902	-0.077847	-0.011502	0.999833	-0.017192	0.001471	-0.005876	
31413	    0	13.474286	-6.502243	-1.896234	-3.234839	0.251020	-1.344368	0.134277	-0.066223	-0.018066	0.999846	-0.016173	0.001255	-0.006721	
31414	    0	12.543753	-4.154435	-2.841238	-2.845893	0.265896	-1.636388	0.125052	-0.042969	-0.027974	0.999864	-0.014229	0.001329	-0.008182	
31415	    0	11.360765	-3.346575	-4.707804	-2.249992	0.219925	-1.944042	0.113220	-0.035095	-0.046814	0.999888	-0.011250	0.001100	-0.009720	
31416	    0	10.097319	-2.614849	-6.263297	-1.763023	0.126271	-2.263338	0.100625	-0.027840	-0.062456	0.999896	-0.008815	0.000631	-0.011316	
31417	    0	9.922617	-2.492271	-5.936300	-1.438192	0.057413	-2.550598	0.098877	-0.026611	-0.059204	0.999892	-0.007191	0.000287	-0.012753	
31418	    0	10.109111	-1.541960	-4.656408	-1.289611	0.039865	-2.842065	0.100846	-0.017154	-0.046477	0.999878	-0.006448	0.000199	-0.014210	
31419	    0	10.499364	-1.546614	-3.938670	-1.139118	0.028421	-3.019845	0.104736	-0.017273	-0.039307	0.999869	-0.005695	0.000142	-0.015099	
31420	    0	11.248008	-2.058042	-3.648270	-1.008270	0.013161	-3.125331	0.112136	-0.022518	-0.036380	0.999865	-0.005041	0.000066	-0.015626	
31421	    0	11.664119	-1.813786	-3.262808	-0.826301	-0.027276	-3.210596	0.116333	-0.020142	-0.032532	0.999862	-0.004131	-0.000136	-0.016052	
31422	    0	11.029951	-0.994244	-2.892513	-0.600271	0.000191	-3.321424	0.110113	-0.011859	-0.028892	0.999857	-0.003001	0.000001	-0.016606	
31423	    0	10.595694	-0.909309	-1.479975	-0.238812	0.083355	-3.428819	0.105774	-0.010925	-0.014832	0.999852	-0.001194	0.000417	-0.017143	
31424	    0	10.562034	1.182745	-0.847733	0.234235	0.064663	-3.590015	0.105807	0.009939	-0.008499	0.999838	0.001171	0.000323	-0.017949	
31425	    0	11.548354	3.934500	-2.786803	0.092321	0.073437	-3.563116	0.116150	0.037292	-0.027893	0.999841	0.000462	0.000367	-0.017815	
31426	    0	11.987165	0.052004	-2.410734	-0.402470	0.159844	-3.379031	0.119838	-0.001554	-0.024201	0.999854	-0.002012	0.000799	-0.016894	
31427	    0	11.568073	-3.208063	-3.407194	-0.646811	0.162514	-3.238063	0.115112	-0.034058	-0.034058	0.999863	-0.003234	0.000813	-0.016190	
31428	    0	11.149319	-5.196769	-4.236770	-0.834310	0.163467	-3.081262	0.110639	-0.053853	-0.042236	0.999872	-0.004171	0.000817	-0.015406	
31429	    0	10.623127	-5.380343	-4.013008	-1.036876	0.135999	-2.897759	0.105408	-0.055542	-0.039917	0.999881	-0.005184	0.000680	-0.014488	
31430	    0	9.737037	-4.814593	-3.343204	-1.219795	0.093273	-2.734859	0.096683	-0.049674	-0.033177	0.999887	-0.006099	0.000466	-0.013674	
31431	    0	8.833618	-4.262419	-2.786060	-1.367808	0.056460	-2.573486	0.087769	-0.043945	-0.027588	0.999893	-0.006839	0.000282	-0.012867	
31432	    0	8.435187	-3.800352	-2.537477	-1.469661	0.033189	-2.413258	0.083879	-0.039203	-0.025104	0.999900	-0.007348	0.000166	-0.012066	
31433	    0	8.524685	-3.598855	-2.473995	-1.484724	0.018502	-2.208775	0.084839	-0.037109	-0.024475	0.999911	-0.007423	0.000093	-0.011044	
31434	    0	9.394638	-3.460891	-2.332550	-1.358065	0.061037	-1.967858	0.093592	-0.035688	-0.023114	0.999928	-0.006790	0.000305	-0.009839	
31435	    0	11.152742	-3.426734	-2.710245	-0.880446	0.161936	-1.712063	0.111206	-0.035339	-0.027039	0.999953	-0.004402	0.000810	-0.008560	
31436	    0	12.682023	-2.339549	-3.797718	-0.305751	0.264361	-1.427473	0.126598	-0.024358	-0.038108	0.999972	-0.001529	0.001322	-0.007137	
31437	    0	13.328922	-2.182453	-3.457978	0.135041	0.293161	-1.082617	0.133118	-0.022522	-0.034790	0.999984	0.000675	0.001466	-0.005413	
31438	    0	11.460818	-0.736315	-2.553505	0.430490	0.287057	-0.697710	0.114545	-0.007708	-0.025716	0.999990	0.002152	0.001435	-0.003489	
31439	    0	8.800224	1.676848	-1.060155	0.583650	0.291634	-0.311280	0.088013	0.016663	-0.010681	0.999993	0.002918	0.001458	-0.001556	
31440	    0	7.764005	2.946191	-0.441645	0.580026	0.338364	0.094414	0.077619	0.029511	-0.004462	0.999993	0.002900	0.001692	0.000472	
31441	    0	7.314074	2.542125	-0.657595	0.579073	0.412942	0.531771	0.073059	0.025635	-0.006653	0.999990	0.002895	0.002065	0.002659	
31442	    0	6.699578	1.670884	-0.803124	0.591854	0.430873	0.955778	0.066897	0.017053	-0.008125	0.999981	0.002959	0.002154	0.004779	
31443	    0	5.742677	1.298856	-1.312672	0.712593	0.363354	1.367965	0.057312	0.013428	-0.013184	0.999969	0.003563	0.001817	0.006840	
31444	    0	5.415439	1.481433	-1.814738	0.849547	0.309568	1.765089	0.053992	0.015368	-0.018167	0.999950	0.004248	0.001548	0.008825	
31445	    0	5.889772	1.889814	-2.308787	0.952171	0.258071	2.197319	0.058655	0.019653	-0.023071	0.999927	0.004761	0.001290	0.010986	
31446	    0	6.622780	2.107799	-2.108480	0.943596	0.189024	2.608383	0.065925	0.022038	-0.021045	0.999903	0.004718	0.000945	0.013041	
31447	    0	7.141402	1.893005	-1.646256	0.906410	0.126844	3.022129	0.071106	0.020081	-0.016418	0.999875	0.004532	0.000634	0.015110	
31448	    0	7.799330	1.168982	-1.111532	0.998549	0.067905	3.374274	0.077777	0.013059	-0.011079	0.999845	0.004992	0.000340	0.016870	
31449	    0	8.497824	0.643208	-0.840697	1.186446	-0.001335	3.710409	0.084839	0.008057	-0.008362	0.999810	0.005932	-0.000007	0.018551	
31450	    0	9.351262	0.371331	-0.893515	1.368625	-0.047497	4.013553	0.093414	0.005650	-0.008879	0.999775	0.006843	-0.000237	0.020066	
31451	    0	10.085494	-0.020338	-0.664023	1.501785	-0.077064	4.299535	0.100830	0.002014	-0.006592	0.999741	0.007508	-0.000385	0.021496	
31452	    0	10.197340	-0.646684	-0.483584	1.659175	-0.125707	4.563971	0.102088	-0.004098	-0.004812	0.999704	0.008295	-0.000628	0.022818	
31453	    0	10.146408	-0.560434	-0.425118	1.775747	-0.147264	4.833756	0.101562	-0.003113	-0.004211	0.999668	0.008878	-0.000736	0.024166	
31454	    0	9.887113	0.277426	-0.265410	1.766993	-0.147838	5.111936	0.098759	0.005322	-0.002542	0.999634	0.008834	-0.000739	0.025557	
31455	    0	9.644404	0.769036	-0.331487	1.682506	-0.128000	5.395463	0.096191	0.010315	-0.003174	0.999600	0.008411	-0.000640	0.026974	
31456	    0	9.535063	0.801440	-0.445687	1.678902	-0.127811	5.667177	0.095075	0.010748	-0.004313	0.999562	0.008393	-0.000639	0.028332	
31457	    0	9.310985	1.184498	-0.777081	1.775641	-0.173787	5.892349	0.092712	0.014648	-0.007568	0.999526	0.008877	-0.000869	0.029457	
31458	    0	9.367950	2.372714	-1.131610	1.774706	-0.189813	6.110460	0.092905	0.026672	-0.011000	0.999493	0.008872	-0.000949	0.030547	
31459	    0	9.495339	3.068250	-1.190376	1.721688	-0.183138	6.299185	0.093933	0.033752	-0.011536	0.999466	0.008607	-0.000916	0.031490	
31460	    0	9.671316	2.852939	-1.273484	1.788090	-0.188481	6.433539	0.095738	0.031732	-0.012370	0.999442	0.008939	-0.000942	0.032162	
31461	    0	10.837548	2.748625	-2.018583	2.057283	-0.189818	6.492344	0.107422	0.031189	-0.019775	0.999419	0.010284	-0.000949	0.032455	
31462	    0	13.285142	3.917315	-3.206355	2.295189	-0.185240	6.524052	0.131501	0.043841	-0.031456	0.999401	0.011474	-0.000926	0.032614	
31463	    0	15.582035	5.638459	-4.499595	2.415941	-0.183714	6.428266	0.153931	0.061890	-0.044128	0.999410	0.012077	-0.000918	0.032135	
31464	    0	17.484617	8.136807	-5.799860	2.260436	-0.230832	6.268900	0.172235	0.087441	-0.056833	0.999444	0.011300	-0.001154	0.031339	
31465	    0	19.678503	13.413610	-5.528172	1.518688	-0.158717	6.073227	0.192627	0.140442	-0.054077	0.999510	0.007592	-0.000793	0.030361	
31466	    0	20.127958	14.470646	-4.289570	0.876550	-0.068483	5.752421	0.197019	0.150600	-0.042176	0.999577	0.004382	-0.000342	0.028758	
31467	    0	19.584698	13.987904	-4.748450	0.654870	-0.081644	5.283980	0.192078	0.145142	-0.046936	0.999645	0.003274	-0.000408	0.026417	
31468	    0	18.585700	14.588703	-6.506052	0.610027	-0.096330	4.671911	0.182410	0.150373	-0.064518	0.999722	0.003050	-0.000482	0.023357	
31469	    0	15.626154	16.132864	-8.312478	0.537144	-0.136384	3.891242	0.153137	0.164551	-0.082581	0.999806	0.002686	-0.000682	0.019455	
31470	    0	13.493604	18.924303	-8.549246	0.341048	-0.221261	3.099758	0.132074	0.191450	-0.085020	0.999877	0.001705	-0.001106	0.015498	
31471	    0	11.884573	21.480408	-6.734445	0.048829	-0.365266	2.330071	0.116455	0.216187	-0.067078	0.999930	0.000244	-0.001826	0.011650	
31472	    0	10.021850	22.347461	-4.307220	-0.289538	-0.423626	1.421370	0.098719	0.224117	-0.043186	0.999971	-0.001448	-0.002118	0.007107	
31473	    0	10.130751	21.084999	-2.577202	-0.519563	-0.269127	0.428010	0.100891	0.210999	-0.026184	0.999993	-0.002598	-0.001346	0.002140	
31474	    0	10.390880	17.801528	-2.065262	-0.299264	-0.149727	-0.537873	0.104403	0.177704	-0.020841	0.999994	-0.001496	-0.000749	-0.002689	
31475	    0	9.973591	15.898683	-2.322799	0.174715	-0.157739	-1.357280	0.100830	0.158325	-0.023010	0.999976	0.000874	-0.000789	-0.006786	
31476	    0	8.918040	15.502492	-2.250805	0.512514	-0.203709	-2.037468	0.090776	0.154162	-0.022020	0.999944	0.002563	-0.001019	-0.010187	
31477	    0	9.912792	13.097868	-3.260451	0.704214	-0.326357	-2.533796	0.100830	0.129822	-0.031982	0.999911	0.003521	-0.001632	-0.012669	
31478	    0	10.301266	10.388207	-3.194879	1.053664	-0.609996	-2.962048	0.104633	0.102506	-0.031089	0.999871	0.005268	-0.003050	-0.014810	
31479	    0	8.286789	12.118651	-20.819933	2.296627	-1.463241	-3.356432	0.086426	0.122131	-0.206177	0.999766	0.011482	-0.007316	-0.016781	
31480	    0	21.679885	21.699799	-36.999152	3.661935	-1.370650	-4.828085	0.224570	0.218347	-0.364480	0.999517	0.018307	-0.006852	-0.024137	
31481	    0	54.488885	40.572576	19.015715	0.126100	0.541791	-6.772391	0.558716	0.386841	0.188904	0.999422	0.000630	0.002708	-0.033855	
31482	    0	41.567418	6.973967	15.355285	-1.557880	-0.252366	-4.514361	0.416931	0.061534	0.153578	0.999714	-0.007789	-0.001262	-0.022570	
31483	    0	22.135741	-14.056860	7.990936	-1.667188	-0.455329	-4.568936	0.217896	-0.144897	0.081604	0.999701	-0.008335	-0.002276	-0.022842	
31484	    0	-1.792528	-4.409630	0.123070	0.072486	-0.797537	-4.680692	-0.018955	-0.043661	0.001141	0.999718	0.000362	-0.003987	-0.023401	
31485	    0	0.590560	4.573874	-3.798635	1.316194	-0.783421	-4.481925	0.007080	0.045837	-0.037659	0.999719	0.006580	-0.003917	-0.022408	
31486	    0	9.976504	9.278569	-2.916542	1.009252	-0.699858	-4.014882	0.101703	0.090901	-0.028350	0.999779	0.005046	-0.003499	-0.020073	
31487	    0	2.735185	10.894966	-5.487463	0.199326	-0.552389	-2.963370	0.029114	0.108582	-0.054688	0.999886	0.000997	-0.002762	-0.014816	
31488	    0	5.060125	8.324039	-5.800956	-0.425540	-0.201039	-2.365933	0.051639	0.082510	-0.058134	0.999927	-0.002128	-0.001005	-0.011829	
31489	    0	11.870890	4.235404	-4.567943	-0.601779	-0.149539	-1.915773	0.119141	0.041077	-0.045715	0.999949	-0.003009	-0.000748	-0.009579	
31490	    0	15.585519	7.035939	-6.187686	-1.143281	0.074006	-1.446554	0.156334	0.068874	-0.062331	0.999957	-0.005716	0.000370	-0.007233	
31491	    0	16.047385	4.059576	-4.410247	-0.932321	0.029183	-1.196301	0.160706	0.039429	-0.044312	0.999970	-0.004662	0.000146	-0.005981	
31492	    0	19.229909	1.440509	-2.862608	-0.575451	0.038910	-1.113899	0.192369	0.013251	-0.028703	0.999980	-0.002877	0.000195	-0.005569	
31493	    0	20.882529	1.184483	-2.624701	-1.103031	0.173952	-1.091777	0.208862	0.010559	-0.026489	0.999969	-0.005515	0.000870	-0.005459	
31494	    0	19.548565	-0.262178	-3.485681	-1.662471	0.233082	-0.935760	0.195429	-0.003827	-0.035056	0.999953	-0.008312	0.001165	-0.004679	
31495	    0	17.584113	-1.903276	-3.161618	-1.685170	0.120546	-1.028459	0.175720	-0.020203	-0.031555	0.999950	-0.008426	0.000603	-0.005142	
31496	    0	17.327977	-0.159826	-0.826789	-1.843678	0.101664	-1.060887	0.173264	-0.002594	-0.008335	0.999943	-0.009218	0.000508	-0.005304	
31497	    0	16.687119	0.030056	0.009478	-2.394743	0.189977	-0.945308	0.166870	-0.000488	-0.000061	0.999916	-0.011973	0.000950	-0.004726	
31498	    0	15.257989	0.462986	-1.222538	-2.753355	0.232895	-0.918802	0.152584	0.003758	-0.012459	0.999893	-0.013766	0.001164	-0.004594	
31499	    0	15.332317	-0.831081	-1.518410	-3.023657	0.274098	-0.960581	0.153259	-0.009277	-0.015259	0.999873	-0.015118	0.001370	-0.004803	
31500	    0	14.205720	-4.397128	-1.460975	-3.283470	0.252355	-0.924155	0.141833	-0.044861	-0.014057	0.999853	-0.016417	0.001262	-0.004621	
31501	    0	12.791328	-5.557451	-1.659899	-3.414906	0.263228	-0.952962	0.127625	-0.056458	-0.015808	0.999842	-0.017074	0.001316	-0.004765	
31502	    0	12.373138	-5.615468	-2.051874	-3.475953	0.314921	-1.036510	0.123405	-0.057142	-0.019726	0.999834	-0.017379	0.001575	-0.005182	
31503	    0	11.621994	-4.293367	-3.079236	-3.173219	0.301566	-1.226866	0.115906	-0.044128	-0.030273	0.999854	-0.015865	0.001508	-0.006134	
31504	    0	11.277045	-2.643836	-4.516622	-2.688135	0.296795	-1.532616	0.112494	-0.027906	-0.044965	0.999879	-0.013440	0.001484	-0.007663	
31505	    0	10.927319	-2.576797	-5.188848	-2.225572	0.307666	-1.832645	0.108948	-0.027344	-0.051758	0.999894	-0.011127	0.001538	-0.009163	
31506	    0	10.029458	-2.506381	-5.710876	-1.781331	0.293550	-2.123329	0.099934	-0.026634	-0.057023	0.999903	-0.008906	0.001468	-0.010616	
31507	    0	9.719197	-2.491598	-5.882833	-1.300091	0.242050	-2.457508	0.096802	-0.026489	-0.058777	0.999902	-0.006500	0.001210	-0.012287	
31508	    0	9.898018	-2.252662	-5.349734	-0.817327	0.204856	-2.772047	0.098598	-0.024114	-0.053502	0.999894	-0.004086	0.001024	-0.013860	
31509	    0	10.290389	-2.459978	-4.562314	-0.436990	0.170142	-3.012202	0.102478	-0.026245	-0.045654	0.999884	-0.002185	0.000851	-0.015060	
31510	    0	10.577099	-2.456824	-3.651193	-0.215730	0.154693	-3.177014	0.105334	-0.026283	-0.036566	0.999872	-0.001079	0.000773	-0.015884	
31511	    0	10.260836	-1.959388	-3.207426	-0.156410	0.210009	-3.286892	0.102234	-0.021301	-0.032166	0.999864	-0.000782	0.001050	-0.016434	
31512	    0	10.895356	-1.486729	-2.901582	-0.346581	0.317398	-3.312456	0.108641	-0.016719	-0.029160	0.999860	-0.001733	0.001587	-0.016562	
31513	    0	11.548172	-1.361052	-2.720634	-0.629456	0.425932	-3.345654	0.115173	-0.015625	-0.027405	0.999852	-0.003147	0.002130	-0.016727	
31514	    0	13.245440	-0.948198	-3.074899	-1.016477	0.497652	-3.280995	0.132196	-0.011809	-0.031022	0.999849	-0.005082	0.002488	-0.016404	
31515	    0	14.119195	-4.471358	-2.455012	-1.294774	0.580054	-3.193827	0.140381	-0.047119	-0.024658	0.999846	-0.006474	0.002900	-0.015968	
31516	    0	13.321412	-5.865563	-2.915247	-1.431537	0.588637	-3.113522	0.132192	-0.060927	-0.029112	0.999848	-0.007157	0.002943	-0.015567	
31517	    0	12.644847	-6.716223	-3.518935	-1.599773	0.626405	-3.012236	0.125305	-0.069336	-0.035034	0.999849	-0.007998	0.003132	-0.015060	
31518	    0	11.616422	-7.016217	-3.831045	-1.656992	0.612479	-2.877754	0.115019	-0.072139	-0.038072	0.999857	-0.008285	0.003062	-0.014388	
31519	    0	10.558183	-6.969823	-4.008280	-1.629711	0.552583	-2.763489	0.104492	-0.071472	-0.039795	0.999867	-0.008148	0.002763	-0.013817	
31520	    0	10.031408	-6.550033	-4.127617	-1.545966	0.446719	-2.606112	0.099355	-0.067117	-0.040984	0.999883	-0.007730	0.002234	-0.013030	
31521	    0	9.913709	-5.964099	-4.276590	-1.480726	0.331890	-2.436149	0.098328	-0.061157	-0.042480	0.999897	-0.007403	0.001659	-0.012180	
31522	    0	10.117674	-5.348499	-4.325315	-1.408046	0.230415	-2.247305	0.100515	-0.054920	-0.042986	0.999911	-0.007040	0.001152	-0.011236	
31523	    0	11.182341	-4.573885	-4.324281	-1.192502	0.116923	-2.014969	0.111328	-0.047119	-0.043030	0.999930	-0.005962	0.000585	-0.010075	
31524	    0	13.608880	-4.287785	-5.046373	-0.737392	0.111200	-1.708246	0.135687	-0.044224	-0.050378	0.999956	-0.003687	0.000556	-0.008541	
31525	    0	15.623225	-4.469657	-4.572171	-0.247194	0.142099	-1.390087	0.155884	-0.045837	-0.045776	0.999974	-0.001236	0.000710	-0.006950	
31526	    0	14.548829	-2.642620	-4.530611	0.349619	-0.023842	-1.044469	0.145353	-0.027106	-0.045336	0.999985	0.001748	-0.000119	-0.005222	
31527	    0	12.334713	-0.484847	-3.509150	0.583078	-0.116730	-0.617220	0.123352	-0.005127	-0.035034	0.999990	0.002915	-0.000584	-0.003086	
31528	    0	9.944316	1.022317	-1.895558	0.614167	-0.146675	-0.144959	0.099464	0.010209	-0.018851	0.999994	0.003071	-0.000733	-0.000725	
31529	    0	8.643554	1.257609	-1.329292	0.617219	-0.162316	0.322724	0.086426	0.012756	-0.013184	0.999993	0.003086	-0.000812	0.001614	
31530	    0	7.740825	0.653143	-1.295581	0.647166	-0.177956	0.775150	0.077394	0.006873	-0.012865	0.999987	0.003236	-0.000890	0.003876	
31531	    0	6.365486	0.200522	-1.467685	0.731665	-0.254633	1.202403	0.063660	0.002441	-0.014587	0.999974	0.003658	-0.001273	0.006012	
31532	    0	5.211075	0.247271	-1.777768	0.840581	-0.350957	1.610779	0.052119	0.002967	-0.017674	0.999957	0.004203	-0.001755	0.008054	
31533	    0	4.650411	0.394520	-2.033548	0.949308	-0.482951	2.043960	0.046509	0.004517	-0.020203	0.999933	0.004746	-0.002415	0.010220	
31534	    0	4.474595	0.444633	-2.137168	1.056514	-0.625439	2.467424	0.044752	0.005111	-0.021206	0.999905	0.005282	-0.003127	0.012337	
31535	    0	4.561495	0.268967	-2.192739	1.195578	-0.787197	2.887851	0.045654	0.003479	-0.021729	0.999869	0.005978	-0.003936	0.014439	
31536	    0	4.917211	0.425116	-2.262992	1.282764	-0.920157	3.316493	0.049194	0.005211	-0.022372	0.999831	0.006413	-0.004601	0.016582	
31537	    0	5.529058	0.402477	-1.965588	1.359844	-0.994942	3.728745	0.055298	0.005188	-0.019348	0.999790	0.006799	-0.004974	0.018642	
31538	    0	6.292468	-0.094048	-1.697625	1.453903	-1.056378	4.116595	0.063013	0.000478	-0.016644	0.999747	0.007269	-0.005281	0.020581	
31539	    0	7.199182	-0.955991	-1.559013	1.618548	-1.106373	4.497216	0.072266	-0.007812	-0.015259	0.999699	0.008092	-0.005531	0.022484	
31540	    0	8.453353	-1.216934	-1.474647	1.721011	-1.121461	4.879758	0.084876	-0.009976	-0.014363	0.999649	0.008604	-0.005607	0.024396	
31541	    0	9.509781	-0.892027	-0.949475	1.726187	-1.099540	5.234454	0.095337	-0.006348	-0.009033	0.999605	0.008630	-0.005497	0.026169	
31542	    0	10.248875	-0.655515	-0.412978	1.681002	-1.076665	5.583055	0.102638	-0.003659	-0.003616	0.999560	0.008404	-0.005383	0.027911	
31543	    0	10.896273	-0.618878	0.209468	1.671298	-1.033950	5.903052	0.109070	-0.002991	0.002625	0.999516	0.008355	-0.005169	0.029510	
31544	    0	11.278007	-0.964348	0.440979	1.769565	-1.022327	6.141209	0.112982	-0.006218	0.004922	0.999475	0.008846	-0.005111	0.030701	
31545	    0	11.867852	-1.379901	0.337122	1.997751	-0.987238	6.332060	0.119019	-0.010071	0.003845	0.999436	0.009987	-0.004935	0.031654	
31546	    0	12.763566	-1.518325	0.403903	2.377422	-0.934791	6.507291	0.128020	-0.011073	0.004489	0.999389	0.011885	-0.004673	0.032530	
31547	    0	13.994192	-1.104030	0.171209	2.871769	-0.855445	6.652018	0.140198	-0.006409	0.002197	0.999334	0.014356	-0.004276	0.033253	
31548	    0	15.782668	0.127586	-0.618654	3.303369	-0.796700	6.797519	0.157682	0.006732	-0.005477	0.999278	0.016513	-0.003983	0.033979	
31549	    0	18.899962	3.502531	-1.741724	3.151898	-0.658577	6.932993	0.187683	0.041809	-0.016174	0.999269	0.015756	-0.003292	0.034657	
31550	    0	22.007842	7.703005	-1.535117	2.610818	-0.337108	7.022787	0.217214	0.084880	-0.013909	0.999296	0.013051	-0.001685	0.035106	
31551	    0	23.499476	9.857129	-1.667885	2.104839	-0.016788	6.940455	0.231384	0.106812	-0.015564	0.999342	0.010522	-0.000084	0.034695	
31552	    0	24.372318	12.254375	-2.476677	1.840765	0.161394	6.637742	0.239454	0.130761	-0.023783	0.999406	0.009202	0.000807	0.033182	
31553	    0	24.366431	14.007060	-4.403309	1.918357	0.171881	6.099978	0.239197	0.147827	-0.042847	0.999488	0.009590	0.000859	0.030495	
31554	    0	21.651400	14.939496	-8.217638	2.110959	0.036245	5.312689	0.212415	0.155931	-0.080592	0.999591	0.010553	0.000181	0.026560	
31555	    0	18.983486	19.870055	-10.965594	1.818443	-0.163284	4.331606	0.185547	0.203735	-0.107666	0.999723	0.009091	-0.000816	0.021656	
31556	    0	16.989631	27.462050	-7.906215	0.882386	-0.443863	3.409183	0.165352	0.277809	-0.077471	0.999842	0.004412	-0.002219	0.017045	
31557	    0	12.125521	30.283851	-3.409162	0.048829	-0.548376	2.377378	0.117737	0.304260	-0.033691	0.999925	0.000244	-0.002742	0.011887	
31558	    0	10.619537	28.943986	-1.291662	-0.405123	-0.209428	1.006704	0.104751	0.289943	-0.013393	0.999984	-0.002026	-0.001047	0.005033	
31559	    0	12.270363	25.503102	-1.725303	-0.441552	0.109863	-0.276947	0.123047	0.254822	-0.017883	0.999996	-0.002208	0.000549	-0.001385	
31560	    0	12.076885	22.031854	-2.336077	-0.100136	0.139619	-1.225098	0.122099	0.219562	-0.023556	0.999980	-0.000501	0.000698	-0.006125	
31561	    0	9.275670	19.744283	-2.411260	0.292402	0.084688	-2.136272	0.094849	0.196472	-0.023865	0.999941	0.001462	0.000423	-0.010681	
31562	    0	8.273207	16.628389	-2.641533	0.605223	0.013161	-2.830795	0.085073	0.165170	-0.025920	0.999895	0.003026	0.000066	-0.014153	
31563	    0	11.069798	11.935139	-2.815427	0.824777	-0.140960	-3.305214	0.112671	0.117615	-0.027588	0.999854	0.004124	-0.000705	-0.016525	
31564	    0	10.191225	9.401051	-4.044766	1.226878	-0.430132	-3.510680	0.103630	0.092446	-0.039656	0.999825	0.006134	-0.002151	-0.017552	
31565	    0	3.090605	16.061921	-41.870450	3.276483	-2.305709	-3.848762	0.038879	0.166748	-0.415588	0.999614	0.016380	-0.011527	-0.019241	
31566	    0	26.992947	15.363122	-30.192031	2.529698	-0.829625	-5.231655	0.275134	0.150272	-0.298871	0.999569	0.012647	-0.004148	-0.026155	
31567	    0	53.607607	36.815826	22.470074	-0.373719	0.528815	-6.653308	0.548523	0.350464	0.222595	0.999441	-0.001868	0.002644	-0.033260	
31568	    0	43.059916	1.577452	21.686275	-2.121410	0.121703	-4.842750	0.430982	0.007639	0.216491	0.999650	-0.010606	0.000608	-0.024211	
31569	    0	19.718028	-4.831966	9.891246	-1.741774	-0.197621	-4.569700	0.195923	-0.051941	0.099548	0.999701	-0.008708	-0.000988	-0.022846	
31570	    0	-3.723924	-7.942028	-3.868320	-0.112163	-0.596294	-4.746890	-0.038995	-0.078530	-0.038754	0.999713	-0.000561	-0.002981	-0.023732	
31571	    0	-4.003889	-0.493364	-5.810908	1.770952	-0.720856	-4.394189	-0.039917	-0.003540	-0.058289	0.999713	0.008854	-0.003604	-0.021969	
31572	    0	7.500214	12.555675	-2.420666	1.352414	-0.747547	-4.002497	0.077584	0.124180	-0.023077	0.999769	0.006762	-0.003737	-0.020011	
31573	    0	-0.414402	13.451390	-5.735337	0.525114	-0.520346	-3.033570	-0.001953	0.134705	-0.057007	0.999878	0.002625	-0.002602	-0.015167	
31574	    0	8.530504	8.418207	-4.393065	-0.356492	-0.094416	-2.430977	0.086340	0.083058	-0.044039	0.999924	-0.001782	-0.000472	-0.012155	
31575	    0	15.186493	1.682129	-1.319385	-0.336272	-0.209049	-2.027166	0.152039	0.015259	-0.013062	0.999947	-0.001681	-0.001045	-0.010136	
31576	    0	14.686906	7.042828	-4.758126	-0.781833	-0.054932	-1.657509	0.147458	0.069021	-0.047812	0.999957	-0.003909	-0.000275	-0.008287	
31577	    0	16.271350	7.492348	-7.429035	-1.148810	0.064851	-1.237503	0.163147	0.073486	-0.074768	0.999964	-0.005744	0.000324	-0.006187	
31578	    0	16.794420	-0.608747	-4.394389	-0.782973	-0.052834	-1.102456	0.167918	-0.007185	-0.043873	0.999977	-0.003915	-0.000264	-0.005512	
31579	    0	17.984884	0.473834	-2.641263	-0.937660	-0.003624	-1.058969	0.179871	0.003662	-0.026428	0.999974	-0.004688	-0.000018	-0.005295	
31580	    0	19.714596	3.515568	-2.403043	-1.594757	0.177386	-0.914777	0.197282	0.034060	-0.024480	0.999957	-0.007974	0.000887	-0.004574	
31581	    0	17.633147	2.018898	-2.761763	-1.889072	0.172618	-0.862900	0.176392	0.019165	-0.027954	0.999946	-0.009445	0.000863	-0.004314	
31582	    0	15.799392	-0.122659	-2.433569	-1.929891	0.159076	-0.859467	0.157967	-0.002141	-0.024444	0.999944	-0.009649	0.000795	-0.004297	
31583	    0	16.049992	0.965820	-1.501159	-2.127884	0.187115	-0.805682	0.160522	0.008850	-0.015259	0.999934	-0.010639	0.000936	-0.004028	
31584	    0	15.475543	1.821230	-1.499176	-2.339804	0.270850	-0.752468	0.154801	0.017451	-0.015409	0.999923	-0.011699	0.001354	-0.003762	
31585	    0	15.556359	1.898258	-2.304838	-2.689259	0.417342	-0.694298	0.155579	0.018127	-0.023621	0.999901	-0.013446	0.002087	-0.003471	
31586	    0	15.447023	-2.339814	-2.545094	-3.044826	0.515578	-0.596262	0.154333	-0.024246	-0.025484	0.999876	-0.015224	0.002578	-0.002981	
31587	    0	13.800914	-4.926942	-2.719336	-3.215172	0.493835	-0.503563	0.137817	-0.050049	-0.026733	0.999864	-0.016075	0.002469	-0.002518	
31588	    0	12.273408	-4.407645	-2.612152	-3.194380	0.478003	-0.565745	0.122546	-0.044836	-0.025702	0.999866	-0.015971	0.002390	-0.002829	
31589	    0	12.682965	-3.556717	-2.364135	-3.148600	0.479147	-0.695069	0.126648	-0.036377	-0.023376	0.999866	-0.015742	0.002396	-0.003475	
31590	    0	12.385328	-2.737400	-2.472763	-3.034148	0.507567	-0.858725	0.123671	-0.028279	-0.024617	0.999872	-0.015170	0.002538	-0.004293	
31591	    0	11.349186	-2.002075	-3.851875	-2.712350	0.487727	-1.122325	0.113281	-0.021179	-0.038513	0.999888	-0.013561	0.002439	-0.005611	
31592	    0	11.230928	-1.756797	-4.992619	-2.372631	0.511950	-1.490071	0.112043	-0.018996	-0.049994	0.999898	-0.011863	0.002560	-0.007450	
31593	    0	10.720463	-2.506328	-6.140161	-2.018612	0.492875	-1.850188	0.106812	-0.026672	-0.061401	0.999903	-0.010093	0.002464	-0.009251	
31594	    0	10.510191	-2.937133	-6.419727	-1.611000	0.422301	-2.276878	0.104619	-0.031081	-0.064173	0.999900	-0.008055	0.002111	-0.011384	
31595	    0	10.743384	-2.370145	-5.935451	-1.306964	0.364889	-2.656654	0.106995	-0.025513	-0.059387	0.999888	-0.006535	0.001824	-0.013283	
31596	    0	11.342552	-1.217151	-4.852524	-1.052520	0.303091	-3.001531	0.113150	-0.014127	-0.048626	0.999872	-0.005262	0.001515	-0.015007	
31597	    0	11.540996	0.529294	-4.206195	-0.857587	0.273337	-3.358629	0.115417	0.003174	-0.042236	0.999848	-0.004288	0.001367	-0.016792	
31598	    0	11.261573	1.688910	-3.935470	-0.682680	0.272957	-3.651830	0.112844	0.014695	-0.039561	0.999826	-0.003413	0.001365	-0.018258	
31599	    0	11.859693	1.012501	-3.828399	-0.510438	0.246636	-3.834774	0.118713	0.007751	-0.038452	0.999812	-0.002552	0.001233	-0.019173	
31600	    0	11.896025	0.750964	-2.699013	-0.460274	0.260561	-3.991969	0.119042	0.005072	-0.027159	0.999797	-0.002301	0.001303	-0.019958	
31601	    0	13.313891	1.797492	-3.059770	-0.386074	0.290891	-4.076672	0.133423	0.015198	-0.030823	0.999789	-0.001930	0.001454	-0.020382	
31602	    0	14.467184	-1.834370	-1.927200	-0.476298	0.316451	-4.012955	0.144234	-0.021287	-0.019452	0.999794	-0.002381	0.001582	-0.020063	
31603	    0	13.108893	-3.256526	-2.362860	-0.467523	0.297566	-3.975944	0.130371	-0.035217	-0.023743	0.999798	-0.002337	0.001488	-0.019878	
31604	    0	12.576517	-4.751606	-3.556945	-0.516925	0.323316	-3.873119	0.124755	-0.050031	-0.035645	0.999807	-0.002584	0.001616	-0.019364	
31605	    0	12.306449	-5.448364	-4.213084	-0.560794	0.329800	-3.732523	0.121948	-0.056885	-0.042175	0.999820	-0.002804	0.001649	-0.018661	
31606	    0	11.745141	-5.247010	-4.442060	-0.647390	0.323123	-3.595935	0.116409	-0.054713	-0.044435	0.999831	-0.003237	0.001616	-0.017979	
31607	    0	11.021748	-5.068794	-4.365920	-0.757447	0.325029	-3.433406	0.109253	-0.052734	-0.043640	0.999844	-0.003787	0.001625	-0.017166	
31608	    0	10.306920	-5.065864	-4.041231	-0.849573	0.342004	-3.251421	0.102157	-0.052496	-0.040367	0.999857	-0.004248	0.001710	-0.016256	
31609	    0	9.934041	-5.252710	-3.965576	-0.816952	0.354782	-3.058754	0.098450	-0.054199	-0.039612	0.999872	-0.004085	0.001774	-0.015293	
31610	    0	10.144807	-5.186461	-3.591038	-0.655579	0.372519	-2.847774	0.100628	-0.053419	-0.035925	0.999891	-0.003278	0.001863	-0.014238	
31611	    0	11.466917	-4.809169	-3.490434	-0.260933	0.446523	-2.599411	0.113953	-0.049622	-0.035095	0.999911	-0.001305	0.002233	-0.012997	
31612	    0	13.552291	-4.097585	-4.737082	0.416003	0.500501	-2.354108	0.134910	-0.042467	-0.047796	0.999925	0.002080	0.002502	-0.011770	
31613	    0	14.852565	-3.718274	-4.849743	0.935384	0.535786	-2.021834	0.148010	-0.038452	-0.049072	0.999934	0.004677	0.002679	-0.010109	
31614	    0	14.158576	-2.886355	-4.323186	1.223014	0.487527	-1.606779	0.141243	-0.029733	-0.043756	0.999946	0.006115	0.002438	-0.008034	
31615	    0	10.923019	-0.575188	-2.797633	1.255243	0.448614	-1.191727	0.109131	-0.006226	-0.028259	0.999960	0.006276	0.002243	-0.005959	
31616	    0	8.490966	1.300189	-1.166830	1.050194	0.464061	-0.703435	0.084928	0.012765	-0.011798	0.999977	0.005251	0.002320	-0.003517	
31617	    0	7.374650	1.411697	-0.980394	0.815586	0.548746	-0.157929	0.073730	0.014099	-0.009949	0.999988	0.004078	0.002744	-0.000790	
31618	    0	6.555473	0.371843	-1.463267	0.650218	0.578120	0.368692	0.065505	0.003887	-0.014810	0.999989	0.003251	0.002891	0.001843	
31619	    0	5.406756	-0.010883	-1.908243	0.538066	0.532535	0.889592	0.054016	0.000183	-0.019226	0.999983	0.002690	0.002663	0.004448	
31620	    0	4.001143	-0.030475	-2.045426	0.510984	0.433735	1.371969	0.039968	0.000022	-0.020541	0.999970	0.002555	0.002169	0.006860	
31621	    0	3.512038	-0.074342	-1.947647	0.548753	0.304418	1.844054	0.035095	-0.000366	-0.019531	0.999952	0.002744	0.001522	0.009220	
31622	    0	3.990433	0.079049	-1.627387	0.577178	0.181966	2.375662	0.039876	0.001311	-0.016307	0.999925	0.002886	0.000910	0.011878	
31623	    0	4.948570	-0.159351	-0.852972	0.565549	0.048830	2.888593	0.049500	-0.000854	-0.008545	0.999891	0.002828	0.000244	0.014442	
31624	    0	5.832519	-0.594243	-0.324254	0.661692	-0.053408	3.387047	0.058415	-0.004943	-0.003244	0.999850	0.003308	-0.000267	0.016934	
31625	    0	6.934439	-1.317508	-0.139543	0.907956	-0.136384	3.821047	0.069580	-0.011841	-0.001404	0.999806	0.004539	-0.000682	0.019104	
31626	    0	8.004398	-1.228517	-0.053770	1.189328	-0.217265	4.227407	0.080280	-0.010587	-0.000517	0.999758	0.005946	-0.001086	0.021135	
31627	    0	9.146506	-1.053242	0.061202	1.402610	-0.269344	4.615470	0.091675	-0.008423	0.000671	0.999708	0.007012	-0.001347	0.023075	
31628	    0	10.178852	-1.466829	0.764595	1.606935	-0.262291	4.991342	0.102103	-0.012184	0.007675	0.999655	0.008034	-0.001311	0.024954	
31629	    0	10.695507	-1.764101	1.172385	1.787993	-0.254092	5.321440	0.107361	-0.014893	0.011719	0.999605	0.008939	-0.001270	0.026604	
31630	    0	10.754698	-1.160636	1.084463	1.890081	-0.230442	5.654602	0.107807	-0.008663	0.010878	0.999555	0.009449	-0.001152	0.028269	
31631	    0	10.493361	-0.794459	0.672623	1.973285	-0.203548	5.955720	0.105103	-0.004883	0.006775	0.999507	0.009865	-0.001018	0.029774	
31632	    0	10.716808	-0.051173	0.364652	1.968736	-0.168831	6.250165	0.107112	0.002800	0.003754	0.999462	0.009842	-0.000844	0.031245	
31633	    0	10.761770	0.182379	0.018078	2.020843	-0.153380	6.488523	0.107483	0.005310	0.000305	0.999422	0.010102	-0.000767	0.032436	
31634	    0	11.029717	1.247625	-0.630029	2.076005	-0.149567	6.718304	0.109798	0.016234	-0.006063	0.999381	0.010378	-0.000748	0.033585	
31635	    0	11.578988	2.407628	-0.802470	2.055995	-0.102256	6.911440	0.114868	0.028137	-0.007690	0.999350	0.010278	-0.000511	0.034550	
31636	    0	12.002055	2.887400	-1.218006	2.119923	-0.047504	7.036076	0.118906	0.033197	-0.011815	0.999325	0.010597	-0.000237	0.035172	
31637	    0	12.872419	3.459308	-2.098359	2.311671	0.034340	7.094694	0.127380	0.039368	-0.020569	0.999304	0.011556	0.000172	0.035465	
31638	    0	14.886535	4.258409	-3.582697	2.551682	0.107409	7.083850	0.147203	0.048271	-0.035315	0.999290	0.012755	0.000537	0.035411	
31639	    0	17.614436	5.704226	-5.643106	2.684840	0.138887	6.994740	0.173950	0.063904	-0.055725	0.999298	0.013421	0.000694	0.034966	
31640	    0	20.463309	9.134836	-7.260703	2.365435	0.101875	6.814909	0.201307	0.099097	-0.071568	0.999349	0.011825	0.000509	0.034067	
31641	    0	22.361783	14.697774	-7.312743	1.618502	0.169596	6.556422	0.218567	0.154785	-0.072083	0.999429	0.008091	0.000848	0.032776	
31642	    0	21.860569	15.625287	-6.984101	1.127807	0.118656	6.124724	0.213636	0.163238	-0.069061	0.999515	0.005638	0.000593	0.030619	
31643	    0	21.370045	16.516195	-7.711681	0.941781	-0.024417	5.510666	0.209045	0.171326	-0.076294	0.999609	0.004708	-0.000122	0.027550	
31644	    0	20.021458	17.676410	-8.548685	0.817185	-0.115787	4.692521	0.196038	0.181744	-0.084637	0.999716	0.004086	-0.000579	0.023460	
31645	    0	17.009024	19.480781	-9.643476	0.773667	-0.181400	3.726422	0.166504	0.198303	-0.095520	0.999818	0.003868	-0.000907	0.018631	
31646	    0	14.997676	23.289854	-9.449686	0.532740	-0.293169	2.748771	0.146893	0.235182	-0.093656	0.999901	0.002664	-0.001466	0.013743	
31647	    0	11.764359	25.878176	-8.036437	0.218394	-0.424963	1.752496	0.115540	0.259888	-0.079834	0.999958	0.001092	-0.002125	0.008762	
31648	    0	9.241704	25.091124	-6.204878	0.050736	-0.437738	0.645067	0.091743	0.251224	-0.061784	0.999992	0.000254	-0.002189	0.003225	
31649	    0	10.139770	22.658760	-4.691159	0.106049	-0.315667	-0.457764	0.101990	0.226379	-0.046631	0.999995	0.000530	-0.001578	-0.002289	
31650	    0	11.082459	19.130008	-3.983010	0.434689	-0.286677	-1.408972	0.112226	0.190598	-0.039255	0.999971	0.002173	-0.001433	-0.007045	
31651	    0	13.244873	17.921018	-5.043379	0.823996	-0.480474	-2.327790	0.134644	0.177856	-0.049377	0.999921	0.004120	-0.002402	-0.011639	
31652	    0	10.060414	16.394448	-4.067666	1.228960	-0.586727	-3.002684	0.103169	0.162653	-0.039374	0.999864	0.006145	-0.002934	-0.015013	
31653	    0	12.222279	18.507760	-15.384383	2.312669	-1.227485	-3.715835	0.126587	0.184509	-0.150940	0.999742	0.011562	-0.006137	-0.018578	
31654	    0	24.134252	32.988989	-32.928668	3.747533	-1.286951	-5.614432	0.252673	0.328976	-0.321514	0.999410	0.018734	-0.006433	-0.028067	
31655	    0	46.058442	37.700317	10.632191	0.551141	-0.090808	-6.819720	0.473022	0.360718	0.107544	0.999414	0.002755	-0.000454	-0.034092	
31656	    0	35.209180	16.456048	12.597801	-1.301726	-0.467545	-5.094548	0.355850	0.156346	0.125772	0.999651	-0.006508	-0.002337	-0.025470	
31657	    0	21.288700	-16.591570	9.296781	-1.829731	-0.321042	-4.808577	0.208679	-0.170105	0.094849	0.999667	-0.009148	-0.001605	-0.024040	
31658	    0	-3.200167	-1.131135	1.689364	-0.084885	-0.770070	-4.732204	-0.032322	-0.010542	0.016774	0.999712	-0.000424	-0.003850	-0.023659	
31659	    0	-3.975479	5.648390	-8.651883	1.105786	-0.843121	-4.335396	-0.038147	0.057800	-0.086365	0.999741	0.005528	-0.004215	-0.021675	
31660	    0	8.665106	8.098053	-3.373367	0.984838	-0.794280	-4.058762	0.088405	0.079362	-0.032991	0.999774	0.004924	-0.003971	-0.020292	
31661	    0	4.661148	9.099072	-5.378846	0.236521	-0.644519	-3.031280	0.048157	0.090332	-0.053528	0.999879	0.001183	-0.003222	-0.015156	
31662	    0	8.574035	10.542316	-5.247050	-0.382242	-0.363549	-2.329691	0.087055	0.104314	-0.052513	0.999928	-0.001911	-0.001818	-0.011648	
31663	    0	14.939464	4.908284	-3.418250	-0.618564	-0.283818	-1.911196	0.149902	0.047546	-0.034119	0.999949	-0.003093	-0.001419	-0.009556	
31664	    0	15.513294	3.658779	-2.972008	-0.598343	-0.301746	-1.588841	0.155461	0.035265	-0.029593	0.999963	-0.002992	-0.001509	-0.007944	
31665	    0	16.395706	6.920572	-4.541227	-0.779541	-0.178529	-1.260388	0.164429	0.067993	-0.045532	0.999971	-0.003898	-0.000893	-0.006302	
31666	    0	17.569774	2.576482	-2.569306	-0.597195	-0.210001	-1.129540	0.175866	0.024695	-0.025583	0.999979	-0.002986	-0.001050	-0.005648	
31667	    0	20.046732	1.552757	-3.557629	-0.962076	-0.063134	-1.132213	0.200562	0.014221	-0.035583	0.999972	-0.004810	-0.000316	-0.005661	
31668	    0	19.184114	0.041277	-4.154941	-1.598381	0.040627	-0.966849	0.191831	-0.000847	-0.041585	0.999956	-0.007992	0.000203	-0.004834	
31669	    0	17.158120	-0.338428	-4.499623	-1.693562	-0.045014	-1.018541	0.171570	-0.004639	-0.044922	0.999950	-0.008468	-0.000225	-0.005093	
31670	    0	17.733523	0.677829	-2.628552	-1.856458	-0.034142	-1.043721	0.177371	0.005609	-0.026311	0.999943	-0.009282	-0.000171	-0.005219	
31671	    0	17.294059	0.798440	-1.141633	-2.261982	0.041963	-0.965906	0.172974	0.007019	-0.011536	0.999924	-0.011310	0.000210	-0.004829	
31672	    0	15.711437	-0.681237	-1.641975	-2.654543	0.133137	-0.847653	0.157072	-0.007696	-0.016426	0.999902	-0.013272	0.000666	-0.004238	
31673	    0	15.268653	-0.391018	-2.044404	-2.797609	0.167090	-0.898775	0.152649	-0.004883	-0.020508	0.999891	-0.013988	0.000835	-0.004494	
31674	    0	15.354376	-3.118044	-1.252120	-3.049216	0.212869	-0.880279	0.153391	-0.032043	-0.012200	0.999873	-0.015245	0.001064	-0.004401	
31675	    0	14.031737	-5.251153	-1.075735	-3.250848	0.250256	-0.862925	0.140076	-0.053284	-0.010071	0.999857	-0.016253	0.001251	-0.004314	
31676	    0	13.018360	-4.984574	-1.358216	-3.197056	0.257886	-0.940939	0.129930	-0.050668	-0.012944	0.999860	-0.015985	0.001289	-0.004704	
31677	    0	12.702573	-2.863416	-2.029126	-3.015841	0.268566	-1.143696	0.126831	-0.029663	-0.020020	0.999868	-0.015079	0.001343	-0.005718	
31678	    0	12.437415	-2.087250	-2.941807	-2.640060	0.270663	-1.380781	0.124185	-0.022118	-0.029300	0.999887	-0.013200	0.001353	-0.006904	
31679	    0	11.679931	-3.522808	-3.974850	-2.252843	0.254830	-1.625114	0.116455	-0.036621	-0.039490	0.999903	-0.011264	0.001274	-0.008125	
31680	    0	10.620857	-3.969281	-4.742489	-1.887186	0.181013	-1.848656	0.105790	-0.041118	-0.047137	0.999912	-0.009436	0.000905	-0.009243	
31681	    0	9.673145	-2.978610	-5.451601	-1.641704	0.119785	-2.108828	0.096375	-0.031250	-0.054321	0.999910	-0.008208	0.000599	-0.010544	
31682	    0	9.942555	-2.522333	-4.541026	-1.405951	0.081065	-2.371291	0.099096	-0.026718	-0.045266	0.999905	-0.007030	0.000405	-0.011856	
31683	    0	9.917963	-1.666325	-3.883568	-1.220745	0.059702	-2.602476	0.098938	-0.018188	-0.038757	0.999896	-0.006104	0.000299	-0.013012	
31684	    0	9.929125	-1.164575	-4.289299	-1.148648	0.053980	-2.762707	0.099104	-0.013262	-0.042847	0.999887	-0.005743	0.000270	-0.013813	
31685	    0	10.480628	-1.080236	-4.085995	-1.219228	0.087169	-2.907683	0.104614	-0.012573	-0.040833	0.999875	-0.006096	0.000436	-0.014538	
31686	    0	10.447263	-0.802041	-3.672905	-1.264247	0.120550	-3.023665	0.104311	-0.009830	-0.036734	0.999866	-0.006321	0.000603	-0.015118	
31687	    0	10.754634	-0.538223	-3.109924	-1.325289	0.135237	-3.116757	0.107422	-0.007263	-0.031128	0.999856	-0.006626	0.000676	-0.015583	
31688	    0	11.521472	1.515691	-2.708730	-1.442411	0.169572	-3.190204	0.115412	0.013121	-0.027285	0.999846	-0.007212	0.000848	-0.015950	
31689	    0	13.089398	-0.222600	-3.155347	-1.622665	0.235760	-3.109138	0.130798	-0.004517	-0.031677	0.999846	-0.008113	0.001179	-0.015545	
31690	    0	12.581220	-3.856569	-2.657872	-1.741879	0.275817	-3.016816	0.125173	-0.040688	-0.026403	0.999846	-0.008709	0.001379	-0.015083	
31691	    0	11.290955	-5.306498	-3.257757	-1.661571	0.287642	-2.952718	0.112061	-0.054993	-0.032288	0.999855	-0.008307	0.001438	-0.014763	
31692	    0	10.523968	-6.386300	-3.682956	-1.569245	0.287259	-2.826052	0.104268	-0.065628	-0.036469	0.999867	-0.007846	0.001436	-0.014130	
31693	    0	9.728977	-6.349683	-3.629979	-1.465665	0.254260	-2.694046	0.096375	-0.065063	-0.035950	0.999881	-0.007328	0.001271	-0.013470	
31694	    0	9.169649	-5.961037	-3.598169	-1.355791	0.196464	-2.566810	0.090884	-0.061023	-0.035661	0.999894	-0.006779	0.000982	-0.012834	
31695	    0	8.792157	-5.486673	-3.471980	-1.286166	0.142674	-2.432328	0.087219	-0.056152	-0.034424	0.999905	-0.006431	0.000713	-0.012161	
31696	    0	8.572543	-4.850229	-3.480262	-1.269376	0.098040	-2.266757	0.085150	-0.049689	-0.034532	0.999915	-0.006347	0.000490	-0.011333	
31697	    0	8.500407	-4.395622	-3.431432	-1.239044	0.047494	-2.069142	0.084534	-0.045044	-0.034058	0.999927	-0.006195	0.000237	-0.010345	
31698	    0	9.129459	-3.995939	-2.998981	-1.120399	0.031663	-1.865042	0.090911	-0.040976	-0.029777	0.999940	-0.005602	0.000158	-0.009325	
31699	    0	11.119110	-3.272406	-3.290216	-0.715647	0.097848	-1.641105	0.110901	-0.033752	-0.032837	0.999959	-0.003578	0.000489	-0.008205	
31700	    0	13.898202	-2.908212	-4.174153	-0.184824	0.178148	-1.385891	0.138739	-0.030083	-0.041838	0.999974	-0.000924	0.000891	-0.006929	
31701	    0	15.322847	-3.164670	-3.467887	0.222970	0.257875	-1.047521	0.153015	-0.032410	-0.034912	0.999985	0.001115	0.001289	-0.005238	
31702	    0	13.393800	-1.851011	-3.253750	0.652697	0.231935	-0.706103	0.133834	-0.018876	-0.032754	0.999988	0.003263	0.001160	-0.003531	
31703	    0	11.288663	-0.307617	-1.960420	0.887302	0.278665	-0.328065	0.112854	-0.003174	-0.019775	0.999988	0.004436	0.001393	-0.001640	
31704	    0	10.073253	1.018850	-1.202300	1.001935	0.333025	0.085259	0.100708	0.010292	-0.012139	0.999986	0.005010	0.001665	0.000426	
31705	    0	9.104988	0.996901	-1.018502	1.044661	0.402072	0.508121	0.091003	0.010254	-0.010315	0.999981	0.005223	0.002010	0.002541	
31706	    0	8.003101	0.680153	-1.074771	1.079188	0.391773	0.924691	0.079977	0.007230	-0.010866	0.999972	0.005396	0.001959	0.004623	
31707	    0	6.720549	0.631605	-1.286019	1.068129	0.341992	1.342791	0.067139	0.006836	-0.012939	0.999961	0.005341	0.001710	0.006714	
31708	    0	5.953002	0.750339	-1.706608	1.091595	0.263600	1.739342	0.059439	0.008114	-0.017101	0.999946	0.005458	0.001318	0.008697	
31709	    0	5.726006	1.005778	-2.119664	1.115636	0.144962	2.194269	0.057129	0.010803	-0.021179	0.999924	0.005578	0.000725	0.010971	
31710	    0	5.916795	1.256514	-1.942977	1.060331	0.001717	2.637952	0.058994	0.013447	-0.019361	0.999899	0.005301	0.000009	0.013189	
31711	    0	6.134848	1.228062	-1.590784	1.031540	-0.107388	3.081648	0.061157	0.013306	-0.015808	0.999867	0.005157	-0.000537	0.015408	
31712	    0	6.617840	0.929114	-1.368833	1.117960	-0.225080	3.509721	0.066016	0.010527	-0.013557	0.999829	0.005589	-0.001125	0.017548	
31713	    0	7.491875	0.762270	-1.182623	1.199425	-0.311873	3.908813	0.074768	0.009155	-0.011658	0.999789	0.005997	-0.001559	0.019543	
31714	    0	8.421081	0.067106	-0.853154	1.265060	-0.354034	4.296092	0.084185	0.002533	-0.008370	0.999747	0.006325	-0.001770	0.021479	
31715	    0	9.431541	-0.820906	-0.569552	1.494747	-0.405733	4.629213	0.094482	-0.005981	-0.005554	0.999701	0.007473	-0.002028	0.023144	
31716	    0	10.165911	-0.820046	-0.315530	1.738937	-0.436642	4.908166	0.101826	-0.005676	-0.002990	0.999659	0.008694	-0.002183	0.024538	
31717	    0	10.483495	-0.027191	-0.105600	1.900151	-0.473083	5.161178	0.104797	0.002441	-0.000793	0.999619	0.009500	-0.002365	0.025803	
31718	    0	10.999305	0.647851	-0.108612	1.963701	-0.455920	5.446627	0.109764	0.009479	-0.000752	0.999578	0.009817	-0.002279	0.027229	
31719	    0	11.239484	0.721376	0.305870	2.012370	-0.473095	5.694688	0.112122	0.010376	0.003418	0.999540	0.010060	-0.002365	0.028469	
31720	    0	11.169254	1.113830	0.072022	2.127044	-0.491605	5.892388	0.111298	0.014411	0.001136	0.999506	0.010633	-0.002458	0.029457	
31721	    0	11.337960	1.914920	-0.124450	2.223785	-0.484551	6.061850	0.112732	0.022583	-0.000732	0.999475	0.011117	-0.002422	0.030304	
31722	    0	11.648708	3.234341	-0.416944	2.254135	-0.466241	6.207646	0.115417	0.035979	-0.003508	0.999452	0.011269	-0.002331	0.031033	
31723	    0	11.939362	4.280783	-0.856489	2.265020	-0.402908	6.300009	0.117981	0.046631	-0.007812	0.999437	0.011323	-0.002014	0.031494	
31724	    0	12.498869	4.881905	-1.828778	2.361553	-0.341098	6.298493	0.123395	0.052932	-0.017467	0.999433	0.011806	-0.001705	0.031487	
31725	    0	13.882910	5.824966	-3.144054	2.508446	-0.311338	6.237444	0.136963	0.062927	-0.030457	0.999434	0.012540	-0.001556	0.031181	
31726	    0	15.443857	7.895033	-4.605515	2.578255	-0.301607	6.108833	0.151988	0.084201	-0.044762	0.999449	0.012889	-0.001508	0.030539	
31727	    0	16.618252	10.470614	-5.697721	2.473108	-0.338612	5.887844	0.163086	0.110229	-0.055359	0.999488	0.012363	-0.001693	0.029434	
31728	    0	18.227866	14.740065	-5.688783	1.841623	-0.290150	5.618916	0.178114	0.152958	-0.055236	0.999561	0.009207	-0.001451	0.028090	
31729	    0	18.788768	15.667841	-4.159101	1.289716	-0.165578	5.253479	0.183716	0.161804	-0.040405	0.999634	0.006448	-0.000828	0.026264	
31730	    0	18.605718	14.469174	-4.302515	1.115909	-0.130475	4.722296	0.182596	0.149267	-0.042081	0.999705	0.005579	-0.000652	0.023609	
31731	    0	18.056644	15.642700	-5.448462	1.072200	-0.116738	4.061426	0.177368	0.160339	-0.053528	0.999779	0.005361	-0.000584	0.020306	
31732	    0	15.415112	17.583618	-6.909037	0.971843	-0.161370	3.340318	0.151237	0.178711	-0.068104	0.999848	0.004859	-0.000807	0.016701	
31733	    0	13.031029	20.256310	-6.933273	0.699637	-0.214965	2.587969	0.127747	0.204468	-0.068481	0.999909	0.003498	-0.001075	0.012939	
31734	    0	11.267417	22.080106	-5.510304	0.358778	-0.313382	1.850347	0.110710	0.221930	-0.054531	0.999954	0.001794	-0.001567	0.009252	
31735	    0	9.669848	21.395327	-3.813030	0.115204	-0.343897	1.046758	0.095642	0.214478	-0.037842	0.999984	0.000576	-0.001719	0.005234	
31736	    0	9.876846	19.753181	-2.123626	0.035477	-0.261116	0.177765	0.098620	0.197623	-0.021072	0.999998	0.000177	-0.001306	0.000889	
31737	    0	10.526254	18.074259	-1.178734	0.126839	-0.144196	-0.624849	0.105835	0.180420	-0.011597	0.999994	0.000634	-0.000721	-0.003124	
31738	    0	10.092512	15.964709	-1.149274	0.355723	-0.112725	-1.289759	0.101958	0.159012	-0.011152	0.999977	0.001779	-0.000564	-0.006449	
31739	    0	10.314903	14.005786	-1.637740	0.600443	-0.172236	-1.818876	0.104431	0.139160	-0.015869	0.999953	0.003002	-0.000861	-0.009094	
31740	    0	11.929689	13.894642	-3.328658	0.741026	-0.413525	-2.451202	0.121057	0.137591	-0.032526	0.999915	0.003705	-0.002068	-0.012256	
31741	    0	8.845445	12.721593	-7.008532	1.084370	-0.683620	-2.783312	0.090454	0.126343	-0.069092	0.999882	0.005422	-0.003418	-0.013916	
31742	    0	7.376527	27.271698	-44.453417	3.091026	-2.229949	-3.644221	0.083718	0.278069	-0.439367	0.999652	0.015453	-0.011148	-0.018219	
31743	    0	41.499505	20.242358	-12.395678	1.307863	-0.204306	-5.674020	0.420654	0.191345	-0.122253	0.999576	0.006538	-0.001021	-0.028366	
31744	    0	42.191400	23.801887	11.775813	-0.191329	-0.455146	-5.233223	0.427681	0.226991	0.118506	0.999654	-0.000957	-0.002275	-0.026163	
31745	    0	34.139978	-10.677534	15.619287	-1.804327	-0.164047	-4.340763	0.338867	-0.112732	0.157471	0.999723	-0.009021	-0.000820	-0.021702	
31746	    0	8.171952	-0.605869	8.733236	-1.211466	-0.572447	-4.453488	0.081315	-0.007342	0.087607	0.999729	-0.006057	-0.002862	-0.022265	
31747	    0	-1.052981	2.608996	-5.590153	0.238055	-0.757466	-4.204880	-0.009766	0.026367	-0.055908	0.999770	0.001190	-0.003787	-0.021023	
31748	    0	5.611436	4.319416	-1.273452	0.844828	-0.625657	-4.114651	0.057027	0.042080	-0.012378	0.999774	0.004224	-0.003128	-0.020572	
31749	    0	6.812426	6.239500	-2.298435	0.743907	-0.676574	-3.483772	0.069275	0.061279	-0.022522	0.999835	0.003719	-0.003383	-0.017418	
31750	    0	4.772432	9.614969	-5.447605	0.181776	-0.474372	-2.657781	0.049126	0.095552	-0.054274	0.999908	0.000909	-0.002372	-0.013288	
31751	    0	10.948919	7.286619	-5.399706	-0.352486	-0.195889	-2.249194	0.110352	0.071533	-0.054016	0.999934	-0.001762	-0.000979	-0.011246	
31752	    0	13.872385	3.256448	-3.182277	-0.589571	-0.187305	-1.827268	0.139043	0.031201	-0.031786	0.999953	-0.002948	-0.000937	-0.009136	
31753	    0	13.842196	7.197352	-6.647796	-1.164834	0.003815	-1.393910	0.138916	0.070618	-0.066895	0.999958	-0.005824	0.000019	-0.006969	
31754	    0	15.694275	3.172867	-4.840883	-0.950441	-0.016594	-1.153957	0.157125	0.030592	-0.048543	0.999971	-0.004752	-0.000083	-0.005770	
31755	    0	18.227142	-0.310978	-2.974122	-0.717931	-0.003624	-1.091774	0.182251	-0.004211	-0.029724	0.999978	-0.003590	-0.000018	-0.005459	
31756	    0	20.951642	0.831650	-2.798063	-1.246848	0.190737	-1.082814	0.209530	0.007007	-0.028227	0.999965	-0.006234	0.000954	-0.005414	
31757	    0	20.048248	0.074385	-3.620500	-1.699666	0.233463	-0.981919	0.200439	-0.000549	-0.036438	0.999950	-0.008498	0.001167	-0.004910	
31758	    0	18.379861	-0.848538	-3.392272	-1.698904	0.168803	-1.077289	0.183720	-0.009764	-0.033998	0.999949	-0.008494	0.000844	-0.005386	
31759	    0	18.094309	-0.383664	-0.932814	-1.879730	0.193791	-1.126121	0.180908	-0.004944	-0.009460	0.999939	-0.009398	0.000969	-0.005630	
31760	    0	16.895313	-0.951437	-0.326936	-2.292694	0.252349	-1.032475	0.168897	-0.010425	-0.003366	0.999920	-0.011463	0.001262	-0.005162	
31761	    0	15.541390	0.090598	-1.319471	-2.639097	0.295458	-1.017796	0.155396	-0.000061	-0.013428	0.999898	-0.013195	0.001477	-0.005089	
31762	    0	15.272277	-1.949000	-1.260542	-2.942396	0.337233	-1.024860	0.152598	-0.020457	-0.012567	0.999877	-0.014711	0.001686	-0.005124	
31763	    0	14.223419	-4.961848	-0.936765	-3.215180	0.321404	-1.004076	0.141968	-0.050476	-0.008789	0.999856	-0.016075	0.001607	-0.005020	
31764	    0	12.652790	-6.547368	-1.070691	-3.345088	0.325410	-0.976422	0.126189	-0.066259	-0.009809	0.999846	-0.016725	0.001627	-0.004882	
31765	    0	11.930577	-4.651378	-1.623392	-3.234259	0.359553	-1.097924	0.119019	-0.047424	-0.015686	0.999852	-0.016171	0.001798	-0.005489	
31766	    0	11.857546	-3.380877	-2.792597	-2.901393	0.399225	-1.319179	0.118292	-0.034992	-0.027660	0.999870	-0.014506	0.001996	-0.006596	
31767	    0	12.001730	-2.791458	-4.312930	-2.474114	0.431077	-1.622070	0.119690	-0.029419	-0.043030	0.999887	-0.012370	0.002155	-0.008110	
31768	    0	11.822272	-3.511440	-4.813577	-1.973216	0.458160	-1.898064	0.117769	-0.036708	-0.048049	0.999904	-0.009866	0.002291	-0.009490	
31769	    0	11.173707	-3.494044	-6.240133	-1.395267	0.409711	-2.236242	0.111206	-0.036621	-0.062378	0.999910	-0.006976	0.002048	-0.011181	
31770	    0	11.218223	-2.825894	-6.218099	-0.940164	0.359166	-2.645962	0.111681	-0.030031	-0.062243	0.999899	-0.004701	0.001796	-0.013229	
31771	    0	10.807124	-2.122949	-5.498529	-0.623346	0.256548	-2.985499	0.107666	-0.023010	-0.055054	0.999883	-0.003117	0.001283	-0.014927	
31772	    0	10.467811	-1.765009	-4.906408	-0.403803	0.181587	-3.193040	0.104333	-0.019417	-0.049121	0.999869	-0.002019	0.000908	-0.015965	
31773	    0	10.560187	-1.181491	-4.241767	-0.327317	0.159653	-3.390667	0.105347	-0.013672	-0.042480	0.999854	-0.001637	0.000798	-0.016953	
31774	    0	10.156838	-0.121894	-4.194749	-0.396368	0.172815	-3.499403	0.101489	-0.003078	-0.042030	0.999845	-0.001982	0.000864	-0.017496	
31775	    0	11.054434	0.048872	-3.780678	-0.693359	0.289933	-3.518867	0.110474	-0.001587	-0.037964	0.999838	-0.003467	0.001450	-0.017593	
31776	    0	12.302456	0.294718	-3.791546	-1.018008	0.400565	-3.464508	0.122972	0.000623	-0.038169	0.999835	-0.005090	0.002003	-0.017322	
31777	    0	13.497844	-3.916884	-2.799718	-1.227638	0.490025	-3.398321	0.134216	-0.041626	-0.028076	0.999833	-0.006138	0.002450	-0.016991	
31778	    0	12.917631	-5.890242	-1.945151	-1.161257	0.535231	-3.373138	0.128105	-0.061182	-0.019444	0.999837	-0.005806	0.002676	-0.016865	
31779	    0	12.173272	-6.801391	-2.527445	-1.058063	0.598177	-3.379240	0.120483	-0.070190	-0.025269	0.999838	-0.005290	0.002991	-0.016895	
31780	    0	11.706780	-7.420882	-3.021672	-1.039367	0.604660	-3.264973	0.115743	-0.076262	-0.030175	0.999848	-0.005197	0.003023	-0.016324	
31781	    0	11.072471	-7.539186	-3.425003	-0.961157	0.542475	-3.120565	0.109436	-0.077271	-0.034180	0.999863	-0.004806	0.002712	-0.015602	
31782	    0	10.511425	-7.519890	-3.534701	-0.925102	0.461216	-2.960708	0.103903	-0.076906	-0.035234	0.999877	-0.004625	0.002306	-0.014803	
31783	    0	10.030571	-6.998485	-3.569952	-0.859864	0.380148	-2.801616	0.099243	-0.071533	-0.035583	0.999890	-0.004299	0.001901	-0.014008	
31784	    0	9.846796	-6.210080	-3.619177	-0.784326	0.279435	-2.593502	0.097600	-0.063512	-0.036081	0.999907	-0.003922	0.001397	-0.012967	
31785	    0	9.863666	-5.343827	-3.851767	-0.768109	0.167088	-2.368226	0.097961	-0.054749	-0.038391	0.999922	-0.003840	0.000835	-0.011841	
31786	    0	10.262706	-4.798478	-3.706750	-0.716224	0.136378	-2.106329	0.102088	-0.049194	-0.036963	0.999937	-0.003581	0.000682	-0.010531	
31787	    0	11.730736	-4.317764	-3.497532	-0.398069	0.145724	-1.818874	0.116882	-0.044312	-0.034973	0.999956	-0.001990	0.000729	-0.009094	
31788	    0	13.661853	-4.075328	-3.693150	0.168039	0.172045	-1.512733	0.136273	-0.041754	-0.037084	0.999970	0.000840	0.000860	-0.007564	
31789	    0	14.424945	-3.141083	-3.653464	0.708204	0.132752	-1.142892	0.144043	-0.032104	-0.036743	0.999977	0.003541	0.000664	-0.005714	
31790	    0	12.722255	-0.986760	-3.373841	0.962835	0.041962	-0.684742	0.127181	-0.010140	-0.033813	0.999982	0.004814	0.000210	-0.003424	
31791	    0	10.124831	0.507091	-2.250042	0.918010	-0.032044	-0.213624	0.101257	0.005066	-0.022461	0.999989	0.004590	-0.000160	-0.001068	
31792	    0	8.213556	1.305387	-1.383699	0.778963	-0.065804	0.305940	0.082120	0.013233	-0.013759	0.999990	0.003895	-0.000329	0.001530	
31793	    0	7.370785	1.040472	-1.166177	0.670627	-0.079918	0.810245	0.073669	0.010742	-0.011597	0.999986	0.003353	-0.000400	0.004051	
31794	    0	6.363079	0.719453	-1.292266	0.596624	-0.122834	1.273547	0.063591	0.007638	-0.012861	0.999974	0.002983	-0.000614	0.006368	
31795	    0	5.155925	0.677527	-1.533179	0.594529	-0.201419	1.717401	0.051514	0.007263	-0.015259	0.999958	0.002973	-0.001007	0.008587	
31796	    0	4.613423	0.771052	-1.739234	0.655379	-0.303847	2.145050	0.046074	0.008262	-0.017296	0.999935	0.003277	-0.001519	0.010725	
31797	    0	4.689886	0.922018	-1.874835	0.692198	-0.423444	2.574236	0.046814	0.009888	-0.018616	0.999908	0.003461	-0.002117	0.012871	
31798	    0	5.045155	1.144834	-1.635105	0.708800	-0.544380	3.030712	0.050314	0.012269	-0.016171	0.999875	0.003544	-0.002722	0.015153	
31799	    0	5.444828	0.872448	-1.095376	0.796742	-0.640904	3.447146	0.054321	0.009705	-0.010742	0.999838	0.003983	-0.003204	0.017235	
31800	    0	5.947732	0.587372	-0.759734	0.929133	-0.754217	3.861309	0.059377	0.007055	-0.007342	0.999795	0.004645	-0.003771	0.019305	
31801	    0	6.785614	0.457055	-0.323044	1.017084	-0.804015	4.297236	0.067749	0.006042	-0.002930	0.999747	0.005085	-0.004020	0.021484	
31802	    0	7.848738	0.175750	-0.011325	1.128119	-0.836647	4.694645	0.078417	0.003598	0.000232	0.999700	0.005640	-0.004183	0.023471	
31803	    0	9.030258	-0.056452	0.157599	1.239157	-0.822353	5.061164	0.090271	0.001709	0.001953	0.999652	0.006195	-0.004111	0.025303	
31804	    0	9.796339	0.076025	0.492929	1.331313	-0.823701	5.390493	0.097875	0.003365	0.005349	0.999606	0.006656	-0.004118	0.026949	
31805	    0	10.708282	0.864765	0.645085	1.378071	-0.811696	5.720598	0.106750	0.011658	0.006958	0.999558	0.006889	-0.004058	0.028599	
31806	    0	11.354889	1.167731	1.206921	1.467370	-0.809610	6.001108	0.113082	0.014984	0.012630	0.999515	0.007336	-0.004047	0.030001	
31807	    0	11.589833	1.738788	1.186661	1.633167	-0.839380	6.212176	0.115234	0.020874	0.012512	0.999475	0.008164	-0.004196	0.031055	
31808	    0	12.031184	2.665742	1.039653	1.810793	-0.814018	6.391192	0.119336	0.030383	0.011147	0.999439	0.009052	-0.004069	0.031950	
31809	    0	12.389662	3.416013	0.575433	2.033630	-0.752977	6.482433	0.122681	0.038086	0.006592	0.999415	0.010166	-0.003764	0.032406	
31810	    0	12.674514	4.198418	-0.459947	2.302631	-0.671140	6.508034	0.125302	0.046124	-0.003662	0.999398	0.011511	-0.003355	0.032534	
31811	    0	13.784008	5.520473	-1.465724	2.457162	-0.572893	6.497745	0.135986	0.059814	-0.013550	0.999393	0.012283	-0.002864	0.032482	
31812	    0	15.442501	6.884376	-2.116812	2.511150	-0.479223	6.472940	0.152133	0.074048	-0.019894	0.999394	0.012553	-0.002396	0.032358	
31813	    0	16.915269	8.880084	-2.990395	2.406970	-0.415120	6.377887	0.166260	0.094482	-0.028442	0.999416	0.012033	-0.002075	0.031883	
31814	    0	18.610562	12.935477	-3.286633	1.868197	-0.280239	6.231646	0.181994	0.135366	-0.031363	0.999470	0.009339	-0.001401	0.031153	
31815	    0	19.159929	14.590137	-2.853088	1.347753	-0.123616	5.984673	0.187134	0.151733	-0.027405	0.999529	0.006738	-0.000618	0.029919	
31816	    0	19.180186	13.879501	-3.193268	1.169172	-0.045020	5.582422	0.187833	0.144258	-0.031057	0.999593	0.005845	-0.000225	0.027908	
31817	    0	19.424639	14.169992	-4.120191	1.139957	0.031475	5.000853	0.190613	0.146729	-0.040405	0.999671	0.005699	0.000157	0.025002	
31818	    0	18.724770	15.170522	-4.962093	1.134776	0.032237	4.324129	0.183898	0.155984	-0.048774	0.999750	0.005673	0.000161	0.021619	
31819	    0	16.936081	17.326203	-5.780119	1.001035	-0.045588	3.618834	0.166199	0.176575	-0.056885	0.999824	0.005005	-0.000228	0.018093	
31820	    0	14.417429	19.998125	-5.294450	0.653100	-0.172240	2.893173	0.141305	0.202210	-0.052164	0.999889	0.003265	-0.000861	0.014465	
31821	    0	11.727037	21.516665	-3.736025	0.261121	-0.262456	2.099649	0.115051	0.216431	-0.036926	0.999943	0.001306	-0.001312	0.010498	
31822	    0	10.906663	21.688985	-1.401782	-0.104714	-0.185205	1.209648	0.107765	0.217537	-0.014031	0.999981	-0.000524	-0.000926	0.006048	
31823	    0	11.616042	21.164910	-0.118793	-0.299835	0.035286	0.355530	0.115784	0.211853	-0.001526	0.999997	-0.001499	0.000176	0.001778	
31824	    0	11.119351	18.550547	-0.744701	-0.189209	0.151253	-0.470543	0.111624	0.185236	-0.007707	0.999996	-0.000946	0.000756	-0.002353	
31825	    0	10.179535	17.110264	-1.731834	0.054169	0.120736	-1.241311	0.102844	0.170471	-0.017334	0.999980	0.000271	0.000604	-0.006207	
31826	    0	12.577247	17.075228	-3.997605	0.156596	-0.078775	-2.051580	0.127531	0.169481	-0.039793	0.999947	0.000783	-0.000394	-0.010258	
31827	    0	9.232391	16.461831	-5.609277	0.252540	-0.212676	-2.636796	0.094543	0.163452	-0.055786	0.999911	0.001263	-0.001063	-0.013184	
31828	    0	10.171306	19.055698	-20.049165	0.824398	-0.869223	-3.272222	0.105689	0.189672	-0.199255	0.999847	0.004122	-0.004346	-0.016360	
31829	    0	22.346346	14.645937	-30.779644	1.373598	-0.790472	-4.211781	0.227722	0.143799	-0.305908	0.999746	0.006867	-0.003952	-0.021057	
31830	    0	43.315810	8.499561	-1.633726	1.084472	-0.220710	-5.548645	0.435312	0.073023	-0.015440	0.999599	0.005422	-0.001103	-0.027740	
31831	    0	31.426790	13.749590	7.410747	0.625112	-0.581428	-5.242010	0.317505	0.128967	0.075439	0.999647	0.003125	-0.002907	-0.026207	
31832	    0	26.221986	-4.656790	16.115670	-1.317157	0.020601	-4.731082	0.261054	-0.051690	0.161459	0.999698	-0.006585	0.000103	-0.023653	
31833	    0	4.972261	4.066224	7.853964	-0.890432	-0.275256	-4.597895	0.050537	0.039856	0.078430	0.999724	-0.004452	-0.001376	-0.022987	
31834	    0	-0.374813	2.362033	-5.258203	0.612878	-0.465619	-4.203162	-0.003126	0.023851	-0.052517	0.999771	0.003064	-0.002328	-0.021014	
31835	    0	5.229882	5.715102	-2.052508	1.126370	-0.475345	-3.962228	0.053467	0.056213	-0.020081	0.999784	0.005631	-0.002377	-0.019810	
31836	    0	5.183767	6.809155	-4.306739	0.789297	-0.396938	-3.209262	0.053008	0.067416	-0.042696	0.999861	0.003946	-0.001985	-0.016046	
31837	    0	6.681076	9.199287	-6.131922	0.120548	-0.135616	-2.494877	0.067993	0.091187	-0.061218	0.999921	0.000603	-0.000678	-0.012474	
31838	    0	13.095421	6.118157	-5.438463	-0.413902	0.094225	-2.002942	0.131532	0.059753	-0.054571	0.999948	-0.002069	0.000471	-0.010015	
31839	    0	14.086925	4.938408	-3.933710	-0.752841	0.130464	-1.615164	0.141235	0.048096	-0.039612	0.999960	-0.003764	0.000652	-0.008076	
31840	    0	15.946481	6.375595	-5.059218	-1.083196	0.273517	-1.246467	0.159787	0.062485	-0.051151	0.999965	-0.005416	0.001368	-0.006232	
31841	    0	18.011867	0.232572	-1.318572	-0.623898	0.195314	-1.113136	0.180115	0.001282	-0.013367	0.999979	-0.003119	0.000977	-0.005566	
31842	    0	20.632326	-0.422773	-1.250049	-0.538067	0.266840	-1.198396	0.206276	-0.005498	-0.012762	0.999977	-0.002690	0.001334	-0.005992	
31843	    0	22.246952	1.314925	-2.974342	-1.255623	0.407415	-1.061261	0.222473	0.011780	-0.030273	0.999964	-0.006278	0.002037	-0.005306	
31844	    0	19.373307	-2.885983	-3.351230	-1.402683	0.309567	-1.055541	0.193524	-0.030117	-0.033604	0.999960	-0.007013	0.001548	-0.005278	
31845	    0	17.909541	-0.864190	-1.912992	-1.431867	0.251011	-1.169603	0.179016	-0.009827	-0.019287	0.999956	-0.007159	0.001255	-0.005848	
31846	    0	17.890031	0.264127	-0.513727	-1.915399	0.344856	-1.079772	0.178902	0.001624	-0.005465	0.999938	-0.009577	0.001724	-0.005399	
31847	    0	16.162765	-0.713608	-1.479553	-2.338474	0.383960	-0.998715	0.161560	-0.008118	-0.015015	0.999917	-0.011692	0.001920	-0.004993	
31848	    0	14.810301	-2.195562	-1.915473	-2.607050	0.400366	-0.962670	0.147956	-0.022918	-0.019156	0.999901	-0.013035	0.002002	-0.004813	
31849	    0	13.992300	-3.663674	-1.591835	-2.892418	0.438135	-0.961342	0.139709	-0.037537	-0.015686	0.999881	-0.014462	0.002191	-0.004807	
31850	    0	12.498683	-6.327475	-1.670965	-3.064289	0.499938	-0.916140	0.124654	-0.064095	-0.016044	0.999868	-0.015321	0.002500	-0.004580	
31851	    0	11.260847	-6.131765	-2.239463	-2.932669	0.538657	-0.987284	0.112244	-0.062195	-0.021790	0.999876	-0.014663	0.002693	-0.004936	
31852	    0	11.140963	-5.321765	-3.226094	-2.483640	0.571460	-1.162186	0.111005	-0.054261	-0.031909	0.999902	-0.012418	0.002857	-0.005811	
31853	    0	11.797218	-3.601175	-4.871158	-1.903392	0.587479	-1.492348	0.117554	-0.037354	-0.048706	0.999922	-0.009517	0.002937	-0.007462	
31854	    0	12.499475	-3.430015	-4.457585	-1.360543	0.610938	-1.835675	0.124535	-0.035748	-0.044717	0.999929	-0.006803	0.003055	-0.009178	
31855	    0	11.718860	-3.093522	-5.474704	-0.855275	0.549520	-2.121784	0.116699	-0.032410	-0.054932	0.999930	-0.004276	0.002748	-0.010609	
31856	    0	11.245713	-3.145144	-5.385795	-0.503363	0.514616	-2.411334	0.111927	-0.032939	-0.054065	0.999921	-0.002517	0.002573	-0.012056	
31857	    0	10.526680	-2.916907	-5.184534	-0.183683	0.467697	-2.712336	0.104736	-0.030640	-0.052063	0.999905	-0.000918	0.002338	-0.013561	
31858	    0	9.725404	-2.967417	-5.001191	0.027467	0.398269	-2.985686	0.096697	-0.031114	-0.050209	0.999887	0.000137	0.001991	-0.014928	
31859	    0	9.749984	-2.579203	-4.706305	0.112348	0.335708	-3.248741	0.096985	-0.027344	-0.047241	0.999866	0.000562	0.001678	-0.016243	
31860	    0	9.959275	-1.936817	-4.548170	-0.056270	0.378437	-3.414131	0.099156	-0.021076	-0.045664	0.999852	-0.000281	0.001892	-0.017070	
31861	    0	10.554435	-1.932951	-4.071887	-0.394460	0.409147	-3.477658	0.105103	-0.021240	-0.040894	0.999845	-0.001972	0.002046	-0.017387	
31862	    0	11.149308	0.195186	-3.594518	-0.869989	0.407622	-3.463741	0.111429	-0.000135	-0.036175	0.999838	-0.004350	0.002038	-0.017318	
31863	    0	12.612091	-3.863135	-3.303705	-1.126923	0.430512	-3.402132	0.125366	-0.040955	-0.033081	0.999837	-0.005634	0.002152	-0.017010	
31864	    0	12.267961	-7.211979	-2.226190	-1.181283	0.404379	-3.334222	0.121408	-0.074282	-0.022074	0.999841	-0.005906	0.002022	-0.016670	
31865	    0	11.507232	-7.508014	-2.127521	-1.167358	0.399229	-3.299121	0.113770	-0.077087	-0.021057	0.999845	-0.005836	0.001996	-0.016495	
31866	    0	11.027230	-7.757412	-2.189813	-1.226677	0.409909	-3.191915	0.108970	-0.079453	-0.021639	0.999851	-0.006133	0.002049	-0.015959	
31867	    0	10.648849	-7.943658	-2.330147	-1.226671	0.384539	-3.025954	0.105225	-0.081177	-0.023010	0.999865	-0.006133	0.001923	-0.015129	
31868	    0	10.528509	-8.074602	-2.684800	-1.180123	0.288784	-2.836531	0.104086	-0.082385	-0.026516	0.999881	-0.005900	0.001444	-0.014182	
31869	    0	10.386599	-7.792900	-2.896686	-1.149027	0.217636	-2.663516	0.102783	-0.079468	-0.028625	0.999894	-0.005745	0.001088	-0.013317	
31870	    0	10.285546	-7.404597	-2.944973	-1.122509	0.155072	-2.474480	0.101905	-0.075475	-0.029108	0.999907	-0.005612	0.000775	-0.012372	
31871	    0	10.020777	-7.171442	-2.876456	-1.008632	0.087931	-2.287352	0.099365	-0.072998	-0.028442	0.999921	-0.005043	0.000440	-0.011436	
31872	    0	9.676833	-6.620076	-2.755318	-0.830477	0.011635	-2.072187	0.096073	-0.067312	-0.027281	0.999937	-0.004152	0.000058	-0.010361	
31873	    0	9.200753	-5.546090	-2.347682	-0.697147	-0.058747	-1.863892	0.091492	-0.056396	-0.023254	0.999950	-0.003486	-0.000294	-0.009319	
31874	    0	9.154474	-4.247208	-2.018857	-0.569351	-0.110437	-1.633092	0.091205	-0.043275	-0.020016	0.999962	-0.002847	-0.000552	-0.008165	
31875	    0	10.396696	-3.038504	-1.753775	-0.265505	-0.078393	-1.386273	0.103760	-0.031128	-0.017456	0.999974	-0.001328	-0.000392	-0.006931	
31876	    0	12.956066	-2.116616	-2.904538	0.387575	0.008583	-1.085287	0.129442	-0.021812	-0.029093	0.999983	0.001938	0.000043	-0.005426	
31877	    0	14.772555	-1.600735	-3.565009	0.949865	0.135995	-0.704197	0.147644	-0.016357	-0.035828	0.999982	0.004749	0.000680	-0.003521	
31878	    0	13.698228	0.012544	-3.662812	1.328669	0.164033	-0.266268	0.136952	0.000187	-0.036739	0.999976	0.006643	0.000820	-0.001331	
31879	    0	11.058246	2.073420	-2.855537	1.406872	0.172617	0.221254	0.110535	0.021057	-0.028503	0.999974	0.007034	0.000863	0.001106	
31880	    0	8.752195	3.466486	-1.439686	1.247798	0.190546	0.721366	0.087382	0.035069	-0.014262	0.999973	0.006239	0.000953	0.003607	
31881	    0	7.495908	4.002055	-1.191529	1.101697	0.232127	1.181043	0.074707	0.040527	-0.011780	0.999967	0.005508	0.001161	0.005905	
31882	    0	6.875382	4.046214	-1.915838	1.017586	0.259213	1.579881	0.068406	0.041101	-0.019039	0.999954	0.005088	0.001296	0.007899	
31883	    0	6.467669	3.160855	-2.021516	0.988218	0.263983	1.987499	0.064331	0.032349	-0.020142	0.999937	0.004941	0.001320	0.009937	
31884	    0	5.925111	2.685318	-2.280391	1.076728	0.177770	2.333133	0.058911	0.027664	-0.022709	0.999917	0.005383	0.000889	0.011665	
31885	    0	5.939303	3.098963	-2.487494	1.123849	0.074198	2.681827	0.058960	0.031921	-0.024719	0.999894	0.005619	0.000371	0.013409	
31886	    0	5.924384	3.707097	-2.038750	1.081323	-0.041773	3.027856	0.058677	0.038072	-0.020171	0.999870	0.005406	-0.000209	0.015139	
31887	    0	5.596980	3.639549	-1.689185	0.963642	-0.182161	3.377707	0.055359	0.037415	-0.016663	0.999845	0.004818	-0.000911	0.016888	
31888	    0	5.545257	3.134962	-1.511166	0.880487	-0.303478	3.745693	0.054874	0.032447	-0.014887	0.999813	0.004402	-0.001517	0.018727	
31889	    0	5.851748	2.353511	-1.249541	0.865428	-0.418885	4.094998	0.058044	0.024780	-0.012268	0.999779	0.004327	-0.002094	0.020473	
31890	    0	6.541385	1.706876	-1.089565	0.890427	-0.548982	4.437068	0.065042	0.018562	-0.010636	0.999740	0.004452	-0.002745	0.022183	
31891	    0	7.511704	1.482833	-1.081023	0.900359	-0.640742	4.771137	0.074768	0.016663	-0.010498	0.999700	0.004501	-0.003203	0.023853	
31892	    0	8.385628	1.932097	-0.790804	0.826358	-0.728882	5.131929	0.083351	0.021496	-0.007518	0.999655	0.004131	-0.003644	0.025657	
31893	    0	9.041247	2.384176	-0.178933	0.706573	-0.792606	5.467168	0.089722	0.026306	-0.001343	0.999612	0.003532	-0.003963	0.027332	
31894	    0	9.525928	2.555702	0.034460	0.704485	-0.907074	5.743848	0.094470	0.028275	0.000871	0.999571	0.003522	-0.004535	0.028715	
31895	    0	10.306075	3.179294	-0.050135	0.699724	-0.986443	5.972451	0.102051	0.034851	0.000122	0.999536	0.003498	-0.004931	0.029858	
31896	    0	11.153817	3.779893	-0.223900	0.721096	-1.056273	6.153166	0.110314	0.041212	-0.001510	0.999506	0.003605	-0.005280	0.030761	
31897	    0	11.888079	4.268648	-0.470729	0.735026	-1.076690	6.247245	0.117493	0.046387	-0.003906	0.999491	0.003675	-0.005383	0.031231	
31898	    0	12.528744	4.957382	-0.791665	0.763451	-1.081270	6.260223	0.123693	0.053491	-0.007046	0.999488	0.003817	-0.005405	0.031296	
31899	    0	13.559349	5.863819	-1.045875	0.786151	-1.035484	6.235795	0.133728	0.062866	-0.009521	0.999493	0.003930	-0.005177	0.031174	
31900	    0	14.853396	6.722580	-1.281949	0.834984	-0.989695	6.144579	0.146435	0.071797	-0.011798	0.999507	0.004174	-0.004948	0.030718	
31901	    0	16.221951	8.047901	-1.926117	0.867790	-0.959166	6.012911	0.159790	0.085388	-0.018127	0.999527	0.004338	-0.004795	0.030060	
31902	    0	17.637110	10.473456	-2.002281	0.670149	-0.912800	5.811396	0.173316	0.109865	-0.018865	0.999561	0.003350	-0.004563	0.029053	
31903	    0	19.091357	14.143470	-0.179346	0.103773	-0.658312	5.558740	0.186890	0.146667	-0.001099	0.999608	0.000519	-0.003291	0.027790	
31904	    0	18.702856	13.618533	1.337916	-0.054175	-0.368351	5.197350	0.183381	0.140986	0.013681	0.999660	-0.000271	-0.001842	0.025984	
31905	    0	17.984583	11.165924	0.500257	0.367770	-0.177590	4.642907	0.177185	0.115784	0.005371	0.999728	0.001839	-0.000888	0.023212	
31906	    0	17.858695	11.498722	-1.253431	0.948590	-0.054363	3.961074	0.176266	0.118551	-0.011930	0.999792	0.004743	-0.000272	0.019804	
31907	    0	16.345564	13.685184	-3.179314	1.314041	-0.072483	3.276232	0.161194	0.139709	-0.030823	0.999844	0.006570	-0.000362	0.016380	
31908	    0	13.512168	16.506919	-3.698569	1.382114	-0.192077	2.559562	0.133027	0.167030	-0.035707	0.999893	0.006910	-0.000960	0.012797	
31909	    0	10.672985	18.546203	-2.495574	1.170373	-0.349243	1.858559	0.105042	0.186584	-0.023682	0.999938	0.005852	-0.001746	0.009293	
31910	    0	9.477535	18.332785	-0.448180	0.910767	-0.391964	1.116191	0.093758	0.183870	-0.003461	0.999971	0.004554	-0.001960	0.005581	
31911	    0	10.423941	16.592246	1.435787	0.759127	-0.285913	0.405122	0.103882	0.166077	0.015137	0.999990	0.003796	-0.001430	0.002026	
31912	    0	10.913324	15.486046	2.294779	0.837710	-0.116921	-0.204468	0.109278	0.154651	0.023660	0.999990	0.004189	-0.000585	-0.001022	
31913	    0	9.647110	13.790499	1.614369	1.107987	-0.001526	-0.746923	0.096985	0.137451	0.016907	0.999977	0.005540	-0.000008	-0.003735	
31914	    0	8.221474	11.998766	-0.077014	1.423857	-0.000954	-1.265163	0.082972	0.119466	0.000082	0.999954	0.007119	-0.000005	-0.006326	
31915	    0	7.432351	10.235588	-1.141525	1.643601	-0.048066	-1.704447	0.075195	0.101807	-0.010559	0.999929	0.008218	-0.000240	-0.008522	
31916	    0	7.607891	7.589316	-0.809772	1.814326	-0.121120	-2.032343	0.076850	0.075184	-0.007367	0.999907	0.009071	-0.000606	-0.010161	
31917	    0	11.005647	8.172269	-2.766090	1.835704	-0.332464	-2.426242	0.111084	0.080627	-0.026733	0.999883	0.009178	-0.001662	-0.012131	
31918	    0	6.405771	9.899749	-10.300891	1.921740	-0.671226	-2.575036	0.065677	0.099141	-0.101838	0.999865	0.009608	-0.003356	-0.012875	
31919	    0	1.489700	36.868891	-62.099142	4.203161	-3.083552	-3.575730	0.031128	0.381165	-0.612671	0.999500	0.021012	-0.015415	-0.017876	
31920	    0	50.356391	16.517979	-0.801131	0.448484	0.666908	-5.911750	0.508122	0.150224	-0.009353	0.999555	0.002242	0.003334	-0.029554	
31921	    0	46.856786	16.097358	14.397158	-0.603538	-0.124179	-4.549808	0.471985	0.150696	0.143799	0.999736	-0.003017	-0.000621	-0.022747	
31922	    0	34.910069	-9.938047	15.263909	-2.373537	0.209256	-4.103855	0.347149	-0.104699	0.153497	0.999718	-0.011867	0.001046	-0.020517	
31923	    0	5.861599	0.096793	6.559433	-1.210884	-0.279831	-4.246104	0.058533	0.000122	0.065674	0.999755	-0.006054	-0.001399	-0.021229	
31924	    0	2.211815	-7.575213	-2.718456	0.917891	-0.585031	-4.276813	0.020574	-0.076077	-0.027472	0.999756	0.004589	-0.002925	-0.021382	
31925	    0	8.601694	0.773430	1.684471	1.637423	-0.448460	-4.457515	0.086121	0.005676	0.017090	0.999715	0.008186	-0.002242	-0.022285	
31926	    0	5.158356	10.253649	-2.642194	1.356211	-0.559270	-3.623049	0.053504	0.101754	-0.025582	0.999808	0.006781	-0.002796	-0.018114	
31927	    0	4.211188	11.150621	-5.978173	0.389878	-0.257693	-3.051116	0.043884	0.110962	-0.059509	0.999881	0.001949	-0.001288	-0.015255	
31928	    0	8.672780	4.165904	-4.721301	-0.019646	-0.191885	-2.591969	0.087303	0.040525	-0.047133	0.999915	-0.000098	-0.000959	-0.012959	
31929	    0	13.079362	8.330203	-7.688188	-1.048110	0.028992	-1.969951	0.131592	0.081604	-0.077332	0.999937	-0.005240	0.000145	-0.009850	
31930	    0	12.539134	3.861810	-7.142122	-1.448850	0.066377	-1.574928	0.125664	0.037110	-0.071735	0.999942	-0.007244	0.000332	-0.007874	
31931	    0	16.736077	4.546855	-3.360821	-1.019872	0.046540	-1.393908	0.167664	0.044128	-0.033875	0.999962	-0.005099	0.000233	-0.006969	
31932	    0	20.075075	0.524088	-0.563408	-1.027501	0.205996	-1.309410	0.200773	0.003897	-0.005863	0.999965	-0.005137	0.001030	-0.006547	
31933	    0	20.024836	0.555380	-1.062059	-1.431869	0.392920	-1.262685	0.200256	0.004211	-0.011047	0.999952	-0.007159	0.001965	-0.006313	
31934	    0	19.944224	-0.636991	-2.086499	-1.547648	0.391776	-1.205846	0.199357	-0.007735	-0.021199	0.999949	-0.007738	0.001959	-0.006029	
31935	    0	19.136020	-1.810666	-0.992115	-1.414321	0.296788	-1.287862	0.191223	-0.019409	-0.010071	0.999952	-0.007071	0.001484	-0.006439	
31936	    0	17.563886	-0.506335	0.609587	-1.665337	0.333792	-1.259255	0.175612	-0.006120	0.005851	0.999944	-0.008327	0.001669	-0.006296	
31937	    0	15.992932	-0.233506	-0.020384	-2.151353	0.395213	-1.120023	0.159912	-0.003235	-0.000488	0.999924	-0.010756	0.001976	-0.005600	
31938	    0	14.624569	-0.389336	-1.616779	-2.384638	0.386059	-1.114687	0.146189	-0.004903	-0.016396	0.999911	-0.011923	0.001930	-0.005573	
31939	    0	14.569034	-1.633418	-1.502964	-2.647301	0.372327	-1.099434	0.145569	-0.017334	-0.015076	0.999895	-0.013236	0.001862	-0.005497	
31940	    0	13.111374	-4.905884	-1.319380	-2.918360	0.350012	-0.961724	0.130853	-0.049876	-0.012699	0.999880	-0.014591	0.001750	-0.004808	
31941	    0	11.213599	-4.875062	-1.512475	-2.940487	0.333609	-0.949898	0.111877	-0.049500	-0.014587	0.999879	-0.014702	0.001668	-0.004749	
31942	    0	10.958900	-3.783987	-2.400667	-2.776631	0.395408	-1.052133	0.109340	-0.038746	-0.023689	0.999887	-0.013883	0.001977	-0.005260	
31943	    0	11.836299	-2.632738	-4.049233	-2.374342	0.398458	-1.320690	0.118103	-0.027588	-0.040405	0.999906	-0.011871	0.001992	-0.006603	
31944	    0	12.723236	-3.629407	-4.263537	-1.952225	0.420391	-1.607557	0.126843	-0.037730	-0.042539	0.999917	-0.009761	0.002102	-0.008038	
31945	    0	12.534913	-3.917703	-4.772561	-1.435887	0.370225	-1.905106	0.124878	-0.040710	-0.047668	0.999927	-0.007179	0.001851	-0.009525	
31946	    0	11.628346	-3.543349	-5.851525	-0.968959	0.345239	-2.324548	0.115758	-0.037065	-0.058538	0.999919	-0.004845	0.001726	-0.011622	
31947	    0	11.120076	-3.644359	-6.281804	-0.560779	0.277147	-2.756592	0.110596	-0.038147	-0.062866	0.999900	-0.002804	0.001386	-0.013783	
31948	    0	10.651467	-3.217988	-6.090679	-0.258838	0.150687	-3.138100	0.105946	-0.033924	-0.060944	0.999875	-0.001294	0.000753	-0.015690	
31949	    0	10.613318	-2.284318	-5.036816	-0.262464	0.032999	-3.419662	0.105713	-0.024719	-0.050354	0.999852	-0.001312	0.000165	-0.017097	
31950	    0	10.334319	-1.566120	-4.722306	-0.513676	0.036432	-3.533742	0.103035	-0.017605	-0.047198	0.999840	-0.002568	0.000182	-0.017668	
31951	    0	10.849466	-2.003759	-4.252735	-0.927023	0.097089	-3.550157	0.108093	-0.022156	-0.042480	0.999831	-0.004635	0.000485	-0.017750	
31952	    0	11.577517	-0.439486	-3.691864	-1.355632	0.138482	-3.493514	0.115646	-0.006666	-0.036959	0.999824	-0.006778	0.000692	-0.017467	
31953	    0	12.990036	-2.996939	-3.841812	-1.660826	0.175486	-3.370865	0.129333	-0.032471	-0.038269	0.999823	-0.008304	0.000877	-0.016853	
31954	    0	12.854886	-6.596095	-2.877560	-1.799686	0.200855	-3.230089	0.127430	-0.068281	-0.028296	0.999828	-0.008998	0.001004	-0.016150	
31955	    0	11.655983	-6.983953	-2.834653	-1.797583	0.216877	-3.122881	0.115417	-0.071899	-0.027832	0.999837	-0.008987	0.001084	-0.015614	
31956	    0	10.723469	-7.211643	-2.547702	-1.783842	0.218784	-2.970463	0.106118	-0.073922	-0.024940	0.999849	-0.008919	0.001094	-0.014852	
31957	    0	9.994774	-6.919418	-2.522730	-1.750072	0.215159	-2.797826	0.098938	-0.070801	-0.024719	0.999863	-0.008750	0.001076	-0.013988	
31958	    0	9.677265	-6.798628	-2.424062	-1.662322	0.158507	-2.631866	0.095846	-0.069450	-0.023744	0.999878	-0.008311	0.000793	-0.013159	
31959	    0	9.511189	-6.400234	-2.621406	-1.565417	0.107578	-2.460567	0.094299	-0.065369	-0.025757	0.999893	-0.007827	0.000538	-0.012302	
31960	    0	9.219266	-6.051911	-2.675147	-1.436659	0.068857	-2.280495	0.091484	-0.061755	-0.026342	0.999908	-0.007183	0.000344	-0.011402	
31961	    0	8.965541	-5.744024	-2.678757	-1.227599	-0.005150	-2.082875	0.089050	-0.058533	-0.026428	0.999927	-0.006138	-0.000026	-0.010414	
31962	    0	9.000356	-5.052641	-2.564767	-0.983066	-0.059129	-1.869236	0.089533	-0.051490	-0.025370	0.999944	-0.004915	-0.000296	-0.009346	
31963	    0	9.914081	-3.977455	-2.248040	-0.607880	-0.038147	-1.631185	0.098816	-0.040649	-0.022339	0.999962	-0.003039	-0.000191	-0.008156	
31964	    0	11.792003	-3.025639	-2.663311	0.041199	0.049401	-1.382457	0.117701	-0.031065	-0.026669	0.999975	0.000206	0.000247	-0.006912	
31965	    0	13.460611	-2.235522	-3.504439	0.689893	0.140382	-1.063545	0.134460	-0.022949	-0.035217	0.999979	0.003449	0.000702	-0.005318	
31966	    0	13.240434	-0.726362	-3.926348	1.170358	0.189973	-0.664525	0.132342	-0.007473	-0.039433	0.999976	0.005852	0.000950	-0.003323	
31967	    0	11.031374	0.815443	-3.222996	1.352893	0.205232	-0.241091	0.110291	0.008240	-0.032288	0.999975	0.006764	0.001026	-0.001205	
31968	    0	8.694809	1.952750	-2.150373	1.381313	0.193597	0.183107	0.086909	0.019755	-0.021452	0.999975	0.006907	0.000968	0.000916	
31969	    0	7.816389	2.607571	-1.596163	1.364912	0.222971	0.624853	0.078064	0.026428	-0.015869	0.999970	0.006824	0.001115	0.003124	
31970	    0	7.323804	2.558003	-1.914153	1.354615	0.252155	1.011479	0.073083	0.026079	-0.019058	0.999963	0.006773	0.001261	0.005057	
31971	    0	6.606018	2.541894	-2.070838	1.247615	0.250248	1.374837	0.065857	0.026001	-0.020630	0.999956	0.006238	0.001251	0.006874	
31972	    0	5.794222	2.346849	-2.435768	1.201843	0.203709	1.730760	0.057711	0.024115	-0.024273	0.999944	0.006009	0.001019	0.008654	
31973	    0	5.545991	1.953620	-2.541734	1.184301	0.111392	2.087453	0.055237	0.020264	-0.025330	0.999928	0.005921	0.000557	0.010437	
31974	    0	5.508573	1.923228	-2.507901	1.161611	0.007630	2.445486	0.054843	0.020049	-0.024966	0.999907	0.005808	0.000038	0.012227	
31975	    0	5.551485	2.003072	-2.181834	1.155326	-0.114445	2.815355	0.055237	0.020935	-0.021667	0.999884	0.005776	-0.000572	0.014076	
31976	    0	5.389452	1.905387	-1.897116	1.113944	-0.243961	3.173216	0.053605	0.020011	-0.018796	0.999857	0.005569	-0.001220	0.015865	
31977	    0	5.566425	1.827684	-1.710763	1.037657	-0.369093	3.545583	0.055359	0.019348	-0.016907	0.999827	0.005188	-0.001845	0.017727	
31978	    0	5.994112	1.323055	-1.481462	1.034044	-0.465997	3.876950	0.059703	0.014465	-0.014603	0.999796	0.005170	-0.002330	0.019383	
31979	    0	6.711944	0.858669	-1.354700	1.111692	-0.561378	4.207186	0.066956	0.010071	-0.013306	0.999759	0.005558	-0.002807	0.021034	
31980	    0	7.561696	1.126714	-1.329235	1.120290	-0.654282	4.546398	0.075377	0.013056	-0.012976	0.999721	0.005601	-0.003271	0.022730	
31981	    0	8.151474	1.634268	-0.941336	1.028551	-0.711707	4.877987	0.081116	0.018372	-0.009033	0.999682	0.005142	-0.003558	0.024387	
31982	    0	8.746851	1.985623	-0.293262	0.846009	-0.755972	5.201191	0.086923	0.022133	-0.002513	0.999645	0.004230	-0.003779	0.026003	
31983	    0	9.057022	1.322598	0.317700	0.778490	-0.811110	5.478619	0.090149	0.015686	0.003601	0.999609	0.003892	-0.004055	0.027390	
31984	    0	9.521408	0.981094	0.432247	0.833248	-0.887234	5.712177	0.094862	0.012505	0.004792	0.999573	0.004166	-0.004436	0.028557	
31985	    0	10.328109	1.644767	0.259937	0.881329	-0.958207	5.899182	0.102722	0.019470	0.003174	0.999543	0.004406	-0.004790	0.029491	
31986	    0	11.071194	2.286338	0.418841	0.983584	-0.995030	5.996698	0.109938	0.026145	0.004860	0.999526	0.004917	-0.004974	0.029979	
31987	    0	11.723632	3.119482	0.068925	1.126473	-1.006481	6.075516	0.116211	0.034729	0.001465	0.999510	0.005631	-0.005032	0.030373	
31988	    0	12.619464	3.932890	-0.550985	1.248565	-0.967948	6.076666	0.124946	0.043169	-0.004642	0.999507	0.006242	-0.004839	0.030378	
31989	    0	13.803112	4.186697	-0.942656	1.392021	-0.921019	6.055683	0.136719	0.046082	-0.008484	0.999506	0.006959	-0.004604	0.030273	
31990	    0	15.459163	4.761143	-1.340499	1.572484	-0.891068	5.991769	0.153128	0.052314	-0.012321	0.999510	0.007861	-0.004455	0.029954	
31991	    0	17.576060	7.826710	-1.361862	1.305783	-0.867597	5.907597	0.173401	0.083496	-0.012329	0.999533	0.006528	-0.004337	0.029533	
31992	    0	19.642052	12.578078	0.546933	0.582777	-0.572667	5.768066	0.192668	0.131356	0.006402	0.999576	0.002913	-0.002863	0.028836	
31993	    0	18.994961	11.480157	1.696048	0.429016	-0.322764	5.440436	0.186707	0.119873	0.017517	0.999626	0.002145	-0.001614	0.027199	
31994	    0	18.435792	10.888501	0.201016	0.767787	-0.152413	4.904107	0.181613	0.113352	0.002579	0.999691	0.003839	-0.000762	0.024518	
31995	    0	18.294291	11.734699	-2.048175	1.172922	-0.003052	4.206419	0.180420	0.121277	-0.019775	0.999762	0.005864	-0.000015	0.021030	
31996	    0	16.691818	13.919884	-4.687592	1.460734	0.004006	3.466048	0.164468	0.142401	-0.045847	0.999823	0.007303	0.000020	0.017329	
31997	    0	14.465754	17.593052	-5.690865	1.433620	-0.131803	2.728380	0.142273	0.178284	-0.055542	0.999881	0.007168	-0.000659	0.013641	
31998	    0	11.840820	20.591281	-4.858371	1.090072	-0.303847	1.928179	0.116487	0.207302	-0.047278	0.999937	0.005450	-0.001519	0.009641	
31999	    0	10.191915	21.132751	-3.103571	0.668340	-0.349238	1.078804	0.100830	0.211975	-0.030151	0.999978	0.003342	-0.001746	0.005394	
32000	    0	10.713816	19.880717	-1.426608	0.345230	-0.249672	0.251961	0.106905	0.198966	-0.013789	0.999996	0.001726	-0.001248	0.001260	
32001	    0	11.949197	18.054230	-0.501980	0.282479	-0.109100	-0.419617	0.119873	0.180298	-0.004700	0.999996	0.001412	-0.000546	-0.002098	
32002	    0	12.829713	16.756419	-2.091421	0.494960	-0.175287	-1.158341	0.129283	0.166868	-0.020388	0.999979	0.002475	-0.000876	-0.005792	
32003	    0	8.928305	17.546945	-3.346157	0.881402	-0.215916	-1.925696	0.091003	0.174744	-0.032593	0.999943	0.004407	-0.001080	-0.009628	
32004	    0	9.607647	18.098370	-11.520546	1.622271	-0.614574	-2.724194	0.098888	0.180574	-0.113439	0.999869	0.008111	-0.003073	-0.013620	
32005	    0	13.856314	36.390464	-39.222866	4.271666	-1.731978	-4.453277	0.150085	0.368896	-0.383118	0.999486	0.021355	-0.008658	-0.022263	
32006	    0	50.131300	37.799036	5.792193	1.380840	0.885966	-7.050528	0.514465	0.359605	0.058187	0.999345	0.006903	0.004429	-0.035245	
32007	    0	42.266239	16.453325	16.158430	-0.521143	0.076493	-5.038991	0.426697	0.154236	0.161011	0.999679	-0.002605	0.000382	-0.025192	
32008	    0	28.098274	-18.396498	13.370676	-1.502194	0.004960	-4.776500	0.276503	-0.189593	0.135110	0.999686	-0.007510	0.000025	-0.023880	
32009	    0	2.188145	-0.164507	7.074875	-0.071723	-0.472114	-4.752039	0.021667	-0.002136	0.070801	0.999715	-0.000359	-0.002360	-0.023758	
32010	    0	-4.203364	3.456633	-4.699197	1.301120	-0.684991	-4.414575	-0.041092	0.035786	-0.046904	0.999729	0.006505	-0.003425	-0.022071	
32011	    0	5.846295	8.053616	-2.635588	1.239111	-0.555273	-4.123249	0.060181	0.079468	-0.025696	0.999764	0.006195	-0.002776	-0.020615	
32012	    0	3.678864	9.492144	-5.021443	0.580815	-0.465796	-3.278696	0.038456	0.094445	-0.049851	0.999858	0.002904	-0.002329	-0.016393	
32013	    0	4.388169	11.431671	-6.323889	-0.184445	-0.225073	-2.451387	0.045349	0.113708	-0.063293	0.999924	-0.000922	-0.001125	-0.012257	
32014	    0	12.722884	5.173252	-5.047590	-0.667393	0.047112	-1.984823	0.127721	0.050298	-0.050675	0.999945	-0.003337	0.000236	-0.009924	
32015	    0	15.288799	2.364886	-1.892704	-0.629433	-0.021935	-1.634237	0.153076	0.022339	-0.018982	0.999961	-0.003147	-0.000110	-0.008171	
32016	    0	15.645136	6.530715	-5.751829	-0.928507	0.221446	-1.284232	0.156801	0.064033	-0.057991	0.999968	-0.004642	0.001107	-0.006421	
32017	    0	17.266752	2.257840	-5.000436	-0.711828	0.244333	-1.130685	0.172729	0.021423	-0.050293	0.999976	-0.003559	0.001222	-0.005653	
32018	    0	16.931903	-1.750405	-3.049432	-0.411418	0.254251	-1.103026	0.169180	-0.018500	-0.030672	0.999981	-0.002057	0.001271	-0.005515	
32019	    0	19.762477	1.618495	-3.285860	-0.823028	0.469975	-1.107798	0.197632	0.014954	-0.033386	0.999973	-0.004115	0.002350	-0.005539	
32020	    0	21.297895	0.800975	-3.245158	-1.340312	0.540168	-1.058593	0.212928	0.006662	-0.033074	0.999959	-0.006701	0.002701	-0.005293	
32021	    0	18.431969	-1.940573	-2.668815	-1.412031	0.469215	-1.123063	0.184143	-0.020630	-0.026978	0.999956	-0.007060	0.002346	-0.005615	
32022	    0	18.890613	-0.691549	-0.490611	-1.604108	0.467690	-1.162549	0.188849	-0.008055	-0.005286	0.999948	-0.008020	0.002338	-0.005813	
32023	    0	19.064531	0.511164	0.214858	-2.045298	0.477611	-1.091792	0.190674	0.004089	0.001648	0.999929	-0.010226	0.002388	-0.005459	
32024	    0	17.819005	-0.151678	-0.483490	-2.523122	0.512903	-1.050983	0.178165	-0.002518	-0.005264	0.999903	-0.012615	0.002564	-0.005255	
32025	    0	16.561536	-3.657037	-1.043028	-2.873344	0.506803	-0.988046	0.165405	-0.037537	-0.010315	0.999881	-0.014366	0.002534	-0.004940	
32026	    0	14.325908	-7.011982	-0.906194	-3.144981	0.485633	-0.964209	0.142898	-0.070944	-0.008298	0.999862	-0.015724	0.002428	-0.004821	
32027	    0	12.452857	-6.966690	-1.322577	-3.210413	0.469230	-1.006366	0.124146	-0.070496	-0.012390	0.999855	-0.016051	0.002346	-0.005032	
32028	    0	11.706298	-6.748213	-2.136071	-3.078220	0.498413	-1.102879	0.116635	-0.068447	-0.020603	0.999863	-0.015390	0.002492	-0.005514	
32029	    0	11.377330	-6.045053	-3.438467	-2.621557	0.515957	-1.319934	0.113281	-0.061646	-0.033875	0.999888	-0.013107	0.002580	-0.006599	
32030	    0	11.029984	-4.037176	-4.897263	-2.005445	0.523392	-1.664974	0.109828	-0.041778	-0.048846	0.999911	-0.010027	0.002617	-0.008325	
32031	    0	11.427529	-2.993520	-4.849433	-1.421966	0.543227	-2.022606	0.113831	-0.031433	-0.048584	0.999920	-0.007110	0.002716	-0.010113	
32032	    0	10.704328	-2.171509	-5.546653	-1.010732	0.506606	-2.335805	0.106637	-0.023243	-0.055622	0.999915	-0.005054	0.002533	-0.011679	
32033	    0	10.264890	-2.029246	-5.843575	-0.682662	0.450912	-2.653589	0.102234	-0.021851	-0.058594	0.999903	-0.003413	0.002254	-0.013268	
32034	    0	9.701852	-1.942796	-5.604911	-0.529690	0.376715	-2.920450	0.096614	-0.020989	-0.056177	0.999887	-0.002648	0.001884	-0.014602	
32035	    0	9.830391	-1.555138	-4.944085	-0.477620	0.325217	-3.144970	0.097961	-0.017212	-0.049561	0.999871	-0.002388	0.001626	-0.015724	
32036	    0	9.270549	-1.425039	-4.604164	-0.426121	0.350778	-3.283843	0.092373	-0.015867	-0.046171	0.999861	-0.002131	0.001754	-0.016418	
32037	    0	9.911845	-2.011395	-4.132152	-0.402088	0.332085	-3.345649	0.098694	-0.021851	-0.041443	0.999856	-0.002010	0.001660	-0.016727	
32038	    0	10.203309	-1.053929	-3.228129	-0.508906	0.361270	-3.380370	0.101776	-0.012343	-0.032435	0.999852	-0.002544	0.001806	-0.016901	
32039	    0	10.877936	0.009295	-3.148914	-0.680575	0.353449	-3.341075	0.108704	-0.001831	-0.031677	0.999852	-0.003403	0.001767	-0.016705	
32040	    0	11.421858	-3.449994	-2.134731	-0.802650	0.359171	-3.233107	0.113602	-0.036426	-0.021408	0.999859	-0.004013	0.001796	-0.016165	
32041	    0	10.500094	-4.838442	-1.967607	-0.817908	0.344292	-3.149555	0.104187	-0.050110	-0.019653	0.999866	-0.004089	0.001721	-0.015747	
32042	    0	10.107246	-5.695512	-2.634913	-0.871887	0.357643	-3.074206	0.100133	-0.058614	-0.026276	0.999870	-0.004359	0.001788	-0.015370	
32043	    0	9.816246	-6.332224	-2.770807	-0.899351	0.347151	-2.941249	0.097168	-0.064880	-0.027588	0.999880	-0.004497	0.001736	-0.014706	
32044	    0	9.663100	-6.513195	-2.949773	-0.889047	0.279246	-2.778153	0.095672	-0.066596	-0.029338	0.999892	-0.004445	0.001396	-0.013890	
32045	    0	9.487983	-6.424483	-3.082275	-0.885801	0.223739	-2.613151	0.093994	-0.065613	-0.030640	0.999904	-0.004429	0.001119	-0.013065	
32046	    0	9.201482	-6.179617	-3.018032	-0.907351	0.163846	-2.441476	0.091226	-0.063049	-0.029971	0.999914	-0.004537	0.000819	-0.012207	
32047	    0	8.874610	-5.740392	-2.926829	-0.909256	0.110629	-2.256831	0.088074	-0.058533	-0.029053	0.999926	-0.004546	0.000553	-0.011284	
32048	    0	8.646822	-5.232164	-3.070954	-0.889987	0.042153	-2.053876	0.085917	-0.053342	-0.030492	0.999937	-0.004450	0.000211	-0.010269	
32049	    0	8.471669	-4.559739	-3.120048	-0.872055	0.016213	-1.837953	0.084290	-0.046509	-0.031006	0.999948	-0.004360	0.000081	-0.009190	
32050	    0	8.844969	-3.795280	-2.953209	-0.796901	0.015640	-1.613829	0.088137	-0.038782	-0.029386	0.999959	-0.003984	0.000078	-0.008069	
32051	    0	10.714040	-2.869339	-3.383871	-0.393489	0.060273	-1.345836	0.106934	-0.029480	-0.033813	0.999975	-0.001967	0.000301	-0.006729	
32052	    0	13.507634	-2.492949	-4.279237	0.166703	0.174905	-1.055723	0.134905	-0.025606	-0.042932	0.999985	0.000834	0.000875	-0.005279	
32053	    0	14.831999	-2.289853	-4.198632	0.742343	0.221444	-0.691226	0.148193	-0.023254	-0.042236	0.999986	0.003712	0.001107	-0.003456	
32054	    0	12.948164	-0.344414	-3.911786	1.073080	0.155640	-0.297739	0.129446	-0.003427	-0.039237	0.999984	0.005365	0.000778	-0.001489	
32055	    0	10.366500	1.713992	-2.535016	1.054387	0.135995	0.116730	0.103638	0.017334	-0.025330	0.999986	0.005272	0.000680	0.000584	
32056	    0	8.777393	2.446783	-1.391969	0.948911	0.169373	0.551227	0.087694	0.024776	-0.013877	0.999984	0.004745	0.000847	0.002756	
32057	    0	8.121534	1.729792	-1.526361	0.927741	0.189401	0.967415	0.081116	0.017761	-0.015259	0.999976	0.004639	0.000947	0.004837	
32058	    0	7.351805	1.287001	-1.836221	0.944530	0.170137	1.378648	0.073411	0.013463	-0.018362	0.999965	0.004723	0.000851	0.006893	
32059	    0	6.469533	1.202602	-1.986591	0.966852	0.095369	1.774627	0.064575	0.012695	-0.019836	0.999949	0.004834	0.000477	0.008873	
32060	    0	5.758616	1.218010	-2.297486	1.003289	-0.027276	2.178244	0.057451	0.012921	-0.022903	0.999928	0.005016	-0.000136	0.010891	
32061	    0	5.657579	1.477646	-2.368227	1.012644	-0.159459	2.582633	0.056396	0.015625	-0.023560	0.999903	0.005063	-0.000797	0.012913	
32062	    0	5.661535	1.760431	-2.066543	0.989573	-0.306333	2.976159	0.056376	0.018546	-0.020489	0.999875	0.004948	-0.001532	0.014880	
32063	    0	5.703688	1.825749	-1.731800	0.980427	-0.475908	3.325823	0.056763	0.019287	-0.017090	0.999846	0.004902	-0.002379	0.016628	
32064	    0	6.109859	1.847056	-1.676922	0.965179	-0.633470	3.706211	0.060794	0.019679	-0.016483	0.999811	0.004826	-0.003167	0.018530	
32065	    0	6.887698	1.530697	-1.566255	0.955273	-0.771200	4.087377	0.068604	0.016785	-0.015320	0.999772	0.004776	-0.003856	0.020435	
32066	    0	7.842685	0.820421	-1.214547	0.985997	-0.861626	4.446046	0.078269	0.010004	-0.011762	0.999731	0.004930	-0.004308	0.022228	
32067	    0	8.848125	0.485306	-1.051998	1.056208	-0.940802	4.777258	0.088379	0.007019	-0.010071	0.999689	0.005280	-0.004704	0.023884	
32068	    0	9.928170	0.984358	-0.847352	1.077779	-0.986787	5.104092	0.099027	0.012417	-0.007922	0.999647	0.005388	-0.004933	0.025517	
32069	    0	10.639982	1.490029	-0.216117	1.060814	-1.029339	5.374841	0.105957	0.017761	-0.001526	0.999611	0.005303	-0.005146	0.026871	
32070	    0	11.149483	1.602979	0.269640	1.112905	-1.065596	5.617936	0.110970	0.019135	0.003389	0.999576	0.005564	-0.005327	0.028086	
32071	    0	11.745265	1.688365	0.222855	1.191319	-1.107193	5.801506	0.116882	0.020264	0.002991	0.999546	0.005956	-0.005535	0.029003	
32072	    0	12.589056	2.095174	0.373717	1.285757	-1.092512	5.939092	0.125172	0.024649	0.004573	0.999523	0.006428	-0.005462	0.029691	
32073	    0	13.077964	2.502912	0.057564	1.458407	-1.056081	6.004554	0.129944	0.028931	0.001465	0.999508	0.007291	-0.005280	0.030018	
32074	    0	13.449870	3.186655	-0.391360	1.665964	-1.000189	5.999796	0.133478	0.035909	-0.002956	0.999502	0.008328	-0.005000	0.029994	
32075	    0	14.285346	4.036499	-0.893012	1.823919	-0.932467	5.967176	0.141602	0.044678	-0.007874	0.999502	0.009118	-0.004662	0.029831	
32076	    0	15.702073	5.081919	-1.220164	1.908232	-0.858828	5.894096	0.155479	0.055526	-0.011017	0.999511	0.009540	-0.004293	0.029466	
32077	    0	17.125704	6.800227	-1.574886	1.836683	-0.810941	5.790854	0.169250	0.073059	-0.014404	0.999530	0.009182	-0.004054	0.028950	
32078	    0	18.859982	10.870665	-0.259858	1.326749	-0.607577	5.641782	0.185439	0.113979	-0.001287	0.999575	0.006633	-0.003037	0.028205	
32079	    0	18.401714	11.424196	0.841181	1.027999	-0.354811	5.369476	0.180847	0.119080	0.009338	0.999624	0.005139	-0.001774	0.026844	
32080	    0	17.597533	10.301238	-0.132458	1.171810	-0.194189	4.925492	0.173368	0.107308	-0.000535	0.999679	0.005858	-0.000971	0.024625	
32081	    0	17.515508	11.208173	-1.679857	1.446660	-0.044827	4.343031	0.172668	0.115967	-0.015930	0.999738	0.007233	-0.000224	0.021713	
32082	    0	16.424747	13.158155	-3.611477	1.593508	-0.015641	3.715005	0.161765	0.134884	-0.035036	0.999795	0.007967	-0.000078	0.018574	
32083	    0	14.392621	15.711005	-4.756833	1.484181	-0.090031	3.107606	0.141479	0.159668	-0.046326	0.999851	0.007421	-0.000450	0.015537	
32084	    0	12.296860	17.812541	-4.557088	1.182594	-0.225647	2.483637	0.120792	0.179899	-0.044374	0.999905	0.005913	-0.001128	0.012418	
32085	    0	10.604866	19.002620	-3.169165	0.814833	-0.291257	1.807434	0.104370	0.191101	-0.030762	0.999949	0.004074	-0.001456	0.009037	
32086	    0	9.963582	18.619636	-1.656058	0.508121	-0.229265	1.104171	0.098624	0.186784	-0.015973	0.999980	0.002541	-0.001146	0.005521	
32087	    0	10.403877	17.937771	-0.837020	0.354767	-0.108147	0.451661	0.103638	0.179626	-0.007996	0.999995	0.001774	-0.000541	0.002258	
32088	    0	9.924645	17.139230	-0.606736	0.326157	-0.011635	-0.109291	0.099340	0.171348	-0.005782	0.999998	0.001631	-0.000058	-0.000546	
32089	    0	8.475302	15.858099	-0.961185	0.442506	0.037575	-0.650026	0.085266	0.158325	-0.009277	0.999991	0.002213	0.000188	-0.003250	
32090	    0	9.296646	13.550608	-2.137713	0.613598	-0.031853	-1.132973	0.093736	0.135041	-0.020947	0.999979	0.003068	-0.000159	-0.005665	
32091	    0	10.227060	14.047356	-4.030864	0.815786	-0.244145	-1.796752	0.103577	0.139709	-0.039612	0.999950	0.004079	-0.001221	-0.008984	
32092	    0	8.149978	13.600389	-6.175090	1.222264	-0.402653	-2.301283	0.083183	0.135427	-0.060756	0.999912	0.006111	-0.002013	-0.011506	
32093	    0	8.358067	32.034868	-41.631950	3.558965	-1.959462	-3.482471	0.093262	0.326111	-0.409668	0.999641	0.017793	-0.009796	-0.017410	
32094	    0	43.152434	39.715962	-11.878181	1.654928	0.360364	-6.404713	0.443753	0.384048	-0.116360	0.999451	0.008273	0.001801	-0.032018	
32095	    0	47.256523	22.964182	12.847289	-0.296821	-0.140208	-5.521334	0.478577	0.216675	0.128479	0.999618	-0.001484	-0.000701	-0.027603	
32096	    0	35.038018	-18.162427	14.821797	-1.938050	-0.059324	-4.354317	0.346292	-0.187745	0.150121	0.999716	-0.009689	-0.000297	-0.021770	
32097	    0	7.221374	-3.549368	12.079576	-0.795058	-0.430148	-4.671156	0.071106	-0.036682	0.121094	0.999717	-0.003975	-0.002151	-0.023354	
32098	    0	0.534060	1.146420	-2.864475	1.092248	-0.698154	-4.505761	0.005699	0.011495	-0.028563	0.999724	0.005461	-0.003490	-0.022527	
32099	    0	6.037133	6.340402	-2.826146	1.133257	-0.442544	-4.458252	0.061829	0.062195	-0.027771	0.999733	0.005666	-0.002213	-0.022289	
32100	    0	2.637666	9.585061	-4.191731	0.734563	-0.512726	-3.660609	0.028234	0.095498	-0.041495	0.999822	0.003673	-0.002563	-0.018302	
32101	    0	1.516628	10.830974	-7.047539	0.038339	-0.247201	-2.831364	0.016785	0.108093	-0.070435	0.999899	0.000192	-0.001236	-0.014156	
32102	    0	9.047604	5.760219	-3.500460	-0.120929	-0.134281	-2.409803	0.091185	0.056485	-0.034978	0.999927	-0.000605	-0.000671	-0.012049	
32103	    0	15.514227	6.592681	-4.252715	-0.716985	0.033570	-1.933323	0.155762	0.064270	-0.042786	0.999947	-0.003585	0.000168	-0.009666	
32104	    0	15.529341	5.694006	-5.246742	-1.307890	0.173190	-1.455521	0.155655	0.055463	-0.052968	0.999951	-0.006539	0.000866	-0.007277	
32105	    0	15.385403	3.374215	-4.612536	-0.844583	0.079537	-1.318373	0.154053	0.032532	-0.046326	0.999969	-0.004223	0.000398	-0.006592	
32106	    0	20.269315	2.014033	-2.225310	-0.748832	0.192262	-1.243221	0.202791	0.018796	-0.022520	0.999972	-0.003744	0.000961	-0.006216	
32107	    0	20.032118	0.410392	-1.413009	-1.197638	0.315098	-1.147475	0.200317	0.002869	-0.014465	0.999964	-0.005988	0.001575	-0.005737	
32108	    0	20.104559	0.259028	-2.434382	-1.454183	0.398832	-1.081101	0.201006	0.001325	-0.024757	0.999956	-0.007271	0.001994	-0.005405	
32109	    0	18.591956	-0.363456	-2.468301	-1.519036	0.338178	-1.139849	0.185852	-0.004883	-0.024963	0.999953	-0.007595	0.001691	-0.005699	
32110	    0	17.071998	-1.386531	-0.931400	-1.676588	0.352484	-1.094455	0.170624	-0.014878	-0.009493	0.999948	-0.008383	0.001762	-0.005472	
32111	    0	16.305709	-0.262905	-0.770448	-1.995702	0.396737	-1.020835	0.163025	-0.003540	-0.007996	0.999935	-0.009978	0.001984	-0.005104	
32112	    0	15.719281	0.753820	-1.817115	-2.359075	0.459875	-0.967053	0.157184	0.006560	-0.018614	0.999916	-0.011795	0.002299	-0.004835	
32113	    0	15.383892	-2.029417	-2.370633	-2.714634	0.496882	-0.890382	0.153687	-0.021301	-0.023804	0.999894	-0.013573	0.002484	-0.004452	
32114	    0	13.918339	-4.373696	-2.305495	-2.999811	0.453777	-0.843083	0.138945	-0.044665	-0.022705	0.999876	-0.014998	0.002269	-0.004215	
32115	    0	12.124337	-5.386078	-2.091398	-3.137347	0.436612	-0.833930	0.120972	-0.054688	-0.020325	0.999866	-0.015686	0.002183	-0.004169	
32116	    0	11.762494	-4.577353	-2.034449	-3.110644	0.467894	-0.932163	0.117362	-0.046633	-0.019898	0.999865	-0.015553	0.002339	-0.004661	
32117	    0	11.970746	-3.452303	-2.889807	-2.767096	0.461596	-1.108593	0.119446	-0.035583	-0.028687	0.999886	-0.013835	0.002308	-0.005543	
32118	    0	12.093658	-2.782981	-4.129860	-2.393037	0.473038	-1.361128	0.120644	-0.029145	-0.041241	0.999902	-0.011965	0.002365	-0.006805	
32119	    0	12.096325	-2.959362	-4.144118	-1.974544	0.502219	-1.661730	0.120605	-0.031006	-0.041443	0.999913	-0.009872	0.002511	-0.008308	
32120	    0	10.802451	-2.453574	-5.182337	-1.569028	0.481619	-1.965767	0.107649	-0.026002	-0.051883	0.999918	-0.007845	0.002408	-0.009829	
32121	    0	10.220031	-2.715144	-5.768586	-1.205480	0.438131	-2.330086	0.101746	-0.028687	-0.057739	0.999911	-0.006027	0.002191	-0.011650	
32122	    0	9.808816	-2.545480	-5.424258	-0.862341	0.351536	-2.657024	0.097641	-0.026988	-0.054300	0.999901	-0.004312	0.001758	-0.013285	
32123	    0	9.859562	-2.124245	-4.803289	-0.627732	0.270091	-2.916064	0.098206	-0.022827	-0.048096	0.999887	-0.003139	0.001350	-0.014580	
32124	    0	9.687542	-1.331464	-4.200387	-0.470563	0.227366	-3.141917	0.096601	-0.014933	-0.042080	0.999873	-0.002353	0.001137	-0.015709	
32125	    0	9.600023	-0.320663	-4.098683	-0.465987	0.208292	-3.295288	0.095886	-0.004883	-0.041077	0.999861	-0.002330	0.001041	-0.016476	
32126	    0	10.064551	0.048543	-3.788282	-0.698505	0.264753	-3.349850	0.100583	-0.001332	-0.038013	0.999852	-0.003492	0.001324	-0.016748	
32127	    0	11.214958	0.672730	-3.249445	-1.114520	0.339525	-3.290725	0.112183	0.004700	-0.032715	0.999847	-0.005572	0.001698	-0.016453	
32128	    0	12.418018	-2.717322	-2.306407	-1.332542	0.408766	-3.219388	0.123672	-0.029321	-0.023127	0.999846	-0.006662	0.002044	-0.016096	
32129	    0	11.796553	-4.955469	-1.581831	-1.321477	0.451110	-3.159489	0.117126	-0.051514	-0.015747	0.999850	-0.006607	0.002255	-0.015797	
32130	    0	11.319608	-5.527027	-2.213324	-1.285806	0.531604	-3.120956	0.112255	-0.057169	-0.022069	0.999853	-0.006429	0.002658	-0.015604	
32131	    0	11.188621	-6.260028	-2.619700	-1.229725	0.572994	-3.043506	0.110840	-0.064453	-0.026123	0.999861	-0.006148	0.002865	-0.015217	
32132	    0	10.736160	-6.612284	-2.919729	-1.109361	0.562883	-2.944881	0.106289	-0.067855	-0.029124	0.999872	-0.005547	0.002814	-0.014724	
32133	    0	10.326477	-6.627012	-3.137681	-0.972022	0.509854	-2.824510	0.102234	-0.067871	-0.031311	0.999885	-0.004860	0.002549	-0.014122	
32134	    0	10.008174	-6.343510	-3.225217	-0.883514	0.445953	-2.679534	0.099147	-0.064910	-0.032189	0.999898	-0.004417	0.002230	-0.013397	
32135	    0	9.762877	-5.974395	-3.203628	-0.801683	0.389874	-2.521590	0.096802	-0.061096	-0.031982	0.999910	-0.004008	0.001949	-0.012608	
32136	    0	9.582788	-5.415554	-3.424694	-0.757237	0.351533	-2.319967	0.095130	-0.055391	-0.034206	0.999924	-0.003786	0.001758	-0.011600	
32137	    0	9.718276	-4.726479	-3.478856	-0.656714	0.328834	-2.111097	0.096619	-0.048401	-0.034790	0.999937	-0.003284	0.001644	-0.010555	
32138	    0	10.756365	-4.099227	-3.590802	-0.358778	0.322156	-1.888114	0.107112	-0.042069	-0.036006	0.999952	-0.001794	0.001611	-0.009440	
32139	    0	12.791585	-3.327418	-4.236511	0.069428	0.353436	-1.632709	0.127563	-0.034302	-0.042603	0.999965	0.000347	0.001767	-0.008163	
32140	    0	14.348046	-2.749412	-4.271077	0.492673	0.383381	-1.324665	0.143212	-0.028337	-0.043055	0.999972	0.002463	0.001917	-0.006623	
32141	    0	13.912589	-1.628808	-4.108049	0.880439	0.328257	-0.975807	0.138977	-0.016785	-0.041382	0.999976	0.004402	0.001641	-0.004879	
32142	    0	11.835414	0.269074	-3.465474	0.964933	0.244714	-0.616077	0.118320	0.002494	-0.034787	0.999983	0.004825	0.001224	-0.003080	
32143	    0	9.601715	1.300561	-2.315382	0.805857	0.191498	-0.205231	0.096008	0.013000	-0.023193	0.999990	0.004029	0.000957	-0.001026	
32144	    0	8.463318	1.176362	-1.858658	0.694658	0.155068	0.228119	0.084605	0.011925	-0.018611	0.999992	0.003473	0.000775	0.001141	
32145	    0	7.930984	0.383138	-1.998426	0.679209	0.123597	0.633242	0.079285	0.004150	-0.020020	0.999989	0.003396	0.000618	0.003166	
32146	    0	7.053353	0.525808	-2.167987	0.689129	0.062371	1.020247	0.070498	0.005692	-0.021683	0.999981	0.003446	0.000312	0.005101	
32147	    0	6.096271	0.779822	-2.171655	0.716407	-0.065423	1.394668	0.060913	0.008301	-0.021667	0.999969	0.003582	-0.000327	0.006973	
32148	    0	5.571028	1.092378	-2.280947	0.735104	-0.222210	1.819449	0.055633	0.011514	-0.022706	0.999950	0.003675	-0.001111	0.009097	
32149	    0	5.659010	1.521874	-2.244231	0.750178	-0.373849	2.221732	0.056458	0.015930	-0.022278	0.999929	0.003751	-0.001869	0.011108	
32150	    0	5.928703	2.198928	-2.010160	0.718712	-0.519578	2.624023	0.059043	0.022837	-0.019867	0.999904	0.003593	-0.002598	0.013120	
32151	    0	6.200927	2.299115	-1.695147	0.716430	-0.660543	3.027471	0.061707	0.023987	-0.016663	0.999873	0.003582	-0.003303	0.015137	
32152	    0	6.480226	1.801606	-1.531086	0.809523	-0.805136	3.437421	0.064540	0.019188	-0.014975	0.999836	0.004047	-0.004025	0.017186	
32153	    0	7.172924	1.578877	-1.347250	0.905670	-0.936762	3.810377	0.071472	0.017212	-0.013062	0.999797	0.004528	-0.004683	0.019051	
32154	    0	8.136127	1.431767	-1.031882	0.999913	-1.017081	4.173617	0.081089	0.016062	-0.009829	0.999757	0.004999	-0.005085	0.020866	
32155	    0	9.010700	1.186015	-0.683178	1.068978	-1.055053	4.494897	0.089844	0.013916	-0.006287	0.999719	0.005344	-0.005275	0.022472	
32156	    0	9.531289	0.768580	-0.439084	1.142622	-1.095887	4.776696	0.095115	0.009982	-0.003817	0.999683	0.005713	-0.005479	0.023881	
32157	    0	9.957242	0.919543	-0.166955	1.201962	-1.139966	5.061939	0.099304	0.011719	-0.001038	0.999645	0.006009	-0.005699	0.025307	
32158	    0	10.452163	1.444035	0.234208	1.210179	-1.143413	5.330588	0.104072	0.017201	0.003036	0.999610	0.006050	-0.005716	0.026649	
32159	    0	10.757507	1.999501	0.454968	1.180434	-1.177191	5.569479	0.106934	0.022949	0.005310	0.999578	0.005901	-0.005885	0.027843	
32160	    0	10.908183	2.410392	0.320215	1.150304	-1.179490	5.766779	0.108305	0.027213	0.003993	0.999550	0.005751	-0.005897	0.028830	
32161	    0	11.040520	2.583302	0.309223	1.195904	-1.177400	5.901499	0.109558	0.029053	0.003906	0.999529	0.005979	-0.005886	0.029503	
32162	    0	11.261409	2.801106	0.144658	1.381717	-1.169967	5.979938	0.111698	0.031346	0.002311	0.999512	0.006907	-0.005849	0.029895	
32163	    0	11.799790	3.693444	-0.152151	1.609308	-1.119228	6.013728	0.116821	0.040466	-0.000549	0.999499	0.008045	-0.005595	0.030064	
32164	    0	12.971682	4.987801	-0.330178	1.760780	-1.056277	6.029004	0.128148	0.053780	-0.002160	0.999493	0.008802	-0.005280	0.030140	
32165	    0	14.639844	6.373319	-0.679968	1.761354	-0.991227	6.052663	0.144409	0.068176	-0.005493	0.999491	0.008805	-0.004955	0.030258	
32166	    0	16.349107	8.591090	-0.735184	1.518689	-0.911290	6.014092	0.160838	0.090823	-0.005938	0.999508	0.007592	-0.004556	0.030066	
32167	    0	17.799169	11.804548	0.314748	0.969844	-0.679692	5.926653	0.174377	0.123230	0.004333	0.999543	0.004848	-0.003398	0.029629	
32168	    0	17.858242	12.159680	1.317555	0.711920	-0.406130	5.666935	0.175015	0.126541	0.013978	0.999590	0.003559	-0.002030	0.028331	
32169	    0	18.275197	11.622531	0.781947	0.834944	-0.183890	5.224456	0.179626	0.120911	0.008484	0.999649	0.004174	-0.000919	0.026119	
32170	    0	18.822133	12.085451	-0.456033	1.151193	0.014306	4.604390	0.185372	0.125168	-0.003861	0.999718	0.005755	0.000072	0.023020	
32171	    0	17.969338	13.497038	-2.357579	1.471054	0.088698	3.902718	0.177002	0.138611	-0.022644	0.999782	0.007355	0.000443	0.019512	
32172	    0	15.916023	16.553778	-4.002124	1.606644	0.037386	3.155873	0.156511	0.168336	-0.038706	0.999843	0.008033	0.000187	0.015779	
32173	    0	13.070896	19.673825	-4.314529	1.519254	-0.118260	2.401051	0.128357	0.198608	-0.041565	0.999899	0.007596	-0.000591	0.012005	
32174	    0	10.280932	20.904725	-3.337795	1.237128	-0.245671	1.598958	0.101172	0.210061	-0.031956	0.999948	0.006186	-0.001228	0.007995	
32175	    0	9.983848	20.175982	-1.322890	0.962073	-0.223352	0.784307	0.099060	0.202209	-0.012146	0.999980	0.004810	-0.001117	0.003922	
32176	    0	11.265614	19.193002	0.481751	0.806238	-0.105286	0.048256	0.112607	0.191936	0.005651	0.999991	0.004031	-0.000526	0.000241	
32177	    0	11.052121	17.869068	0.800719	0.807956	0.000191	-0.562289	0.111023	0.178345	0.008728	0.999988	0.004040	0.000001	-0.002811	
32178	    0	9.569548	16.333081	-0.049310	0.977907	0.062371	-1.134120	0.096620	0.162785	0.000274	0.999971	0.004889	0.000312	-0.005671	
32179	    0	9.726807	12.978220	-1.744337	1.311708	0.012970	-1.640350	0.098328	0.129089	-0.016602	0.999945	0.006558	0.000065	-0.008202	
32180	    0	11.074870	12.850123	-3.982808	1.688253	-0.309001	-2.338301	0.112304	0.127523	-0.038576	0.999894	0.008441	-0.001545	-0.011691	
32181	    0	6.710348	13.640449	-7.959353	2.094374	-0.475907	-2.732224	0.069153	0.136292	-0.078003	0.999848	0.010471	-0.002379	-0.013660	
32182	    0	4.105154	35.112486	-51.587782	4.563180	-2.401774	-3.946616	0.054247	0.361779	-0.507105	0.999473	0.022812	-0.012007	-0.019730	
32183	    0	45.874937	31.104200	-3.279900	1.126484	0.667687	-6.302968	0.468140	0.296570	-0.032654	0.999481	0.005631	0.003338	-0.031509	
32184	    0	45.580226	20.571207	18.677918	-0.966938	0.118650	-4.956009	0.460837	0.195232	0.185546	0.999681	-0.004834	0.000593	-0.024777	
32185	    0	34.013933	-17.507115	14.344236	-1.888261	0.067145	-4.338479	0.336304	-0.181030	0.145020	0.999720	-0.009440	0.000336	-0.021690	
32186	    0	5.484218	-0.063870	8.424253	-0.569581	-0.374634	-4.402525	0.054656	-0.001603	0.084349	0.999751	-0.002848	-0.001873	-0.022011	
32187	    0	-0.452858	0.909465	-4.019759	1.052182	-0.577403	-4.326993	-0.004211	0.009399	-0.040161	0.999747	0.005260	-0.002887	-0.021633	
32188	    0	8.494810	5.455017	-1.208086	1.246747	-0.346594	-4.273770	0.086109	0.052792	-0.011600	0.999750	0.006233	-0.001733	-0.021367	
32189	    0	5.221360	9.833472	-3.027456	0.792164	-0.382253	-3.444090	0.053955	0.097534	-0.029785	0.999842	0.003961	-0.001911	-0.017220	
32190	    0	4.317539	10.079264	-5.531091	0.096515	-0.159459	-2.701270	0.044576	0.100224	-0.055227	0.999907	0.000483	-0.000797	-0.013506	
32191	    0	10.049848	4.410817	-3.271223	-0.210576	-0.085260	-2.312522	0.101013	0.042908	-0.032715	0.999932	-0.001053	-0.000426	-0.011562	
32192	    0	15.072035	7.137859	-5.401715	-1.011867	0.077058	-1.813349	0.151337	0.069734	-0.054431	0.999946	-0.005059	0.000385	-0.009067	
32193	    0	14.558884	4.699540	-5.100412	-1.437975	0.160983	-1.417566	0.145874	0.045593	-0.051453	0.999949	-0.007190	0.000805	-0.007088	
32194	    0	15.933965	2.423617	-3.356744	-0.892076	0.076867	-1.266874	0.159475	0.023076	-0.033733	0.999969	-0.004460	0.000384	-0.006334	
32195	    0	20.641235	0.525222	-2.017383	-0.843629	0.187685	-1.280225	0.206421	0.003845	-0.020386	0.999969	-0.004218	0.000938	-0.006401	
32196	    0	20.604737	1.110875	-2.656429	-1.434921	0.362020	-1.235981	0.206061	0.009643	-0.027010	0.999953	-0.007174	0.001810	-0.006180	
32197	    0	20.431195	-0.253812	-3.176671	-1.783025	0.421342	-1.179528	0.204224	-0.004028	-0.032166	0.999940	-0.008915	0.002107	-0.005898	
32198	    0	19.101697	-2.114684	-1.749812	-1.739918	0.336844	-1.277377	0.190846	-0.022519	-0.017628	0.999940	-0.008699	0.001684	-0.006387	
32199	    0	18.191416	-1.449921	0.356805	-1.871341	0.389108	-1.273374	0.181824	-0.015625	0.003357	0.999933	-0.009356	0.001945	-0.006367	
32200	    0	16.919449	-1.286605	0.360895	-2.264659	0.464262	-1.195178	0.169122	-0.013838	0.003369	0.999915	-0.011323	0.002321	-0.005976	
32201	    0	15.454755	-1.722277	-0.874423	-2.481160	0.503747	-1.187172	0.154419	-0.018250	-0.008911	0.999902	-0.012405	0.002519	-0.005936	
32202	    0	15.269736	-3.067875	-1.154651	-2.718455	0.526067	-1.161047	0.152485	-0.031721	-0.011521	0.999887	-0.013592	0.002630	-0.005805	
32203	    0	14.089339	-5.220062	-1.203444	-2.848168	0.534270	-1.127670	0.140564	-0.053162	-0.011658	0.999879	-0.014240	0.002671	-0.005638	
32204	    0	12.382148	-6.764501	-1.347888	-2.856179	0.568222	-1.110694	0.123405	-0.068518	-0.012856	0.999878	-0.014280	0.002841	-0.005553	
32205	    0	11.458130	-6.105284	-1.971098	-2.519313	0.618193	-1.249738	0.114136	-0.062012	-0.019287	0.999896	-0.012596	0.003091	-0.006248	
32206	    0	11.732524	-3.445553	-3.449483	-1.907781	0.601975	-1.565022	0.116945	-0.035701	-0.034511	0.999919	-0.009539	0.003010	-0.007825	
32207	    0	12.576963	-3.566153	-4.021420	-1.375422	0.608840	-1.866195	0.125305	-0.037109	-0.040344	0.999928	-0.006877	0.003044	-0.009331	
32208	    0	11.770357	-3.812081	-4.697716	-0.865194	0.593772	-2.163367	0.117141	-0.039594	-0.047156	0.999928	-0.004326	0.002969	-0.010817	
32209	    0	11.042425	-3.676258	-5.649804	-0.501837	0.542465	-2.480385	0.109802	-0.038269	-0.056702	0.999916	-0.002509	0.002712	-0.012402	
32210	    0	10.677699	-3.201994	-5.119444	-0.179297	0.483720	-2.808285	0.106189	-0.033560	-0.051422	0.999898	-0.000896	0.002419	-0.014041	
32211	    0	10.057676	-2.411311	-4.905619	0.035097	0.388542	-3.052641	0.100098	-0.025635	-0.049255	0.999881	0.000175	0.001943	-0.015263	
32212	    0	10.142824	-1.654593	-4.735455	0.036813	0.310530	-3.254272	0.101068	-0.018184	-0.047515	0.999866	0.000184	0.001553	-0.016271	
32213	    0	9.628984	-1.119555	-4.555884	-0.084500	0.336472	-3.334965	0.096008	-0.012817	-0.045715	0.999859	-0.000422	0.001682	-0.016674	
32214	    0	10.335424	-1.695031	-3.993003	-0.215731	0.325218	-3.311120	0.102989	-0.018701	-0.040078	0.999861	-0.001079	0.001626	-0.016555	
32215	    0	10.230779	-1.137789	-2.957685	-0.287642	0.323692	-3.332676	0.102051	-0.013123	-0.029724	0.999858	-0.001438	0.001618	-0.016663	
32216	    0	11.617014	0.208319	-3.470734	-0.288023	0.239002	-3.288801	0.116141	0.000123	-0.034847	0.999863	-0.001440	0.001195	-0.016443	
32217	    0	11.739627	-2.580100	-2.362455	-0.499747	0.213060	-3.159468	0.116943	-0.027710	-0.023682	0.999871	-0.002499	0.001065	-0.015797	
32218	    0	10.820674	-4.096893	-2.572647	-0.621058	0.177009	-3.065998	0.107538	-0.042701	-0.025691	0.999877	-0.003105	0.000885	-0.015329	
32219	    0	10.697494	-5.246870	-3.362624	-0.833926	0.198563	-2.989317	0.106140	-0.054199	-0.033508	0.999879	-0.004169	0.000993	-0.014946	
32220	    0	10.570058	-6.133190	-3.663699	-1.011505	0.160605	-2.826416	0.104789	-0.063002	-0.036406	0.999887	-0.005057	0.000803	-0.014132	
32221	    0	10.372012	-6.323296	-3.760413	-1.127664	0.098613	-2.667330	0.102844	-0.064819	-0.037292	0.999894	-0.005638	0.000493	-0.013336	
32222	    0	9.985706	-6.217371	-3.621899	-1.180687	0.020219	-2.506718	0.099062	-0.063631	-0.035856	0.999904	-0.005903	0.000101	-0.012533	
32223	    0	9.620382	-5.849379	-3.449654	-1.221501	-0.031854	-2.321691	0.095520	-0.059814	-0.034119	0.999913	-0.006107	-0.000159	-0.011608	
32224	    0	9.336134	-5.390014	-3.216678	-1.237710	-0.093081	-2.144678	0.092790	-0.055095	-0.031785	0.999923	-0.006188	-0.000465	-0.010723	
32225	    0	9.087282	-4.562702	-3.185504	-1.231411	-0.166897	-1.921123	0.090454	-0.046692	-0.031494	0.999934	-0.006157	-0.000834	-0.009605	
32226	    0	9.346166	-3.928875	-3.160709	-1.189634	-0.139811	-1.674872	0.093149	-0.040257	-0.031304	0.999947	-0.005948	-0.000699	-0.008374	
32227	    0	10.701188	-3.060678	-3.393789	-0.820932	-0.107385	-1.400772	0.106812	-0.031494	-0.033752	0.999967	-0.004105	-0.000537	-0.007004	
32228	    0	12.652973	-2.966615	-4.057841	-0.338366	-0.051308	-1.105696	0.126373	-0.030434	-0.040495	0.999983	-0.001692	-0.000257	-0.005528	
32229	    0	13.707498	-2.923610	-3.512981	0.161171	0.003815	-0.753786	0.136963	-0.029724	-0.035156	0.999992	0.000806	0.000019	-0.003769	
32230	    0	12.251595	-1.537540	-3.193253	0.605012	-0.043106	-0.339509	0.122497	-0.015487	-0.031953	0.999993	0.003025	-0.000216	-0.001698	
32231	    0	9.984934	0.994944	-1.973636	0.784304	-0.087548	0.088501	0.099854	0.010071	-0.019653	0.999991	0.003922	-0.000438	0.000443	
32232	    0	8.383966	3.007101	-0.741502	0.693705	-0.093842	0.547792	0.083760	0.030326	-0.007271	0.999990	0.003469	-0.000469	0.002739	
32233	    0	7.557218	2.731586	-0.731954	0.649265	-0.073815	0.981909	0.075439	0.027710	-0.007202	0.999982	0.003246	-0.000369	0.004910	
32234	    0	7.091571	1.425849	-1.212375	0.606543	-0.073243	1.398482	0.070818	0.014791	-0.012053	0.999970	0.003033	-0.000366	0.006992	
32235	    0	6.317640	0.793051	-1.416669	0.611124	-0.133326	1.809720	0.063110	0.008545	-0.014099	0.999953	0.003056	-0.000667	0.009048	
32236	    0	5.774081	0.475191	-1.656283	0.720994	-0.250059	2.203801	0.057704	0.005447	-0.016472	0.999931	0.003605	-0.001250	0.011019	
32237	    0	5.594789	0.987661	-1.743163	0.898199	-0.400556	2.600944	0.055847	0.010681	-0.017273	0.999903	0.004491	-0.002003	0.013004	
32238	    0	5.790650	1.862204	-1.512589	0.926057	-0.545715	2.985126	0.057660	0.019553	-0.014879	0.999874	0.004630	-0.002728	0.014925	
32239	    0	5.836573	2.094362	-1.219964	0.959065	-0.667416	3.341086	0.058044	0.021973	-0.011902	0.999843	0.004795	-0.003337	0.016705	
32240	    0	6.082638	1.880762	-1.102559	0.997226	-0.832993	3.701447	0.060509	0.019983	-0.010675	0.999807	0.004986	-0.004165	0.018506	
32241	    0	6.872143	1.601197	-0.986553	0.997239	-0.935245	4.075173	0.068420	0.017456	-0.009460	0.999768	0.004986	-0.004676	0.020374	
32242	    0	7.914265	0.783791	-0.543509	1.036548	-0.982374	4.448914	0.078967	0.009623	-0.005000	0.999726	0.005182	-0.004911	0.022243	
32243	    0	8.945757	0.095525	-0.341239	1.130986	-1.049152	4.785660	0.089417	0.003113	-0.002930	0.999683	0.005654	-0.005245	0.023926	
32244	    0	9.834984	0.203850	-0.318532	1.177546	-1.077017	5.089409	0.098270	0.004557	-0.002634	0.999644	0.005887	-0.005384	0.025444	
32245	    0	10.600488	0.881120	0.020853	1.178134	-1.101639	5.387062	0.105713	0.011658	0.000854	0.999604	0.005890	-0.005507	0.026932	
32246	    0	11.357688	1.561191	0.398294	1.180628	-1.133319	5.651908	0.113050	0.018785	0.004729	0.999567	0.005902	-0.005666	0.028255	
32247	    0	11.660903	2.504003	0.480783	1.279837	-1.195710	5.816782	0.115784	0.028381	0.005676	0.999538	0.006398	-0.005978	0.029079	
32248	    0	12.132054	5.172743	-0.355368	1.310558	-1.213840	5.923644	0.119735	0.055308	-0.002469	0.999521	0.006552	-0.006068	0.029613	
32249	    0	12.622317	4.830866	-0.012589	1.271263	-1.147456	6.002256	0.124695	0.052063	0.000916	0.999513	0.006355	-0.005736	0.030006	
32250	    0	12.490701	4.040066	0.307198	1.349671	-1.081454	6.041567	0.123591	0.044123	0.004032	0.999506	0.006747	-0.005406	0.030203	
32251	    0	13.087094	4.228938	-0.039953	1.527657	-1.026133	6.025930	0.129517	0.046204	0.000610	0.999503	0.007637	-0.005130	0.030125	
32252	    0	14.548426	5.775556	-0.582786	1.588131	-0.939334	6.028602	0.143679	0.062145	-0.004668	0.999503	0.007939	-0.004696	0.030138	
32253	    0	15.890870	6.660768	-0.740675	1.572099	-0.880574	5.954177	0.156860	0.071350	-0.006165	0.999516	0.007859	-0.004402	0.029766	
32254	    0	17.478914	9.704971	-0.672209	1.148015	-0.756950	5.842895	0.171877	0.102134	-0.005491	0.999549	0.005739	-0.003784	0.029210	
32255	    0	18.207472	11.930860	0.303191	0.706579	-0.490446	5.667127	0.178589	0.124390	0.003906	0.999589	0.003532	-0.002452	0.028332	
32256	    0	17.741889	11.214557	0.333675	0.637131	-0.312271	5.334926	0.174338	0.116812	0.003978	0.999638	0.003185	-0.001561	0.026671	
32257	    0	17.761073	11.071679	-0.516380	0.842370	-0.122655	4.839049	0.174866	0.114990	-0.004578	0.999698	0.004211	-0.000613	0.024193	
32258	    0	17.763438	11.525708	-1.821502	1.156328	0.015642	4.236180	0.175138	0.119087	-0.017548	0.999759	0.005781	0.000078	0.021179	
32259	    0	16.541073	13.096197	-3.564396	1.487253	0.016786	3.580699	0.163025	0.134155	-0.034668	0.999811	0.007436	0.000084	0.017902	
32260	    0	14.532450	16.129525	-4.587928	1.529762	-0.090603	2.884993	0.142995	0.163713	-0.044568	0.999866	0.007648	-0.000453	0.014424	
32261	    0	12.137790	19.129978	-4.165096	1.268039	-0.247008	2.188169	0.119324	0.192871	-0.040283	0.999919	0.006340	-0.001235	0.010941	
32262	    0	10.077967	20.367164	-2.551960	0.831805	-0.306896	1.433771	0.099354	0.204491	-0.024517	0.999964	0.004159	-0.001534	0.007169	
32263	    0	10.153948	19.446769	-0.682694	0.496866	-0.232697	0.673678	0.100891	0.194824	-0.006226	0.999990	0.002484	-0.001163	0.003368	
32264	    0	11.030383	18.491254	0.365396	0.336075	-0.086021	-0.027657	0.110328	0.184891	0.004012	0.999998	0.001680	-0.000430	-0.000138	
32265	    0	10.450976	17.591755	0.105402	0.350190	0.036049	-0.605012	0.105042	0.175598	0.001343	0.999993	0.001751	0.000180	-0.003025	
32266	    0	8.782209	15.705843	-0.943414	0.511173	0.061799	-1.146133	0.088717	0.156575	-0.009061	0.999980	0.002556	0.000309	-0.005731	
32267	    0	10.200553	13.074315	-2.944877	0.757037	-0.048829	-1.651787	0.103088	0.130005	-0.028931	0.999958	0.003785	-0.000244	-0.008259	
32268	    0	9.282072	12.919802	-4.576332	1.131852	-0.292405	-2.296702	0.094364	0.128376	-0.044898	0.999916	0.005659	-0.001462	-0.011483	
32269	    0	7.513055	13.795417	-12.771455	1.759613	-0.729405	-2.785624	0.077515	0.138000	-0.126221	0.999857	0.008798	-0.003647	-0.013927	
32270	    0	9.285192	29.709159	-46.772675	4.107334	-1.951322	-3.952433	0.103340	0.304626	-0.460547	0.999546	0.020534	-0.009755	-0.019759	
32271	    0	53.795410	23.939302	8.084366	1.054767	0.925616	-6.501442	0.545715	0.221313	0.079529	0.999447	0.005273	0.004627	-0.032501	
32272	    0	45.752476	18.793588	19.101394	-0.541929	0.143828	-4.723994	0.461938	0.177575	0.190192	0.999717	-0.002709	0.000719	-0.023618	
32273	    0	32.182944	-13.334489	14.622748	-1.629024	0.118457	-4.383487	0.318909	-0.139160	0.147156	0.999726	-0.008144	0.000592	-0.021915	
