// Start Time: Unknown
// Update Rate: 100.0Hz
// Filter Profile: human (34.3)
// Firmware Version: 2.1.4
PacketCounter	SampleTimeFine	Acc_X	Acc_Y	Acc_Z	Gyr_X	Gyr_Y	Gyr_Z	VelInc_X	VelInc_Y	VelInc_Z	OriInc_q0	OriInc_q1	OriInc_q2	OriInc_q3	
62772	    0	12.290396	8.880391	-2.790249	0.074389	0.091365	-2.939902	0.124179	0.086995	-0.027926	0.999891	0.000372	0.000457	-0.014699	
62773	    0	10.449396	8.583759	-4.225496	-0.296600	0.073244	-2.475803	0.105530	0.084473	-0.042419	0.999922	-0.001483	0.000366	-0.012379	
62774	    0	10.007385	7.381322	-3.577729	-0.561534	0.094225	-2.027549	0.100798	0.072693	-0.036030	0.999944	-0.002808	0.000471	-0.010138	
62775	    0	11.615779	7.404180	-2.180688	-0.607880	0.111391	-1.676200	0.116760	0.072998	-0.022095	0.999960	-0.003039	0.000557	-0.008381	
62776	    0	14.473062	9.088779	-1.090678	-0.542455	0.152399	-1.457229	0.145379	0.089800	-0.011262	0.999969	-0.002712	0.000762	-0.007286	
62777	    0	18.391251	7.709247	0.798072	-0.575261	0.209238	-1.222239	0.184387	0.075989	0.007568	0.999976	-0.002876	0.001046	-0.006111	
62778	    0	19.101852	6.199242	2.996422	-0.463298	0.217248	-1.159676	0.191406	0.060952	0.029614	0.999979	-0.002316	0.001086	-0.005798	
62779	    0	20.829985	7.373264	3.717470	-0.501827	0.238039	-1.085670	0.208740	0.072693	0.036743	0.999981	-0.002509	0.001190	-0.005428	
62780	    0	20.637097	5.867341	2.113772	-0.733952	0.182916	-0.970274	0.206672	0.057748	0.020736	0.999981	-0.003670	0.000915	-0.004851	
62781	    0	19.871586	3.098680	1.423142	-1.120767	0.084115	-0.858314	0.198853	0.030212	0.013977	0.999974	-0.005604	0.000421	-0.004292	
62782	    0	18.815178	1.238979	0.491893	-1.537151	0.031853	-0.713166	0.188195	0.011756	0.004797	0.999964	-0.007686	0.000159	-0.003566	
62783	    0	19.070427	1.000711	-0.507950	-2.178048	0.004578	-0.642409	0.190735	0.009338	-0.005188	0.999935	-0.010890	0.000023	-0.003212	
62784	    0	18.350178	-1.464691	-1.807335	-2.719395	-0.003815	-0.626775	0.183455	-0.015466	-0.017863	0.999902	-0.013597	-0.000019	-0.003134	
62785	    0	17.406088	-4.441041	-2.699910	-2.839762	0.079539	-0.714900	0.173889	-0.045410	-0.026428	0.999892	-0.014198	0.000398	-0.003574	
62786	    0	15.388807	-5.986354	-4.066959	-2.711005	0.163465	-0.801685	0.153612	-0.061025	-0.039973	0.999899	-0.013555	0.000817	-0.004008	
62787	    0	13.760799	-6.291832	-3.966878	-2.414008	0.235946	-0.922420	0.137268	-0.064026	-0.039062	0.999915	-0.012070	0.001180	-0.004612	
62788	    0	10.492592	-8.274891	-3.432211	-2.014967	0.332077	-1.047730	0.104433	-0.083638	-0.033656	0.999933	-0.010075	0.001660	-0.005239	
62789	    0	7.842497	-8.230511	-3.826394	-1.410507	0.415046	-1.271077	0.077820	-0.083069	-0.037842	0.999952	-0.007052	0.002075	-0.006355	
62790	    0	7.394986	-8.645169	-3.233033	-0.762377	0.515563	-1.516362	0.073208	-0.087132	-0.032188	0.999960	-0.003812	0.002578	-0.007582	
62791	    0	6.829005	-6.483760	-2.999772	-0.034142	0.666058	-1.911196	0.067566	-0.065491	-0.030212	0.999949	-0.000171	0.003330	-0.009556	
62792	    0	7.959458	-4.504217	-2.985593	0.440610	0.911929	-2.377576	0.078915	-0.045917	-0.030317	0.999916	0.002203	0.004560	-0.011888	
62793	    0	10.662670	-4.432692	-2.226589	0.357070	1.135492	-2.923705	0.105835	-0.045837	-0.022949	0.999875	0.001785	0.005677	-0.014618	
62794	    0	12.145900	-3.200371	-4.023477	0.211155	1.092780	-3.467942	0.120658	-0.034058	-0.040931	0.999834	0.001056	0.005464	-0.017339	
62795	    0	9.528105	-3.641879	-5.409487	-0.001526	0.995127	-3.780606	0.094299	-0.038208	-0.054565	0.999808	-0.000008	0.004975	-0.018902	
62796	    0	18.258111	-0.958446	-6.879380	-0.465042	0.855883	-3.814944	0.182055	-0.013222	-0.069546	0.999805	-0.002325	0.004279	-0.019073	
62797	    0	15.153813	-6.729692	-4.660395	-0.836232	0.906617	-3.582978	0.150085	-0.070190	-0.046997	0.999820	-0.004181	0.004533	-0.017914	
62798	    0	17.971696	-8.339253	-3.464191	-1.119673	1.050242	-3.215578	0.178160	-0.086461	-0.035102	0.999841	-0.005598	0.005251	-0.016077	
62799	    0	20.897367	-10.226154	-3.672222	-0.856822	1.214849	-3.051141	0.207153	-0.105591	-0.037537	0.999856	-0.004284	0.006074	-0.015255	
62800	    0	22.054408	-10.327333	-4.625571	-0.309385	1.287323	-2.873731	0.218726	-0.106498	-0.047504	0.999874	-0.001547	0.006436	-0.014368	
62801	    0	21.058764	-7.500045	-4.714439	0.078013	1.169627	-2.648255	0.209290	-0.077759	-0.048401	0.999895	0.000390	0.005848	-0.013241	
62802	    0	18.480180	-3.895974	-3.921789	0.023080	0.973728	-2.366703	0.184130	-0.041137	-0.040120	0.999918	0.000115	0.004869	-0.011833	
62803	    0	15.657062	-2.345873	-2.911765	-0.524150	0.936337	-1.982159	0.156189	-0.025085	-0.029785	0.999936	-0.002621	0.004682	-0.009911	
62804	    0	13.333151	-3.089763	-2.896956	-0.992410	0.962846	-1.449037	0.132961	-0.032007	-0.029453	0.999949	-0.004962	0.004814	-0.007245	
62805	    0	10.571060	-3.202010	-4.074953	-1.086246	0.953684	-0.663764	0.105408	-0.032593	-0.041077	0.999968	-0.005431	0.004768	-0.003319	
62806	    0	8.466472	-2.344625	-3.918991	-0.940902	0.844389	0.201417	0.084522	-0.023546	-0.039436	0.999979	-0.004704	0.004222	0.001007	
62807	    0	7.040030	-1.655661	-3.645298	-0.523952	0.599675	1.011665	0.070374	-0.016296	-0.036621	0.999979	-0.002620	0.002998	0.005058	
62808	    0	6.173472	-0.322369	-3.241968	-0.153544	0.404363	1.744675	0.061694	-0.002710	-0.032542	0.999959	-0.000768	0.002022	0.008723	
62809	    0	5.437483	0.135047	-3.064918	0.170331	0.195318	2.571178	0.054321	0.002075	-0.030701	0.999916	0.000852	0.000977	0.012856	
62810	    0	5.014219	-0.618440	-3.235310	0.485825	-0.007058	3.390096	0.050238	-0.005255	-0.032365	0.999853	0.002429	-0.000035	0.016950	
62811	    0	4.872155	-0.670452	-3.348775	0.857798	-0.270101	4.123231	0.048889	-0.005554	-0.033447	0.999777	0.004289	-0.001350	0.020615	
62812	    0	5.180242	0.513514	-3.740804	1.164556	-0.544795	4.787935	0.051758	0.006592	-0.037231	0.999692	0.005822	-0.002724	0.023937	
62813	    0	5.820790	1.319340	-4.006532	1.310328	-0.816452	5.374083	0.057983	0.015015	-0.039734	0.999609	0.006551	-0.004082	0.026867	
62814	    0	6.667421	1.582504	-4.013217	1.245883	-1.031845	5.893289	0.066370	0.018032	-0.039681	0.999533	0.006228	-0.005158	0.029462	
62815	    0	7.841750	1.123177	-3.961306	0.999629	-1.239808	6.354133	0.078247	0.013916	-0.039062	0.999463	0.004997	-0.006198	0.031765	
62816	    0	9.452850	0.500483	-3.580238	0.706813	-1.431940	6.713864	0.094540	0.008304	-0.035100	0.999404	0.003533	-0.007158	0.033563	
62817	    0	10.211867	0.775806	-2.851210	0.419136	-1.649837	7.049579	0.101990	0.011414	-0.027649	0.999342	0.002095	-0.008247	0.035240	
62818	    0	11.046818	0.504510	-2.005623	0.171893	-1.859540	7.368145	0.110362	0.009130	-0.019023	0.999277	0.000859	-0.009295	0.036832	
62819	    0	12.806522	0.669389	-1.297205	-0.089860	-2.062005	7.674138	0.127808	0.011597	-0.011658	0.999210	-0.000449	-0.010307	0.038361	
62820	    0	14.719383	1.343875	-0.807312	-0.408862	-2.242921	7.969658	0.146582	0.019275	-0.006462	0.999141	-0.002044	-0.011211	0.039837	
62821	    0	16.783583	2.274703	0.088992	-0.710702	-2.390630	8.139016	0.166699	0.029555	0.002790	0.999094	-0.003552	-0.011950	0.040683	
62822	    0	18.490478	3.860842	0.683503	-0.858189	-2.491380	8.164812	0.183021	0.046143	0.008936	0.999080	-0.004290	-0.012453	0.040812	
62823	    0	19.914174	6.453640	1.210317	-0.724054	-2.466552	8.036899	0.196167	0.072510	0.014282	0.999109	-0.003619	-0.012329	0.040173	
62824	    0	21.154150	10.229867	1.989157	-0.399700	-2.282962	7.792711	0.207099	0.110470	0.022058	0.999173	-0.001998	-0.011412	0.038953	
62825	    0	21.770440	15.331880	3.763675	-0.097680	-2.036596	7.414546	0.211426	0.161255	0.039734	0.999261	-0.000488	-0.010180	0.037064	
62826	    0	21.612698	18.634367	5.454638	0.202603	-1.745206	6.844800	0.209097	0.193524	0.056585	0.999375	0.001013	-0.008724	0.034217	
62827	    0	21.412743	20.558240	5.794620	0.934753	-1.429791	6.014468	0.207397	0.211609	0.060425	0.999511	0.004673	-0.007148	0.030067	
62828	    0	19.343752	24.996023	4.122576	1.889071	-1.146452	4.855159	0.187052	0.254142	0.044698	0.999644	0.009444	-0.005732	0.024273	
62829	    0	14.779440	33.570401	2.786115	2.373680	-0.845972	3.379309	0.141968	0.337769	0.032471	0.999778	0.011868	-0.004230	0.016895	
62830	    0	9.779363	39.721518	2.374886	2.391718	-0.610185	1.822162	0.094089	0.397759	0.028794	0.999882	0.011958	-0.003051	0.009110	
62831	    0	7.990077	41.090928	2.897760	2.167556	-0.352295	0.361641	0.079102	0.410706	0.033569	0.999938	0.010838	-0.001761	0.001808	
62832	    0	9.577784	40.065763	2.840397	2.052733	-0.102045	-0.971624	0.097706	0.399866	0.032560	0.999935	0.010263	-0.000510	-0.004858	
62833	    0	11.694866	39.571788	-0.015325	2.763527	-0.015832	-2.502586	0.121887	0.394165	0.005310	0.999825	0.013817	-0.000079	-0.012512	
62834	    0	18.498642	56.815676	-3.534794	2.870145	0.050360	-4.572470	0.197908	0.564160	-0.027281	0.999635	0.014349	0.000252	-0.022860	
62835	    0	25.928815	21.901843	-1.036053	0.303681	0.352705	-4.953514	0.264587	0.212524	-0.010498	0.999690	0.001518	0.001763	-0.024765	
62836	    0	28.095563	-32.783037	5.342263	-0.768539	0.482220	-4.522725	0.273581	-0.333866	0.054032	0.999734	-0.003842	0.002411	-0.022612	
62837	    0	23.886713	-19.756890	6.654101	1.236138	0.660227	-5.679368	0.233337	-0.204651	0.064514	0.999572	0.006180	0.003301	-0.028393	
62838	    0	14.950458	6.176851	-10.216562	3.099068	-0.000191	-5.944602	0.151283	0.058863	-0.101238	0.999437	0.015492	-0.000001	-0.029717	
62839	    0	19.719661	39.182876	-10.945141	1.539355	0.215956	-6.832758	0.210327	0.385620	-0.106689	0.999386	0.007695	0.001080	-0.034157	
62840	    0	2.747855	9.756463	3.577632	-1.122640	0.054940	-5.832767	0.030321	0.096907	0.035223	0.999558	-0.005612	0.000275	-0.029160	
62841	    0	3.227247	7.064649	1.702708	0.042157	0.077829	-5.251153	0.034119	0.069763	0.017029	0.999655	0.000211	0.000389	-0.026253	
62842	    0	7.232470	10.122460	1.275054	-0.148977	-0.103960	-4.643858	0.074642	0.099519	0.012714	0.999729	-0.000745	-0.000520	-0.023217	
62843	    0	6.538771	5.759595	2.693092	0.088698	-0.249499	-4.143822	0.066528	0.056213	0.027039	0.999784	0.000443	-0.001247	-0.020718	
62844	    0	10.580018	7.376162	0.061120	0.418882	-0.234429	-3.966023	0.107234	0.071643	0.000888	0.999800	0.002094	-0.001172	-0.019829	
62845	    0	11.877585	7.249275	-1.451882	0.219166	-0.163278	-3.569221	0.120056	0.070374	-0.014343	0.999840	0.001096	-0.000816	-0.017845	
62846	    0	14.215229	6.895980	-1.314820	0.201234	-0.182541	-3.250648	0.143260	0.066650	-0.012950	0.999866	0.001006	-0.000913	-0.016253	
62847	    0	13.782306	7.330262	-1.479994	0.180251	-0.125127	-3.013725	0.138916	0.071228	-0.014648	0.999886	0.000901	-0.000626	-0.015068	
62848	    0	10.818632	7.992287	-1.958910	-0.141529	-0.149350	-2.611235	0.109232	0.078487	-0.019564	0.999914	-0.000708	-0.000747	-0.013056	
62849	    0	9.941277	7.515160	-2.247747	-0.476084	-0.143245	-2.125592	0.100220	0.074036	-0.022583	0.999940	-0.002380	-0.000716	-0.010628	
62850	    0	10.439667	8.938532	-2.093105	-0.651941	-0.112917	-1.716638	0.105170	0.088416	-0.021161	0.999957	-0.003260	-0.000565	-0.008583	
62851	    0	12.769539	6.744061	-2.155488	-0.712593	-0.100518	-1.400008	0.128174	0.066467	-0.021729	0.999969	-0.003563	-0.000503	-0.007000	
62852	    0	14.753075	6.115759	-1.373959	-0.626569	-0.055314	-1.209268	0.147901	0.060221	-0.013888	0.999976	-0.003133	-0.000277	-0.006046	
62853	    0	18.083968	7.180061	0.354837	-0.654606	0.021553	-1.049048	0.181213	0.070862	0.003296	0.999980	-0.003273	0.000108	-0.005245	
62854	    0	19.152505	6.046400	2.343119	-0.645641	0.049401	-0.975805	0.191823	0.059604	0.023190	0.999983	-0.003228	0.000247	-0.004879	
62855	    0	19.247529	4.486405	2.839818	-0.659183	0.055886	-0.923925	0.192688	0.044067	0.028198	0.999984	-0.003296	0.000279	-0.004620	
62856	    0	19.337229	4.354891	2.198709	-0.840383	0.061608	-0.883680	0.193569	0.042786	0.021747	0.999981	-0.004202	0.000308	-0.004418	
62857	    0	18.014761	2.016133	1.699135	-1.087770	0.042725	-0.868995	0.180237	0.019470	0.016846	0.999975	-0.005439	0.000214	-0.004345	
62858	    0	17.636707	1.198492	0.822687	-1.430528	0.022888	-0.873957	0.176418	0.011272	0.008124	0.999965	-0.007153	0.000114	-0.004370	
62859	    0	17.657413	0.062711	0.044204	-1.807434	0.015450	-0.852981	0.176575	-0.000122	0.000427	0.999949	-0.009037	0.000077	-0.004265	
62860	    0	16.704247	-2.104454	-1.271283	-2.098892	0.055505	-0.882549	0.166944	-0.021914	-0.012532	0.999935	-0.010494	0.000278	-0.004413	
62861	    0	15.583229	-2.416761	-1.972513	-2.155927	0.094607	-0.985741	0.155701	-0.025146	-0.019531	0.999929	-0.010779	0.000473	-0.004929	
62862	    0	14.087660	-4.027832	-2.707037	-2.155356	0.129703	-1.073291	0.140639	-0.041323	-0.026720	0.999927	-0.010777	0.000648	-0.005366	
62863	    0	12.559967	-5.471206	-2.752323	-1.928562	0.176243	-1.197078	0.125244	-0.055725	-0.027100	0.999935	-0.009643	0.000881	-0.005985	
62864	    0	10.724679	-6.726468	-2.372241	-1.618034	0.237279	-1.346804	0.106762	-0.068174	-0.023300	0.999944	-0.008090	0.001186	-0.006734	
62865	    0	8.692051	-5.820749	-3.001171	-1.255057	0.187877	-1.587704	0.086426	-0.059082	-0.029724	0.999948	-0.006275	0.000939	-0.007938	
62866	    0	8.095426	-7.809715	-1.791365	-0.945871	0.384338	-1.794656	0.080215	-0.078903	-0.017696	0.999947	-0.004729	0.001922	-0.008973	
62867	    0	8.911554	-6.956212	-2.144619	-0.547611	0.520336	-2.112624	0.088318	-0.070557	-0.021484	0.999937	-0.002738	0.002602	-0.010563	
62868	    0	9.036768	-5.358263	-2.396613	-0.068094	0.687808	-2.444714	0.089621	-0.054689	-0.024257	0.999919	-0.000340	0.003439	-0.012223	
62869	    0	10.333165	-5.608891	-2.422060	0.317395	0.913463	-2.813824	0.102417	-0.057495	-0.024780	0.999888	0.001587	0.004567	-0.014069	
62870	    0	10.592182	-5.112603	-2.190150	0.455116	1.023535	-3.293394	0.104947	-0.052809	-0.022559	0.999848	0.002275	0.005117	-0.016466	
62871	    0	11.339358	-2.962326	-2.588200	0.259416	1.004284	-3.806552	0.112671	-0.031738	-0.026489	0.999804	0.001297	0.005021	-0.019032	
62872	    0	11.436152	-3.711667	-3.930738	0.120363	1.004483	-4.070008	0.113376	-0.039407	-0.039902	0.999780	0.000602	0.005022	-0.020349	
62873	    0	19.610253	-1.615894	-6.086038	-0.100524	0.936957	-4.039291	0.195435	-0.020142	-0.061768	0.999784	-0.000503	0.004684	-0.020195	
62874	    0	17.763534	-6.300741	-5.993316	-0.207342	0.935613	-3.746075	0.176130	-0.066379	-0.060692	0.999813	-0.001037	0.004678	-0.018729	
62875	    0	21.142194	-7.857741	-4.933029	-0.303475	1.090298	-3.386105	0.209778	-0.082214	-0.050354	0.999840	-0.001517	0.005451	-0.016930	
62876	    0	22.556476	-8.453025	-4.384616	0.003815	1.169453	-3.238838	0.223895	-0.088164	-0.045160	0.999851	0.000019	0.005847	-0.016193	
62877	    0	21.803835	-6.156389	-4.490742	0.290884	1.164298	-3.058762	0.216797	-0.064819	-0.046265	0.999865	0.001454	0.005821	-0.015293	
62878	    0	20.147190	-3.375352	-3.807175	0.110821	1.086656	-2.736954	0.200774	-0.036483	-0.039184	0.999891	0.000554	0.005433	-0.013684	
62879	    0	18.173354	-2.515176	-3.001194	-0.225645	0.994137	-2.311005	0.181274	-0.027283	-0.030884	0.999920	-0.001128	0.004971	-0.011555	
62880	    0	15.261635	-2.709538	-2.672912	-0.736252	0.976392	-1.838531	0.152225	-0.028596	-0.027369	0.999939	-0.003681	0.004882	-0.009192	
62881	    0	12.547023	-3.060683	-3.080167	-1.251242	0.930993	-1.301597	0.125122	-0.031616	-0.031189	0.999948	-0.006256	0.004655	-0.006508	
62882	    0	9.300589	-2.427905	-3.798036	-1.638437	0.815976	-0.462730	0.092793	-0.024806	-0.038157	0.999955	-0.008192	0.004080	-0.002314	
62883	    0	6.982257	-1.654159	-3.277193	-1.636336	0.576027	0.422674	0.069763	-0.016663	-0.032837	0.999960	-0.008182	0.002880	0.002113	
62884	    0	4.690587	-1.158631	-3.124614	-1.172081	0.226596	1.288621	0.046945	-0.011467	-0.031232	0.999961	-0.005860	0.001133	0.006443	
62885	    0	4.155610	0.011792	-3.187503	-0.801103	-0.076868	2.102706	0.041565	0.000427	-0.031860	0.999936	-0.004005	-0.000384	0.010513	
62886	    0	3.508993	0.161316	-3.332610	-0.612282	-0.331510	2.957267	0.035117	0.002030	-0.033274	0.999885	-0.003061	-0.001657	0.014786	
62887	    0	3.275251	-0.918828	-3.288818	-0.237289	-0.618591	3.772966	0.033020	-0.008606	-0.032776	0.999816	-0.001186	-0.003093	0.018864	
62888	    0	3.879960	-0.629213	-2.991182	0.263809	-0.947654	4.484761	0.039068	-0.005379	-0.029735	0.999736	0.001319	-0.004738	0.022422	
62889	    0	4.841626	0.202255	-2.888043	0.676044	-1.262622	5.103900	0.048523	0.003357	-0.028564	0.999648	0.003380	-0.006312	0.025517	
62890	    0	5.979221	0.960299	-2.857033	0.913372	-1.533733	5.655545	0.059703	0.011421	-0.028063	0.999560	0.004566	-0.007668	0.028274	
62891	    0	7.057012	1.534048	-3.011537	0.884401	-1.766322	6.157231	0.070312	0.017639	-0.029419	0.999476	0.004421	-0.008830	0.030781	
62892	    0	8.174553	1.291168	-3.038926	0.631456	-1.936147	6.543486	0.081552	0.015676	-0.029552	0.999413	0.003157	-0.009679	0.032711	
62893	    0	9.581621	0.605155	-2.843522	0.425812	-2.113607	6.863357	0.095825	0.009399	-0.027405	0.999352	0.002129	-0.010566	0.034309	
62894	    0	10.549869	0.964802	-2.413652	0.256026	-2.272187	7.158820	0.105328	0.013451	-0.022923	0.999293	0.001280	-0.011358	0.035786	
62895	    0	11.481513	1.343395	-1.505857	-0.005342	-2.421998	7.449720	0.114380	0.017700	-0.013672	0.999232	-0.000027	-0.012107	0.037239	
62896	    0	12.910117	2.154885	-0.814257	-0.192313	-2.544910	7.697116	0.128235	0.026489	-0.006531	0.999178	-0.000961	-0.012721	0.038475	
62897	    0	14.614536	3.796777	-0.039400	-0.375475	-2.649883	7.890504	0.144485	0.043693	0.001450	0.999131	-0.001877	-0.013246	0.039441	
62898	    0	16.088977	5.817188	0.589854	-0.468583	-2.657721	7.970491	0.158306	0.064533	0.007868	0.999114	-0.002342	-0.013285	0.039841	
62899	    0	17.286944	8.237412	0.387533	-0.275501	-2.609814	7.891068	0.169373	0.089111	0.005981	0.999135	-0.001377	-0.013045	0.039444	
62900	    0	18.860581	12.104046	1.095113	-0.172280	-2.454279	7.682976	0.183620	0.128170	0.013117	0.999187	-0.000861	-0.012268	0.038404	
62901	    0	19.763976	15.600263	1.980998	-0.121910	-2.335939	7.368778	0.191467	0.163147	0.021973	0.999252	-0.000609	-0.011677	0.036835	
62902	    0	20.806918	19.565827	2.813766	-0.109887	-2.172942	6.881491	0.200854	0.202669	0.030236	0.999349	-0.000549	-0.010862	0.034400	
62903	    0	21.429369	22.237574	5.163377	0.071156	-1.907681	6.176307	0.206787	0.228821	0.053711	0.999477	0.000356	-0.009537	0.030876	
62904	    0	20.481599	24.229154	7.361608	0.765324	-1.544955	5.202181	0.197846	0.247211	0.076102	0.999624	0.003826	-0.007724	0.026008	
62905	    0	17.367571	28.402357	6.617011	1.431387	-1.175591	3.924869	0.167664	0.286865	0.069214	0.999764	0.007156	-0.005877	0.019623	
62906	    0	12.458973	33.774989	4.518994	1.812630	-0.865782	2.481566	0.120184	0.338828	0.048784	0.999872	0.009063	-0.004329	0.012407	
62907	    0	8.113989	37.421178	3.551201	1.796757	-0.624669	0.993366	0.079163	0.374268	0.039124	0.999942	0.008984	-0.003123	0.004967	
62908	    0	7.302155	38.092234	4.865413	1.489464	-0.354389	-0.373081	0.073642	0.380408	0.051619	0.999969	0.007447	-0.001772	-0.001865	
62909	    0	10.707379	34.026746	6.931574	1.256010	-0.157931	-1.532771	0.109619	0.338989	0.071533	0.999950	0.006280	-0.000790	-0.007664	
62910	    0	12.303427	30.442259	5.645044	1.664998	0.044062	-2.780845	0.127259	0.302189	0.058945	0.999868	0.008325	0.000220	-0.013904	
62911	    0	14.658961	40.623737	-0.868326	2.164115	0.108349	-4.542258	0.155762	0.402832	-0.004395	0.999683	0.010819	0.000542	-0.022709	
62912	    0	17.555665	7.061830	-1.558302	-0.028231	0.252744	-4.394123	0.177032	0.066737	-0.015816	0.999758	-0.000141	0.001264	-0.021969	
62913	    0	19.837873	-32.994857	3.687601	-0.584450	0.257318	-3.893533	0.191956	-0.333618	0.037598	0.999804	-0.002922	0.001287	-0.019466	
62914	    0	19.357188	-13.261406	-1.988870	1.531954	0.301202	-4.797300	0.190289	-0.137046	-0.021215	0.999681	0.007659	0.001506	-0.023984	
62915	    0	20.768425	20.754840	-8.573732	2.740382	0.064861	-5.842841	0.213623	0.202515	-0.083008	0.999479	0.013700	0.000324	-0.029209	
62916	    0	26.390647	33.716190	-0.998294	0.580889	0.406336	-6.440717	0.274559	0.328462	-0.009571	0.999475	0.002904	0.002031	-0.032198	
62917	    0	10.417425	0.335954	8.282182	-0.603379	0.219757	-5.751840	0.104309	0.000610	0.082703	0.999580	-0.003016	0.001099	-0.028755	
62918	    0	6.729191	6.157098	2.636807	0.586965	0.121132	-5.446925	0.068950	0.059630	0.026504	0.999624	0.002934	0.000606	-0.027231	
62919	    0	5.075616	13.051729	0.170493	0.055891	-0.109111	-4.935957	0.053955	0.129211	0.001770	0.999695	0.000279	-0.000546	-0.024677	
62920	    0	3.043167	6.219667	-0.978536	-0.067144	-0.197426	-4.343184	0.031782	0.061513	-0.009775	0.999763	-0.000336	-0.000987	-0.021714	
62921	    0	8.558373	6.434933	-0.565197	0.162517	-0.107391	-4.007227	0.086853	0.062622	-0.005554	0.999799	0.000813	-0.000537	-0.020035	
62922	    0	11.279467	7.579108	-1.071133	0.247778	-0.003243	-3.584482	0.114129	0.073767	-0.010617	0.999838	0.001239	-0.000016	-0.017921	
62923	    0	12.821776	6.676693	-1.286757	0.137335	-0.008202	-3.224322	0.129272	0.064697	-0.012817	0.999869	0.000687	-0.000041	-0.016121	
62924	    0	13.084181	9.196921	-2.154749	0.006104	0.016976	-2.941238	0.132174	0.090033	-0.021556	0.999891	0.000031	0.000085	-0.014706	
62925	    0	11.877071	8.315656	-2.588161	-0.321778	-0.021363	-2.529213	0.119812	0.081604	-0.026001	0.999918	-0.001609	-0.000107	-0.012646	
62926	    0	11.600120	7.549668	-2.683385	-0.489436	-0.004578	-2.163359	0.116809	0.074170	-0.027014	0.999938	-0.002447	-0.000023	-0.010817	
62927	    0	13.031496	7.468848	-2.687268	-0.595674	0.010681	-1.808957	0.130981	0.073425	-0.027100	0.999954	-0.002978	0.000053	-0.009045	
62928	    0	14.768703	7.142541	-2.142035	-0.593383	0.053406	-1.561183	0.148232	0.070206	-0.021669	0.999965	-0.002967	0.000267	-0.007806	
62929	    0	18.589603	7.554984	-0.245722	-0.574499	0.080300	-1.355756	0.186401	0.074280	-0.002747	0.999972	-0.002872	0.000401	-0.006779	
62930	    0	20.081233	6.751614	2.482095	-0.606923	0.096131	-1.268207	0.201247	0.066316	0.024522	0.999974	-0.003035	0.000481	-0.006341	
62931	    0	21.135548	6.138001	3.212676	-0.672155	0.116921	-1.177225	0.211731	0.060242	0.031799	0.999976	-0.003361	0.000585	-0.005886	
62932	    0	21.720283	4.728252	2.291085	-0.909813	0.100518	-1.057824	0.217461	0.046236	0.022590	0.999975	-0.004549	0.000503	-0.005289	
62933	    0	21.696198	2.858586	0.996400	-1.162731	0.089456	-0.971994	0.217102	0.027588	0.009705	0.999970	-0.005814	0.000447	-0.004860	
62934	    0	20.615536	-0.115138	-0.225446	-1.679255	0.052262	-0.861944	0.206147	-0.002059	-0.002294	0.999955	-0.008396	0.000261	-0.004310	
62935	    0	19.423610	-0.476987	-1.134037	-2.232222	0.011444	-0.803394	0.194214	-0.005676	-0.011292	0.999929	-0.011161	0.000057	-0.004017	
62936	    0	18.094771	-2.703997	-1.643554	-2.775670	0.016595	-0.792912	0.180837	-0.027982	-0.016067	0.999895	-0.013878	0.000083	-0.003964	
62937	    0	16.512056	-5.533167	-2.369994	-2.746487	0.096897	-0.904115	0.164856	-0.056396	-0.023010	0.999895	-0.013732	0.000484	-0.004520	
62938	    0	14.422673	-6.405381	-2.888435	-2.546772	0.151830	-1.021799	0.143874	-0.065151	-0.028169	0.999906	-0.012733	0.000759	-0.005109	
62939	    0	11.903338	-7.430833	-2.006011	-2.225552	0.204664	-1.126891	0.118591	-0.075195	-0.019348	0.999921	-0.011127	0.001023	-0.005634	
62940	    0	10.178224	-8.563590	-1.730914	-1.749263	0.259786	-1.223016	0.101233	-0.086404	-0.016687	0.999942	-0.008746	0.001299	-0.006115	
62941	    0	9.138064	-8.163028	-1.950196	-1.241322	0.380140	-1.423667	0.090759	-0.082397	-0.019165	0.999953	-0.006207	0.001901	-0.007118	
62942	    0	8.459496	-9.127805	-1.833836	-0.668535	0.475509	-1.670099	0.083785	-0.092041	-0.018231	0.999956	-0.003343	0.002378	-0.008350	
62943	    0	6.878063	-7.410410	-2.300953	-0.051690	0.595103	-1.927981	0.067993	-0.074768	-0.023193	0.999949	-0.000258	0.002975	-0.009640	
62944	    0	8.338259	-4.711943	-1.396763	0.335512	0.772115	-2.397220	0.082755	-0.048090	-0.014368	0.999919	0.001678	0.003860	-0.011986	
62945	    0	11.534018	-2.086704	-1.472141	0.226603	0.890580	-3.118271	0.114929	-0.022644	-0.015259	0.999867	0.001133	0.004453	-0.015591	
62946	    0	11.386182	-1.251271	-3.929565	-0.085836	0.988827	-3.600139	0.113416	-0.014574	-0.039851	0.999825	-0.000429	0.004944	-0.018000	
62947	    0	12.433716	-3.150423	-5.875478	-0.462943	1.047582	-3.708882	0.123413	-0.033936	-0.059326	0.999811	-0.002315	0.005238	-0.018543	
62948	    0	19.408700	-5.357326	-6.700703	-0.594174	0.801134	-3.633714	0.192799	-0.057284	-0.067615	0.999822	-0.002971	0.004005	-0.018167	
62949	    0	14.663920	-8.493556	-4.368602	-1.148858	0.872850	-3.295313	0.145020	-0.087585	-0.043823	0.999838	-0.005744	0.004364	-0.016476	
62950	    0	19.128101	-9.932853	-3.011622	-1.460535	0.950864	-3.141000	0.189544	-0.102535	-0.030279	0.999838	-0.007302	0.004754	-0.015704	
62951	    0	20.342157	-9.003465	-4.435358	-1.232780	1.063590	-3.038175	0.201782	-0.093384	-0.044861	0.999851	-0.006164	0.005318	-0.015190	
62952	    0	21.086280	-5.828603	-5.688216	-1.135875	1.133777	-2.798583	0.209691	-0.061552	-0.057730	0.999869	-0.005679	0.005669	-0.013992	
62953	    0	19.987758	-4.305903	-5.576473	-1.214451	1.091041	-2.383506	0.199036	-0.045776	-0.056580	0.999895	-0.006072	0.005455	-0.011917	
62954	    0	18.416693	-4.754271	-4.356701	-1.483010	0.991662	-2.094716	0.183435	-0.049792	-0.044114	0.999905	-0.007415	0.004958	-0.010473	
62955	    0	15.376153	-5.055451	-3.252160	-1.909700	0.975259	-1.799070	0.153137	-0.052246	-0.032776	0.999902	-0.009548	0.004876	-0.008995	
62956	    0	12.054184	-4.524349	-3.539385	-1.981024	0.955034	-1.177437	0.120102	-0.046303	-0.035513	0.999922	-0.009905	0.004775	-0.005887	
62957	    0	9.696044	-3.335239	-3.689286	-1.663996	0.899710	-0.316625	0.096741	-0.033813	-0.037048	0.999953	-0.008320	0.004498	-0.001583	
62958	    0	8.227994	-2.321539	-3.360990	-0.995643	0.678258	0.535969	0.082228	-0.023163	-0.033773	0.999978	-0.004978	0.003391	0.002680	
62959	    0	7.156848	-0.642510	-3.189077	-0.394252	0.460819	1.245890	0.071533	-0.006042	-0.032043	0.999975	-0.001971	0.002304	0.006229	
62960	    0	5.932724	0.170294	-3.112256	0.051881	0.303083	2.039373	0.059258	0.002316	-0.031212	0.999947	0.000259	0.001515	0.010197	
62961	    0	5.326697	-0.708608	-3.101994	0.586149	0.104526	2.886304	0.053345	-0.006226	-0.031067	0.999891	0.002931	0.000523	0.014431	
62962	    0	5.012142	-1.200361	-3.402269	1.269228	-0.103385	3.635059	0.050344	-0.010874	-0.034068	0.999814	0.006346	-0.000517	0.018174	
62963	    0	4.905731	0.157880	-3.917228	1.818442	-0.354036	4.305661	0.049072	0.002991	-0.039062	0.999725	0.009091	-0.001770	0.021526	
62964	    0	5.146335	1.469032	-4.594013	2.171211	-0.606421	4.936061	0.051210	0.016453	-0.045612	0.999632	0.010855	-0.003032	0.024677	
62965	    0	5.915691	1.962706	-4.996621	2.185574	-0.802732	5.499322	0.058777	0.021790	-0.049500	0.999554	0.010926	-0.004013	0.027493	
62966	    0	6.816157	1.745765	-5.244900	1.966238	-0.957842	5.995814	0.067837	0.020007	-0.051935	0.999491	0.009830	-0.004788	0.029974	
62967	    0	8.150111	0.913589	-4.962059	1.646922	-1.120968	6.394628	0.081421	0.012146	-0.049072	0.999439	0.008233	-0.005604	0.031967	
62968	    0	9.094797	0.783339	-4.465331	1.474306	-1.315772	6.788905	0.090896	0.011246	-0.043981	0.999374	0.007370	-0.006577	0.033937	
62969	    0	10.073842	1.422531	-3.605028	1.108038	-1.472615	7.128991	0.100403	0.018005	-0.035217	0.999322	0.005539	-0.007361	0.035637	
62970	    0	11.184959	1.136785	-2.870511	0.695782	-1.649310	7.489147	0.111548	0.015647	-0.027735	0.999258	0.003478	-0.008245	0.037436	
62971	    0	13.064643	1.077009	-2.199463	0.363067	-1.876194	7.828542	0.130289	0.015914	-0.020745	0.999187	0.001815	-0.009378	0.039132	
62972	    0	14.805542	2.852811	-1.618588	0.052658	-2.078277	8.077865	0.146900	0.034482	-0.014647	0.999130	0.000263	-0.010388	0.040378	
62973	    0	16.515800	4.243740	-0.923438	-0.302024	-2.267375	8.181934	0.163330	0.049133	-0.007446	0.999098	-0.001510	-0.011333	0.040897	
62974	    0	17.744300	5.646647	-0.534626	-0.227806	-2.377649	8.129835	0.175001	0.063610	-0.003325	0.999103	-0.001139	-0.011885	0.040637	
62975	    0	19.141890	10.676754	-0.429018	0.304691	-2.363501	7.942186	0.187012	0.114258	-0.001892	0.999140	0.001523	-0.011814	0.039700	
62976	    0	20.055573	17.074416	0.365611	0.523515	-2.184681	7.633697	0.193789	0.178214	0.006258	0.999208	0.002617	-0.010921	0.038158	
62977	    0	20.623543	20.600576	1.539408	0.446424	-2.007571	7.188564	0.198486	0.213196	0.017883	0.999301	0.002232	-0.010036	0.035934	
62978	    0	21.594190	22.209287	3.967867	0.435721	-1.734489	6.491171	0.208229	0.228846	0.042001	0.999433	0.002178	-0.008671	0.032450	
62979	    0	22.141062	24.736665	4.938162	0.879791	-1.455700	5.514529	0.214111	0.253113	0.052063	0.999583	0.004398	-0.007277	0.027569	
62980	    0	17.876374	33.473997	4.469083	1.190090	-1.049888	4.077855	0.171649	0.338011	0.047609	0.999761	0.005950	-0.005249	0.020388	
62981	    0	12.269320	39.651777	2.191237	1.211019	-0.773648	2.539916	0.117554	0.397888	0.024780	0.999893	0.006055	-0.003868	0.012699	
62982	    0	9.253235	41.665169	2.386448	1.086055	-0.566488	0.974284	0.090429	0.416957	0.026386	0.999969	0.005430	-0.002832	0.004871	
62983	    0	10.217882	40.031643	3.835904	1.257525	-0.394443	-0.433353	0.102966	0.399841	0.041077	0.999975	0.006288	-0.001972	-0.002167	
62984	    0	12.624225	48.549502	6.438780	2.255922	-0.154502	-2.370368	0.131926	0.483186	0.069947	0.999866	0.011279	-0.000772	-0.011851	
62985	    0	20.812267	61.542023	5.190009	2.272458	0.181598	-4.414822	0.221680	0.609985	0.058655	0.999691	0.011361	0.000908	-0.022072	
62986	    0	26.652580	22.433548	-0.466096	-0.114643	0.413364	-4.905624	0.271910	0.217707	-0.005345	0.999697	-0.000573	0.002067	-0.024526	
62987	    0	27.994161	-34.963240	4.542673	-1.294826	0.478597	-4.467417	0.272156	-0.355469	0.047058	0.999726	-0.006474	0.002393	-0.022335	
62988	    0	24.121996	-19.840960	8.792284	0.538899	0.615775	-5.633924	0.235768	-0.205338	0.086644	0.999595	0.002694	0.003078	-0.028166	
62989	    0	16.063294	1.611230	-8.678527	2.496001	-0.082984	-5.893187	0.161072	0.012451	-0.086548	0.999488	0.012478	-0.000415	-0.029461	
62990	    0	14.830158	31.215886	-14.853558	2.047939	-0.031096	-6.537190	0.158451	0.308589	-0.145339	0.999413	0.010238	-0.000155	-0.032680	
62991	    0	2.590618	9.045245	0.364290	-0.396784	-0.105110	-5.780075	0.028503	0.089661	0.003479	0.999579	-0.001984	-0.000525	-0.028896	
62992	    0	1.292659	10.476421	-3.572586	0.662309	-0.065811	-5.250590	0.015684	0.104494	-0.035375	0.999649	0.003311	-0.000329	-0.026250	
62993	    0	6.180899	12.217901	-0.279816	-0.031092	-0.221272	-4.558959	0.064575	0.120728	-0.002747	0.999739	-0.000155	-0.001106	-0.022793	
62994	    0	7.311708	5.778641	3.616034	0.167859	-0.214783	-4.147637	0.074255	0.056224	0.036287	0.999784	0.000839	-0.001074	-0.020737	
62995	    0	11.109638	8.255800	1.143214	0.533522	-0.016786	-4.039281	0.112732	0.080261	0.011658	0.999792	0.002667	-0.000084	-0.020195	
62996	    0	11.483935	6.340759	-0.954214	0.309580	0.075917	-3.631984	0.115962	0.061323	-0.009490	0.999833	0.001548	0.000380	-0.018159	
62997	    0	14.555962	6.438803	-1.325448	0.166519	0.057986	-3.347935	0.146606	0.061951	-0.013245	0.999859	0.000833	0.000290	-0.016739	
62998	    0	14.217654	7.741001	-0.938365	0.153167	0.070003	-3.187887	0.143383	0.075138	-0.009376	0.999872	0.000766	0.000350	-0.015939	
62999	    0	11.177122	7.511815	-1.725010	-0.196082	0.020028	-2.763455	0.112793	0.073547	-0.017334	0.999904	-0.000980	0.000100	-0.013817	
63000	    0	9.684584	7.156563	-2.524043	-0.520909	-0.011444	-2.255872	0.097646	0.070401	-0.025419	0.999932	-0.002604	-0.000057	-0.011279	
63001	    0	10.862734	8.921654	-2.707039	-0.674258	-0.045777	-1.813535	0.109436	0.088135	-0.027344	0.999952	-0.003371	-0.000229	-0.009068	
63002	    0	12.864400	7.521921	-1.506038	-0.618751	-0.057221	-1.544398	0.129224	0.074176	-0.015254	0.999965	-0.003094	-0.000286	-0.007722	
63003	    0	14.799389	6.825370	-0.807694	-0.501828	-0.009155	-1.311504	0.148438	0.067261	-0.008240	0.999975	-0.002509	-0.000046	-0.006557	
63004	    0	17.990384	7.136507	1.091918	-0.453952	0.058556	-1.129920	0.180306	0.070372	0.010706	0.999981	-0.002270	0.000293	-0.005650	
63005	    0	18.591419	5.901101	2.032493	-0.418665	0.065613	-1.018529	0.186218	0.058105	0.020142	0.999985	-0.002093	0.000328	-0.005093	
63006	    0	19.416326	5.989902	1.852219	-0.454142	0.075341	-0.993543	0.194465	0.058975	0.018314	0.999985	-0.002271	0.000377	-0.004968	
63007	    0	19.305277	4.040226	0.964209	-0.704769	0.042725	-0.916295	0.193237	0.039551	0.009460	0.999983	-0.003524	0.000214	-0.004581	
63008	    0	18.201264	1.889213	0.289389	-1.036080	-0.027657	-0.854117	0.182091	0.018129	0.002824	0.999977	-0.005180	-0.000138	-0.004271	
63009	    0	18.356498	2.206809	-0.040346	-1.430337	-0.075532	-0.831614	0.183655	0.021301	-0.000488	0.999966	-0.007152	-0.000378	-0.004158	
63010	    0	18.814741	0.253256	-0.749647	-2.001420	-0.065042	-0.837533	0.188158	0.001670	-0.007455	0.999941	-0.010007	-0.000325	-0.004188	
63011	    0	17.584922	-2.933504	-1.418468	-2.345337	-0.044824	-0.881981	0.175720	-0.030273	-0.013794	0.999921	-0.011726	-0.000224	-0.004410	
63012	    0	16.885339	-4.073361	-1.848004	-2.390166	0.001907	-1.014356	0.168643	-0.041806	-0.017986	0.999915	-0.011950	0.000010	-0.005072	
63013	    0	15.181725	-5.444503	-2.427703	-2.278009	0.044252	-1.168855	0.151489	-0.055603	-0.023682	0.999918	-0.011390	0.000221	-0.005844	
63014	    0	12.619146	-6.602218	-2.264300	-2.047589	0.068857	-1.321444	0.125743	-0.067081	-0.022003	0.999926	-0.010238	0.000344	-0.006607	
63015	    0	10.007429	-6.820166	-2.345263	-1.712073	0.049783	-1.511416	0.099548	-0.069153	-0.022888	0.999934	-0.008560	0.000249	-0.007557	
63016	    0	8.952115	-7.376552	-2.024299	-1.533734	0.160221	-1.741067	0.088858	-0.074694	-0.019744	0.999932	-0.007668	0.000801	-0.008705	
63017	    0	9.067890	-8.880648	-1.634370	-1.247437	0.321396	-2.081351	0.089722	-0.089844	-0.015930	0.999925	-0.006237	0.001607	-0.010406	
63018	    0	9.919593	-8.399857	-1.900893	-0.700398	0.492491	-2.449104	0.098110	-0.085271	-0.018954	0.999915	-0.003502	0.002462	-0.012245	
63019	    0	9.933665	-7.280786	-1.922049	-0.150113	0.742365	-2.707761	0.098267	-0.074158	-0.019531	0.999901	-0.000751	0.003712	-0.013538	
63020	    0	10.878434	-6.370564	-1.816615	0.218782	0.889624	-3.021366	0.107723	-0.065318	-0.018718	0.999875	0.001094	0.004448	-0.015106	
63021	    0	11.273170	-3.861261	-1.919703	0.286309	0.820206	-3.571521	0.111938	-0.040588	-0.019714	0.999830	0.001431	0.004101	-0.017857	
63022	    0	12.064041	-1.649687	-3.195438	0.190367	0.721791	-4.032608	0.120159	-0.018892	-0.032406	0.999789	0.000952	0.003609	-0.020162	
63023	    0	14.525211	-1.961725	-5.827620	0.089270	0.762421	-4.047680	0.144592	-0.022522	-0.058838	0.999787	0.000446	0.003812	-0.020237	
63024	    0	18.398327	-4.831373	-6.516214	0.287645	0.581203	-3.702763	0.182858	-0.051612	-0.065767	0.999823	0.001438	0.002906	-0.018513	
63025	    0	17.259744	-6.006655	-5.000492	-0.226604	0.701366	-3.334970	0.171387	-0.062988	-0.050537	0.999854	-0.001133	0.003507	-0.016674	
63026	    0	21.159972	-7.376505	-4.403216	-0.382631	0.810659	-3.146312	0.210223	-0.077165	-0.044741	0.999866	-0.001913	0.004053	-0.015731	
63027	    0	21.832174	-8.253558	-5.056159	-0.116734	0.865398	-2.934380	0.216858	-0.085754	-0.051453	0.999883	-0.000584	0.004327	-0.014671	
63028	    0	21.286391	-7.170169	-4.722744	-0.042345	0.757052	-2.705854	0.211687	-0.074581	-0.048015	0.999901	-0.000212	0.003785	-0.013529	
63029	    0	17.857197	-3.966139	-3.538831	-0.364503	0.714129	-2.269037	0.177979	-0.041748	-0.035950	0.999928	-0.001822	0.003571	-0.011345	
63030	    0	14.670685	-1.760915	-2.353552	-1.005001	0.754752	-1.728281	0.146457	-0.018995	-0.023995	0.999943	-0.005025	0.003774	-0.008641	
63031	    0	11.554334	-2.077344	-1.988545	-1.515986	0.723469	-1.074237	0.115356	-0.021545	-0.020142	0.999949	-0.007580	0.003617	-0.005371	
63032	    0	8.725670	-2.687404	-2.299945	-1.705576	0.642595	-0.342565	0.087136	-0.027220	-0.023048	0.999956	-0.008528	0.003213	-0.001713	
63033	    0	6.495682	-2.079997	-2.504611	-1.674484	0.470740	0.417333	0.064941	-0.020874	-0.025024	0.999960	-0.008372	0.002354	0.002087	
63034	    0	5.067332	-1.768926	-2.208972	-1.352328	0.233081	1.161400	0.050750	-0.017544	-0.022030	0.999959	-0.006762	0.001165	0.005807	
63035	    0	4.561627	-1.077235	-2.049507	-0.985737	0.016213	1.909674	0.045715	-0.010437	-0.020447	0.999942	-0.004929	0.000081	0.009548	
63036	    0	4.140766	-0.673425	-2.299854	-0.636884	-0.180823	2.713101	0.041515	-0.006245	-0.022941	0.999902	-0.003184	-0.000904	0.013565	
63037	    0	4.098765	-0.967102	-2.499251	-0.125891	-0.410292	3.474604	0.041199	-0.008972	-0.024902	0.999846	-0.000629	-0.002051	0.017372	
63038	    0	4.628417	-0.065544	-2.774846	0.394470	-0.663808	4.210412	0.046375	0.000375	-0.027595	0.999770	0.001972	-0.003319	0.021050	
63039	    0	5.529247	0.924085	-2.782547	0.757868	-0.941565	4.837537	0.055176	0.010681	-0.027527	0.999689	0.003789	-0.004707	0.024185	
63040	    0	6.639493	1.129217	-2.652823	0.977836	-1.212662	5.412626	0.066214	0.013214	-0.026065	0.999603	0.004889	-0.006063	0.027060	
63041	    0	7.987586	1.888101	-2.807328	0.960883	-1.431500	5.899977	0.079468	0.021362	-0.027405	0.999527	0.004804	-0.007156	0.029495	
63042	    0	9.195302	2.397901	-3.035647	0.625150	-1.605702	6.313879	0.091372	0.026963	-0.029540	0.999464	0.003125	-0.008027	0.031564	
63043	    0	10.402486	1.887882	-2.919772	0.176274	-1.773228	6.622086	0.103577	0.022339	-0.028259	0.999412	0.000881	-0.008864	0.033104	
63044	    0	11.473897	1.892091	-2.613078	-0.168836	-1.987118	6.866392	0.114252	0.022828	-0.025012	0.999360	-0.000844	-0.009933	0.034325	
63045	    0	11.894129	2.172321	-2.022693	-0.497551	-2.203687	7.093923	0.118286	0.025879	-0.018982	0.999307	-0.002487	-0.011016	0.035461	
63046	    0	12.959139	1.999130	-1.389179	-0.881798	-2.401954	7.322621	0.128901	0.024663	-0.012443	0.999248	-0.004408	-0.012007	0.036604	
63047	    0	14.281469	2.477701	-0.859978	-1.166087	-2.627322	7.534543	0.141846	0.030090	-0.006897	0.999187	-0.005829	-0.013133	0.037663	
63048	    0	15.882490	3.993821	0.282481	-1.398100	-2.777311	7.619528	0.157093	0.045975	0.004707	0.999153	-0.006989	-0.013883	0.038087	
63049	    0	16.990269	5.910101	1.354059	-1.348490	-2.841788	7.551391	0.167297	0.065552	0.015503	0.999164	-0.006741	-0.014205	0.037746	
63050	    0	17.413052	8.780958	2.126531	-0.819802	-2.812357	7.355131	0.170425	0.094216	0.023302	0.999216	-0.004098	-0.014058	0.036766	
63051	    0	18.198378	13.651588	3.538453	-0.258698	-2.617315	7.086343	0.176514	0.142883	0.037537	0.999286	-0.001293	-0.013083	0.035423	
63052	    0	18.362661	17.277707	5.510398	0.034530	-2.363705	6.725591	0.177012	0.178795	0.057253	0.999364	0.000173	-0.011816	0.033621	
63053	    0	18.613148	19.452705	7.691711	0.387833	-1.983232	6.210668	0.179199	0.200012	0.079102	0.999466	0.001939	-0.009914	0.031048	
63054	    0	19.310711	20.636524	9.065982	1.056818	-1.522658	5.478860	0.186665	0.211050	0.093204	0.999581	0.005283	-0.007612	0.027390	
63055	    0	18.721188	24.087323	7.573129	1.853371	-1.085584	4.485783	0.181335	0.244263	0.078979	0.999690	0.009266	-0.005427	0.022427	
63056	    0	14.979274	29.883985	3.909647	2.425748	-0.764138	3.263706	0.144735	0.300721	0.043296	0.999785	0.012128	-0.003820	0.016317	
63057	    0	10.417944	34.921249	1.160837	2.686625	-0.579098	1.890652	0.100830	0.349976	0.016602	0.999861	0.013433	-0.002895	0.009453	
63058	    0	9.255352	36.604481	0.931998	2.431554	-0.477232	0.583092	0.091456	0.366161	0.013990	0.999919	0.012157	-0.002386	0.002915	
63059	    0	8.599080	37.538244	4.567513	2.098318	-0.312812	-0.695815	0.087219	0.374573	0.049744	0.999937	0.010491	-0.001564	-0.003479	
63060	    0	10.652554	35.438186	5.019964	1.961004	-0.123981	-1.832445	0.109731	0.352871	0.053732	0.999909	0.009805	-0.000620	-0.009162	
63061	    0	13.949172	42.982449	2.723796	2.686534	0.036052	-3.580011	0.147156	0.426819	0.032959	0.999749	0.013432	0.000180	-0.017899	
63062	    0	18.160282	37.949932	-0.037866	1.306854	0.293189	-4.687964	0.190432	0.375097	0.001807	0.999702	0.006534	0.001466	-0.023438	
63063	    0	20.160352	-14.950381	3.988319	-0.298903	0.499760	-4.066753	0.198608	-0.153503	0.039612	0.999788	-0.001494	0.002499	-0.020332	
63064	    0	23.251194	-31.165479	4.306862	0.897293	0.603345	-4.370868	0.225751	-0.316825	0.040967	0.999746	0.004486	0.003016	-0.021852	
63065	    0	18.795117	-6.339331	-3.161496	2.198325	0.330588	-5.240576	0.186157	-0.067932	-0.032654	0.999595	0.010990	0.001653	-0.026199	
63066	    0	15.406885	24.335947	-12.200282	2.925632	-0.042732	-5.851263	0.161159	0.240463	-0.118437	0.999465	0.014626	-0.000214	-0.029251	
63067	    0	19.995963	29.380615	1.779886	-0.787476	0.410716	-6.037314	0.208740	0.287659	0.016235	0.999534	-0.003937	0.002053	-0.030182	
63068	    0	2.901919	1.599112	5.348353	-0.785157	0.151271	-5.248495	0.029469	0.015431	0.053400	0.999647	-0.003925	0.000756	-0.026239	
63069	    0	9.605688	11.891959	2.725016	-0.283651	0.216696	-4.859642	0.098938	0.116577	0.026978	0.999702	-0.001418	0.001083	-0.024296	
63070	    0	4.262174	7.424723	-0.220618	-0.608875	0.055318	-4.362268	0.044227	0.073287	-0.002442	0.999757	-0.003044	0.000277	-0.021810	
63071	    0	6.128288	2.797315	0.039664	0.033572	-0.084501	-4.021725	0.061829	0.026733	0.000427	0.999797	0.000168	-0.000422	-0.020107	
63072	    0	9.691999	7.507467	-0.653682	0.139245	-0.184070	-3.791274	0.098326	0.073224	-0.006395	0.999819	0.000696	-0.000920	-0.018955	
63073	    0	11.294290	6.735061	-0.994557	0.100904	-0.257886	-3.387614	0.114075	0.065430	-0.009766	0.999855	0.000504	-0.001289	-0.016937	
63074	    0	12.988495	6.337549	-1.796992	0.290501	-0.222597	-3.164616	0.130886	0.061336	-0.017735	0.999872	0.001452	-0.001113	-0.015822	
63075	    0	13.073664	9.734843	-2.339928	0.153356	-0.108150	-2.896983	0.132141	0.095459	-0.023254	0.999894	0.000767	-0.000541	-0.014484	
63076	    0	11.211861	8.005456	-2.935452	-0.234991	-0.053979	-2.444138	0.113093	0.078642	-0.029417	0.999924	-0.001175	-0.000270	-0.012220	
63077	    0	10.741006	7.365731	-1.880547	-0.446900	0.025177	-2.048530	0.108154	0.072510	-0.018982	0.999945	-0.002234	0.000126	-0.010242	
63078	    0	11.574108	7.935755	-1.516187	-0.463492	0.049973	-1.696227	0.116405	0.078337	-0.015373	0.999961	-0.002317	0.000250	-0.008481	
63079	    0	13.848307	7.797315	-2.369455	-0.457005	0.078774	-1.461043	0.139038	0.076904	-0.023926	0.999970	-0.002285	0.000394	-0.007305	
63080	    0	16.514450	7.686780	-0.893044	-0.556569	0.110055	-1.218614	0.165604	0.075834	-0.009233	0.999977	-0.002783	0.000550	-0.006093	
63081	    0	18.509303	5.989036	2.497473	-0.518039	0.110055	-1.073462	0.185425	0.058960	0.024719	0.999982	-0.002590	0.000550	-0.005367	
63082	    0	20.515047	7.018714	3.430437	-0.550273	0.144006	-1.018530	0.205529	0.069235	0.033965	0.999983	-0.002751	0.000720	-0.005093	
63083	    0	20.237036	5.232838	2.717577	-0.702671	0.136758	-0.958258	0.202637	0.051453	0.026855	0.999982	-0.003513	0.000684	-0.004791	
63084	    0	20.261623	2.643415	1.832997	-0.897414	0.122834	-0.882345	0.202742	0.025621	0.018089	0.999980	-0.004487	0.000614	-0.004412	
63085	    0	19.572215	0.421154	0.586143	-1.212894	0.103761	-0.784309	0.195740	0.003479	0.005737	0.999973	-0.006064	0.000519	-0.003922	
63086	    0	19.548434	0.857584	-0.928642	-1.659989	0.066949	-0.762759	0.195512	0.007752	-0.009418	0.999958	-0.008300	0.000335	-0.003814	
63087	    0	18.402664	-1.630132	-1.611983	-2.201130	0.061990	-0.731675	0.183960	-0.017151	-0.015991	0.999932	-0.011005	0.000310	-0.003658	
63088	    0	16.684782	-4.177494	-2.812904	-2.369562	0.106433	-0.831435	0.166656	-0.042798	-0.027715	0.999921	-0.011847	0.000532	-0.004157	
63089	    0	15.290502	-4.617579	-2.858088	-2.269040	0.195508	-0.974299	0.152649	-0.047241	-0.028198	0.999923	-0.011345	0.000978	-0.004871	
63090	    0	12.860257	-5.243696	-2.761260	-2.036332	0.245291	-1.136234	0.128267	-0.053445	-0.027229	0.999930	-0.010181	0.001226	-0.005681	
63091	    0	10.526356	-6.938602	-1.787196	-1.666291	0.317579	-1.253533	0.104797	-0.070190	-0.017456	0.999944	-0.008331	0.001588	-0.006268	
63092	    0	9.118956	-7.559908	-1.460368	-1.135080	0.423819	-1.446555	0.090609	-0.076338	-0.014364	0.999955	-0.005675	0.002119	-0.007233	
63093	    0	9.112390	-7.812816	-2.206796	-0.681315	0.515946	-1.712825	0.090393	-0.078979	-0.022034	0.999953	-0.003407	0.002580	-0.008564	
63094	    0	9.077527	-7.908587	-2.531001	-0.262075	0.613415	-2.012290	0.089895	-0.080027	-0.025482	0.999944	-0.001310	0.003067	-0.010061	
63095	    0	8.972118	-6.918727	-2.871828	0.190167	0.738544	-2.313290	0.088806	-0.070190	-0.029114	0.999926	0.000951	0.003693	-0.011566	
63096	    0	10.440415	-6.220407	-1.895578	0.456636	0.899347	-2.741720	0.103452	-0.063582	-0.019567	0.999893	0.002283	0.004497	-0.013708	
63097	    0	11.868604	-4.690923	-1.794034	0.420401	0.972225	-3.315139	0.117798	-0.048828	-0.018616	0.999848	0.002102	0.004861	-0.016575	
63098	    0	12.985940	-2.884219	-2.776329	-0.015069	0.982539	-3.835166	0.129136	-0.031325	-0.028397	0.999804	-0.000075	0.004912	-0.019175	
63099	    0	11.707695	-3.595045	-4.607738	-0.167668	1.004863	-4.020979	0.116089	-0.038330	-0.046631	0.999784	-0.000838	0.005024	-0.020103	
63100	    0	21.421404	-1.386074	-6.883708	-0.354027	0.870762	-3.868168	0.213589	-0.018119	-0.069738	0.999802	-0.001770	0.004354	-0.019340	
63101	    0	17.113345	-6.555737	-5.487827	-0.684205	0.980433	-3.501329	0.169678	-0.068726	-0.055481	0.999828	-0.003421	0.004902	-0.017506	
63102	    0	20.997069	-8.090538	-3.929303	-0.883718	1.164494	-3.119814	0.208441	-0.084341	-0.040142	0.999851	-0.004418	0.005822	-0.015598	
63103	    0	21.225572	-8.590016	-4.011377	-0.588253	1.214845	-2.984753	0.210693	-0.089172	-0.041138	0.999866	-0.002941	0.006074	-0.014923	
63104	    0	19.780920	-7.154655	-4.459038	-0.479526	1.174780	-2.733906	0.196540	-0.074347	-0.045571	0.999886	-0.002398	0.005874	-0.013669	
63105	    0	17.796655	-4.739855	-3.772865	-0.743125	1.088938	-2.345347	0.177185	-0.049622	-0.038513	0.999909	-0.003716	0.005445	-0.011726	
63106	    0	15.652413	-3.851002	-3.366805	-1.171142	0.986887	-1.944973	0.155971	-0.040228	-0.034206	0.999923	-0.005856	0.004934	-0.009725	
63107	    0	13.176723	-3.244796	-3.457570	-1.777505	0.962092	-1.513712	0.131348	-0.033752	-0.034912	0.999920	-0.008887	0.004810	-0.007568	
63108	    0	10.769550	-3.294929	-4.352794	-2.167378	0.930811	-0.925661	0.107337	-0.033919	-0.043664	0.999919	-0.010837	0.004654	-0.004628	
63109	    0	8.380704	-2.750781	-4.402929	-2.129219	0.799578	-0.091555	0.083618	-0.028015	-0.044067	0.999935	-0.010646	0.003998	-0.000458	
63110	    0	6.957408	-1.738411	-3.835386	-1.560614	0.525291	0.733958	0.069537	-0.017428	-0.038401	0.999959	-0.007803	0.002626	0.003670	
63111	    0	6.193336	-0.816830	-3.487553	-0.891887	0.232890	1.454181	0.061951	-0.007874	-0.034912	0.999963	-0.004459	0.001164	0.007271	
63112	    0	5.612516	0.256846	-3.181623	-0.394830	0.000572	2.228975	0.056092	0.003131	-0.031822	0.999935	-0.001974	0.000003	0.011145	
63113	    0	5.138780	0.158794	-3.246740	0.083354	-0.221261	3.031275	0.051392	0.002380	-0.032410	0.999884	0.000417	-0.001106	0.015156	
63114	    0	4.954648	0.041017	-3.490719	0.619164	-0.497086	3.787849	0.049612	0.001457	-0.034781	0.999812	0.003096	-0.002485	0.018938	
63115	    0	5.399071	0.714762	-3.651261	1.079084	-0.793528	4.451390	0.053955	0.008545	-0.036255	0.999729	0.005395	-0.003967	0.022255	
63116	    0	5.868238	1.494105	-3.924370	1.511182	-1.079116	5.021123	0.058488	0.016706	-0.038806	0.999641	0.007555	-0.005395	0.025103	
63117	    0	6.554018	2.740543	-4.081781	1.671080	-1.275629	5.516853	0.065002	0.029541	-0.040161	0.999564	0.008354	-0.006377	0.027580	
63118	    0	7.254797	3.360825	-4.169593	1.512586	-1.426360	5.941800	0.071795	0.036060	-0.040915	0.999504	0.007562	-0.007131	0.029704	
63119	    0	8.090381	2.444410	-4.009282	1.270714	-1.536837	6.270968	0.080383	0.027222	-0.039307	0.999458	0.006352	-0.007683	0.031349	
63120	    0	9.130529	1.763191	-3.774576	1.216365	-1.698447	6.552843	0.090973	0.020843	-0.036852	0.999409	0.006081	-0.008491	0.032758	
63121	    0	9.622235	2.273435	-3.110099	1.102875	-1.820764	6.848086	0.095642	0.026184	-0.030090	0.999357	0.005513	-0.009102	0.034233	
63122	    0	10.410468	2.447266	-2.331685	0.937106	-1.954339	7.124449	0.103363	0.028270	-0.022178	0.999307	0.004684	-0.009769	0.035614	
63123	    0	11.813595	2.934299	-1.867103	0.779345	-2.061973	7.388610	0.117126	0.033752	-0.017334	0.999256	0.003896	-0.010307	0.036934	
63124	    0	13.481416	3.750468	-1.647897	0.677286	-2.194980	7.595529	0.133429	0.042643	-0.014871	0.999212	0.003386	-0.010972	0.037968	
63125	    0	15.190918	5.404647	-1.525384	0.644285	-2.258908	7.683341	0.149841	0.059875	-0.013367	0.999193	0.003221	-0.011292	0.038406	
63126	    0	16.540070	7.737677	-1.669993	0.694080	-2.281420	7.663876	0.162448	0.083694	-0.014552	0.999194	0.003469	-0.011404	0.038309	
63127	    0	17.849710	11.394755	-1.955005	0.717539	-2.247436	7.505445	0.174255	0.120605	-0.017151	0.999226	0.003587	-0.011234	0.037518	
63128	    0	19.028613	14.733844	-1.163465	0.600958	-2.176996	7.228862	0.184905	0.154118	-0.009146	0.999283	0.003004	-0.010882	0.036136	
63129	    0	19.808047	18.313072	0.437089	0.481516	-2.077732	6.790832	0.191650	0.189697	0.006836	0.999366	0.002407	-0.010386	0.033947	
63130	    0	20.400431	21.021629	3.665366	0.305800	-1.842238	6.089286	0.197130	0.216230	0.038818	0.999493	0.001529	-0.009210	0.030441	
63131	    0	19.611851	23.106389	5.625388	0.407650	-1.496306	5.165726	0.189636	0.235901	0.058167	0.999636	0.002038	-0.007481	0.025826	
63132	    0	17.194981	25.995381	4.351229	0.718553	-1.145641	4.062581	0.166368	0.263210	0.045418	0.999770	0.003592	-0.005728	0.020311	
63133	    0	12.941366	30.268038	2.449390	1.207974	-0.929298	2.745932	0.125122	0.304260	0.026917	0.999876	0.006040	-0.004646	0.013729	
63134	    0	9.144502	34.292683	2.434776	1.509505	-0.771347	1.320864	0.089077	0.343322	0.027285	0.999942	0.007547	-0.003857	0.006604	
63135	    0	8.239588	35.896934	4.991296	1.638052	-0.607117	-0.054932	0.082336	0.358521	0.053101	0.999961	0.008190	-0.003036	-0.000275	
63136	    0	10.071502	35.339623	7.441865	1.676401	-0.330359	-1.309420	0.102897	0.352086	0.077542	0.999942	0.008382	-0.001652	-0.006547	
63137	    0	11.694754	36.328806	5.143263	2.323465	-0.148781	-2.719261	0.121826	0.361023	0.055725	0.999840	0.011617	-0.000744	-0.013596	
63138	    0	16.827574	51.289205	-2.159192	1.838289	-0.029567	-4.444932	0.179623	0.509153	-0.016874	0.999710	0.009191	-0.000148	-0.022223	
63139	    0	20.413501	17.692874	-1.636100	-1.088626	0.203724	-4.620033	0.208130	0.172058	-0.017517	0.999718	-0.005443	0.001019	-0.023098	
63140	    0	20.962144	-28.829676	2.158836	-2.068707	0.321227	-4.163547	0.203601	-0.292336	0.024268	0.999728	-0.010343	0.001606	-0.020816	
63141	    0	18.844409	-17.093113	-4.194596	0.850009	0.239780	-5.096241	0.183960	-0.175476	-0.042908	0.999665	0.004250	0.001199	-0.025478	
63142	    0	20.321426	19.235160	-12.524992	3.063992	-0.144033	-6.126076	0.209105	0.187894	-0.122199	0.999413	0.015317	-0.000720	-0.030624	
63143	    0	22.756618	31.867688	0.877469	0.096146	0.377146	-6.313614	0.237488	0.311279	0.008484	0.999499	0.000481	0.001885	-0.031563	
63144	    0	3.935075	3.555666	8.277406	-0.414138	-0.014116	-5.529731	0.040311	0.034622	0.082705	0.999616	-0.002070	-0.000071	-0.027645	
63145	    0	6.403751	11.380870	3.466753	0.453998	0.033764	-5.061885	0.066895	0.112061	0.034912	0.999677	0.002270	0.000169	-0.025307	
63146	    0	6.826900	10.762108	1.475970	-0.269531	-0.204676	-4.490469	0.070647	0.106072	0.014688	0.999746	-0.001348	-0.001023	-0.022450	
63147	    0	7.772147	3.259964	-0.441472	-0.072484	-0.237100	-4.074380	0.078369	0.031006	-0.004333	0.999791	-0.000362	-0.001185	-0.020370	
63148	    0	10.190973	4.634077	-1.632008	0.248161	-0.231185	-3.833054	0.102792	0.044396	-0.016146	0.999814	0.001241	-0.001156	-0.019164	
63149	    0	11.735583	7.910257	-1.743450	0.289359	-0.186167	-3.450185	0.118713	0.077087	-0.017212	0.999849	0.001447	-0.000931	-0.017250	
63150	    0	12.550425	6.783778	-1.579675	0.199898	-0.174339	-3.121504	0.126556	0.065884	-0.015620	0.999877	0.000999	-0.000872	-0.015607	
63151	    0	12.445951	8.278846	-2.354755	0.076487	-0.125889	-2.783293	0.125610	0.081055	-0.023438	0.999903	0.000382	-0.000629	-0.013916	
63152	    0	11.414948	8.075660	-2.890537	-0.155643	-0.130656	-2.352578	0.115108	0.079384	-0.028893	0.999929	-0.000778	-0.000653	-0.011763	
63153	    0	11.123547	7.787000	-3.255572	-0.368315	-0.078584	-1.948579	0.112000	0.076721	-0.032654	0.999950	-0.001842	-0.000393	-0.009743	
63154	    0	12.365869	7.212811	-2.911881	-0.461011	-0.036812	-1.574915	0.124227	0.071084	-0.029261	0.999966	-0.002305	-0.000184	-0.007874	
63155	    0	14.655852	7.322602	-2.362222	-0.495724	0.002289	-1.310741	0.147034	0.072205	-0.023804	0.999975	-0.002479	0.000011	-0.006554	
63156	    0	18.977193	7.996210	-0.080765	-0.514987	0.067330	-1.092536	0.190205	0.078921	-0.001076	0.999981	-0.002575	0.000337	-0.005463	
63157	    0	20.004358	6.587438	2.261428	-0.584224	0.084687	-0.997167	0.200378	0.064941	0.022339	0.999983	-0.002921	0.000423	-0.004986	
63158	    0	20.607083	5.239870	2.866445	-0.710491	0.113488	-0.894361	0.206319	0.051578	0.028363	0.999983	-0.003552	0.000567	-0.004472	
63159	    0	20.688983	4.892939	1.603149	-0.923735	0.058747	-0.817113	0.207092	0.048157	0.015747	0.999981	-0.004619	0.000294	-0.004086	
63160	    0	20.407193	3.895203	1.078574	-1.377692	-0.015259	-0.752838	0.204216	0.038257	0.010536	0.999969	-0.006888	-0.000076	-0.003764	
63161	    0	19.370299	0.778481	0.416657	-2.011146	-0.060083	-0.644696	0.193726	0.007202	0.004150	0.999944	-0.010056	-0.000300	-0.003223	
63162	    0	19.166817	-0.802786	-0.465483	-2.583579	-0.096324	-0.564210	0.191647	-0.008627	-0.004454	0.999912	-0.012918	-0.000482	-0.002821	
63163	    0	18.390732	-2.338475	-1.493606	-2.912248	-0.066950	-0.621819	0.183838	-0.024170	-0.014526	0.999888	-0.014561	-0.000335	-0.003109	
63164	    0	17.307356	-4.708320	-2.700334	-2.866659	0.006485	-0.746182	0.172894	-0.048109	-0.026324	0.999890	-0.014333	0.000032	-0.003731	
63165	    0	14.719603	-7.801794	-4.024134	-2.693266	0.088695	-0.832395	0.146851	-0.079163	-0.039246	0.999900	-0.013466	0.000443	-0.004162	
63166	    0	12.410167	-8.372860	-3.761994	-2.294790	0.154308	-0.955988	0.123670	-0.084745	-0.036747	0.999922	-0.011474	0.000772	-0.004780	
63167	    0	9.800426	-8.950325	-3.233113	-1.840246	0.232892	-1.097128	0.097473	-0.090332	-0.031616	0.999942	-0.009201	0.001164	-0.005486	
63168	    0	7.357161	-6.845732	-3.569213	-1.259822	0.274662	-1.364919	0.073052	-0.069180	-0.035358	0.999955	-0.006299	0.001373	-0.006824	
63169	    0	7.091946	-7.074753	-2.574703	-0.835239	0.351720	-1.578544	0.070312	-0.071411	-0.025574	0.999958	-0.004176	0.001759	-0.007893	
63170	    0	5.378098	-5.579713	-1.795032	-0.334745	0.501069	-1.889260	0.053205	-0.056332	-0.017990	0.999950	-0.001674	0.002505	-0.009446	
63171	    0	7.356436	-2.833018	-0.585296	0.162701	0.785850	-2.484201	0.073181	-0.029236	-0.006165	0.999914	0.000813	0.003929	-0.012421	
63172	    0	9.693766	-1.231807	-2.212744	0.088123	0.955433	-3.123232	0.096622	-0.013819	-0.022595	0.999866	0.000441	0.004777	-0.015615	
63173	    0	9.267741	-4.718788	-4.283369	0.063518	1.056729	-3.463934	0.091614	-0.048767	-0.043335	0.999836	0.000318	0.005283	-0.017319	
63174	    0	11.086475	-6.279267	-4.368237	0.184452	0.993598	-3.663665	0.109471	-0.064766	-0.044288	0.999819	0.000922	0.004968	-0.018317	
63175	    0	15.962608	-5.789372	-4.088286	-0.029566	0.793507	-3.795862	0.158325	-0.060913	-0.041504	0.999811	-0.000148	0.003967	-0.018978	
63176	    0	12.409217	-7.973435	-2.892137	-0.468662	0.792740	-3.596131	0.122516	-0.082015	-0.029219	0.999827	-0.002343	0.003963	-0.017980	
63177	    0	14.987212	-9.569232	-2.188521	-0.997979	0.771565	-3.396792	0.148132	-0.098328	-0.021973	0.999835	-0.004990	0.003858	-0.016983	
63178	    0	16.620296	-9.517137	-2.981131	-1.217908	0.829169	-3.275666	0.164489	-0.098057	-0.029904	0.999838	-0.006089	0.004146	-0.016377	
63179	    0	20.281751	-7.587469	-4.632152	-1.141415	1.050811	-3.114476	0.201355	-0.079285	-0.046936	0.999848	-0.005707	0.005254	-0.015572	
63180	    0	22.142273	-5.635882	-5.274501	-0.652912	1.214649	-2.807732	0.220276	-0.059631	-0.053894	0.999877	-0.003264	0.006073	-0.014038	
63181	    0	21.302397	-3.760636	-4.655846	-0.363743	1.173056	-2.447968	0.212264	-0.040294	-0.047733	0.999905	-0.001819	0.005865	-0.012239	
63182	    0	19.659258	-2.883915	-3.400931	-0.471890	1.069668	-2.151925	0.196081	-0.031033	-0.034987	0.999925	-0.002359	0.005348	-0.010759	
63183	    0	16.412978	-3.205692	-2.497191	-0.964377	1.004241	-1.845592	0.163696	-0.033691	-0.025635	0.999932	-0.004822	0.005021	-0.009228	
63184	    0	12.441696	-4.066956	-2.506772	-1.340700	1.012057	-1.225875	0.124036	-0.041600	-0.025419	0.999946	-0.006703	0.005060	-0.006129	
63185	    0	9.630398	-3.512921	-3.361872	-1.302925	1.011670	-0.360112	0.096069	-0.035522	-0.033875	0.999964	-0.006515	0.005058	-0.001801	
63186	    0	8.055103	-1.750829	-3.517906	-1.017388	0.851829	0.479511	0.080442	-0.017495	-0.035433	0.999974	-0.005087	0.004259	0.002398	
63187	    0	6.959167	0.168073	-3.785488	-0.775154	0.644118	1.207746	0.069458	0.001953	-0.038086	0.999969	-0.003876	0.003221	0.006039	
63188	    0	6.157658	1.452360	-3.799661	-0.635540	0.460252	1.949918	0.061344	0.015001	-0.038185	0.999945	-0.003178	0.002301	0.009749	
63189	    0	5.642373	0.697673	-3.568011	-0.372136	0.257882	2.770324	0.056274	0.007690	-0.035767	0.999901	-0.001861	0.001289	0.013851	
63190	    0	5.349271	-0.534425	-3.361895	0.260367	0.012780	3.547474	0.053574	-0.004351	-0.033628	0.999842	0.001302	0.000064	0.017736	
63191	    0	5.542147	0.417069	-3.457802	0.846166	-0.259229	4.248380	0.055359	0.005493	-0.034485	0.999764	0.004230	-0.001296	0.021240	
63192	    0	6.055707	1.620284	-3.768800	1.165323	-0.524195	4.873410	0.060233	0.017892	-0.037429	0.999682	0.005826	-0.002621	0.024364	
63193	    0	6.803821	1.991041	-4.282860	1.320824	-0.791846	5.436667	0.067627	0.022034	-0.042419	0.999600	0.006603	-0.003959	0.027180	
63194	    0	7.746105	2.373720	-4.640694	1.274500	-1.036426	5.925731	0.076945	0.026316	-0.045845	0.999527	0.006371	-0.005181	0.029624	
63195	    0	8.927785	2.411392	-4.653817	1.057621	-1.264987	6.303758	0.088745	0.027161	-0.045837	0.999469	0.005287	-0.006324	0.031513	
63196	    0	10.195128	1.967350	-4.385414	0.806012	-1.499086	6.620552	0.101546	0.023214	-0.043003	0.999415	0.004029	-0.007494	0.033096	
63197	    0	10.874888	2.250723	-3.886261	0.597509	-1.745024	6.910653	0.108215	0.026367	-0.037842	0.999360	0.002987	-0.008723	0.034546	
63198	    0	11.665822	1.912420	-2.991535	0.266328	-1.986774	7.192375	0.116158	0.023347	-0.028730	0.999303	0.001331	-0.009932	0.035954	
63199	    0	13.345509	1.680839	-2.175595	0.018506	-2.239033	7.480233	0.132935	0.021790	-0.020264	0.999237	0.000093	-0.011192	0.037392	
63200	    0	14.976292	2.910367	-1.224055	-0.215207	-2.453706	7.682595	0.148634	0.034817	-0.010448	0.999186	-0.001076	-0.012265	0.038403	
63201	    0	16.691440	3.944384	-0.226164	-0.384439	-2.608462	7.787227	0.165222	0.045898	-0.000183	0.999155	-0.001922	-0.013039	0.038925	
63202	    0	18.161324	5.042372	0.488240	-0.280841	-2.692789	7.755171	0.179390	0.057419	0.007231	0.999156	-0.001404	-0.013460	0.038765	
63203	    0	19.374295	8.531344	1.238600	0.117524	-2.628083	7.613905	0.190125	0.092590	0.014954	0.999188	0.000587	-0.013137	0.038059	
63204	    0	20.076095	13.779970	3.324307	0.470088	-2.389934	7.356577	0.195097	0.144964	0.035933	0.999249	0.002350	-0.011947	0.036774	
63205	    0	20.301239	20.296516	4.125432	0.740215	-2.128117	6.921389	0.195374	0.209656	0.044128	0.999337	0.003700	-0.010638	0.034599	
63206	    0	20.314952	23.942794	5.272380	0.783108	-1.743441	6.305882	0.194998	0.245449	0.055401	0.999456	0.003915	-0.008716	0.031524	
63207	    0	20.910114	24.191117	5.028666	1.151628	-1.370432	5.522168	0.201965	0.247253	0.053101	0.999578	0.005757	-0.006851	0.027607	
63208	    0	17.918045	29.260366	4.284742	1.627878	-0.987905	4.238510	0.172709	0.295943	0.046111	0.999729	0.008139	-0.004939	0.021191	
63209	    0	13.154260	35.400418	1.826236	1.874063	-0.788155	2.779526	0.126526	0.355591	0.022095	0.999851	0.009370	-0.003941	0.013897	
63210	    0	9.443292	40.361251	1.826530	1.619370	-0.617993	1.279856	0.091784	0.404038	0.021822	0.999942	0.008097	-0.003090	0.006399	
63211	    0	7.548237	40.845407	4.706669	1.385701	-0.407413	-0.087739	0.075562	0.408081	0.050049	0.999973	0.006928	-0.002037	-0.000439	
63212	    0	10.277922	36.776067	5.361583	1.491380	-0.182345	-1.249333	0.105021	0.366695	0.056448	0.999951	0.007457	-0.000912	-0.006247	
63213	    0	13.189225	47.731155	3.588281	2.195297	0.039675	-3.052701	0.139160	0.474792	0.041077	0.999823	0.010976	0.000198	-0.015263	
63214	    0	19.320591	51.710813	1.349389	1.157299	0.271060	-4.642931	0.205158	0.512349	0.016195	0.999712	0.005786	0.001355	-0.023212	
63215	    0	20.143366	5.873792	0.009270	-1.406040	0.428813	-4.544499	0.202698	0.054138	-0.000732	0.999714	-0.007030	0.002144	-0.022720	
63216	    0	20.967466	-33.688365	1.294476	-1.146030	0.531622	-4.267854	0.202461	-0.341176	0.014347	0.999752	-0.005730	0.002658	-0.021338	
63217	    0	16.908453	-16.384028	-4.814946	1.307259	0.315131	-5.133659	0.164734	-0.167786	-0.049500	0.999647	0.006536	0.001575	-0.025665	
63218	    0	14.801863	17.474576	-16.280482	3.218850	-0.267649	-5.732617	0.153210	0.172992	-0.159808	0.999458	0.016091	-0.001338	-0.028658	
63219	    0	21.012976	35.720065	-1.533617	-0.218236	0.304652	-6.181560	0.221008	0.350464	-0.016052	0.999520	-0.001091	0.001523	-0.030903	
63220	    0	2.671508	2.179257	8.196789	-1.042489	-0.003815	-5.215497	0.027277	0.021513	0.081856	0.999646	-0.005212	-0.000019	-0.026074	
63221	    0	8.496977	10.203057	3.922020	-0.090798	0.117695	-4.787140	0.087402	0.099976	0.039124	0.999713	-0.000454	0.000588	-0.023933	
63222	    0	6.397934	7.598695	1.196136	-0.496903	-0.085647	-4.280803	0.065581	0.074624	0.011803	0.999767	-0.002484	-0.000428	-0.021402	
63223	    0	8.077585	3.065727	0.069733	0.139055	-0.186169	-3.952284	0.081360	0.029053	0.000793	0.999804	0.000695	-0.000931	-0.019760	
63224	    0	10.016195	5.780841	-0.986272	0.235762	-0.258843	-3.785934	0.101245	0.055910	-0.009665	0.999819	0.001179	-0.001294	-0.018929	
63225	    0	11.058022	7.164806	-2.983258	0.183305	-0.188455	-3.432634	0.111816	0.069763	-0.029663	0.999851	0.000916	-0.000942	-0.017162	
63226	    0	12.816653	6.499605	-1.102137	0.269520	-0.218782	-3.146684	0.129180	0.062984	-0.010795	0.999874	0.001348	-0.001094	-0.015733	
63227	    0	13.135887	8.363904	-1.137354	0.304615	-0.119023	-2.920637	0.132568	0.081726	-0.011169	0.999891	0.001523	-0.000595	-0.014603	
63228	    0	10.858038	8.517876	-1.689580	-0.053407	-0.103190	-2.489917	0.109638	0.083814	-0.016862	0.999922	-0.000267	-0.000516	-0.012449	
63229	    0	10.037301	7.473176	-2.121945	-0.327116	-0.077821	-2.037085	0.101135	0.073669	-0.021301	0.999947	-0.001636	-0.000389	-0.010185	
63230	    0	11.568516	8.060865	-3.009031	-0.475889	-0.086022	-1.660368	0.116362	0.079573	-0.030231	0.999962	-0.002379	-0.000430	-0.008302	
63231	    0	13.753796	7.371775	-1.810339	-0.499539	-0.052643	-1.420607	0.138062	0.072693	-0.018250	0.999971	-0.002498	-0.000263	-0.007103	
63232	    0	16.280916	6.916555	-0.601023	-0.497631	-0.024414	-1.223764	0.163229	0.068152	-0.006161	0.999978	-0.002488	-0.000122	-0.006119	
63233	    0	18.994847	6.750918	1.483404	-0.513461	0.014687	-1.071173	0.190308	0.066528	0.014648	0.999982	-0.002567	0.000073	-0.005356	
63234	    0	19.913174	6.428085	2.796238	-0.544170	0.036431	-1.021582	0.199462	0.063338	0.027753	0.999983	-0.002721	0.000182	-0.005108	
63235	    0	19.494784	5.087414	2.434859	-0.727086	0.058174	-0.936132	0.195190	0.050049	0.024109	0.999982	-0.003635	0.000291	-0.004681	
63236	    0	19.237396	3.258756	1.073508	-0.951010	0.055123	-0.851637	0.192513	0.031818	0.010530	0.999979	-0.004755	0.000276	-0.004258	
63237	    0	18.965949	2.562578	0.294466	-1.361098	0.028420	-0.782784	0.189758	0.024902	0.002747	0.999969	-0.006805	0.000142	-0.003914	
63238	    0	18.718223	0.778666	-0.605699	-1.826888	0.027466	-0.734913	0.187208	0.007043	-0.006149	0.999951	-0.009134	0.000137	-0.003675	
63239	    0	18.240971	-0.899807	-1.667534	-2.258926	0.037385	-0.702684	0.182373	-0.009827	-0.016602	0.999929	-0.011294	0.000187	-0.003513	
63240	    0	16.507760	-2.244186	-2.762524	-2.487253	0.081065	-0.790237	0.164975	-0.023436	-0.027405	0.999914	-0.012436	0.000405	-0.003951	
63241	    0	15.276386	-4.522141	-3.291771	-2.444337	0.150303	-0.924709	0.152527	-0.046326	-0.032471	0.999914	-0.012221	0.000751	-0.004623	
63242	    0	13.633448	-5.389399	-3.594813	-2.272666	0.208479	-1.061468	0.136007	-0.055021	-0.035469	0.999920	-0.011363	0.001042	-0.005307	
63243	    0	11.508939	-7.174286	-2.658672	-2.001236	0.241285	-1.198605	0.114624	-0.072693	-0.026001	0.999930	-0.010006	0.001206	-0.005993	
63244	    0	9.322192	-7.411838	-1.843124	-1.619179	0.275426	-1.375034	0.092684	-0.074903	-0.017955	0.999942	-0.008096	0.001377	-0.006875	
63245	    0	8.860348	-6.397625	-2.630201	-1.240372	0.363929	-1.682313	0.088013	-0.064880	-0.026062	0.999943	-0.006202	0.001820	-0.008411	
63246	    0	8.939000	-8.479968	-1.850693	-0.946446	0.519954	-1.977962	0.088497	-0.085765	-0.018333	0.999936	-0.004732	0.002600	-0.009890	
63247	    0	8.605161	-8.210287	-1.870719	-0.317391	0.665491	-2.336179	0.085022	-0.083130	-0.018860	0.999925	-0.001587	0.003327	-0.011681	
63248	    0	9.315943	-6.983227	-1.714961	0.240906	0.849943	-2.688688	0.092135	-0.071054	-0.017628	0.999900	0.001204	0.004250	-0.013443	
63249	    0	10.404275	-5.966735	-1.072023	0.419636	0.976799	-3.164057	0.103027	-0.061279	-0.011353	0.999860	0.002098	0.004884	-0.015820	
63250	    0	12.033630	-4.355423	-2.202814	0.334760	0.879150	-3.688844	0.119408	-0.045725	-0.022630	0.999819	0.001674	0.004395	-0.018443	
63251	    0	11.627572	-4.545406	-3.952510	0.108345	0.845586	-3.975951	0.115173	-0.047729	-0.040039	0.999793	0.000542	0.004228	-0.019878	
63252	    0	16.126176	-1.632312	-5.694439	-0.079924	0.880113	-4.024409	0.160637	-0.019583	-0.057645	0.999787	-0.000400	0.004400	-0.020121	
63253	    0	21.239230	-4.528601	-5.997641	-0.089079	0.847677	-3.725660	0.211243	-0.049255	-0.060852	0.999817	-0.000445	0.004238	-0.018627	
63254	    0	19.975619	-6.667713	-5.480558	-0.240910	1.055387	-3.226054	0.198353	-0.069951	-0.055772	0.999855	-0.001204	0.005277	-0.016129	
63255	    0	22.201046	-7.578481	-4.789545	-0.148779	1.117181	-2.967959	0.220581	-0.079102	-0.049072	0.999873	-0.000744	0.005586	-0.014839	
63256	    0	20.774718	-7.426939	-4.737922	-0.002670	1.074450	-2.790174	0.206426	-0.077156	-0.048490	0.999887	-0.000013	0.005372	-0.013950	
63257	    0	19.490901	-5.838715	-3.810962	-0.048639	0.933103	-2.527695	0.193970	-0.060852	-0.039001	0.999908	-0.000243	0.004665	-0.012638	
63258	    0	16.650228	-3.866181	-3.157843	-0.431262	0.816174	-2.185873	0.165936	-0.040546	-0.032170	0.999929	-0.002156	0.004081	-0.010929	
63259	    0	13.900706	-3.022668	-3.155401	-1.190210	0.884456	-1.641879	0.138611	-0.031555	-0.031982	0.999938	-0.005951	0.004422	-0.008209	
63260	    0	11.931948	-3.721546	-3.710329	-1.681170	0.904673	-1.017781	0.118958	-0.038135	-0.037324	0.999941	-0.008406	0.004523	-0.005089	
63261	    0	9.042946	-3.027135	-4.193868	-1.822694	0.871483	-0.238041	0.090210	-0.030762	-0.042053	0.999948	-0.009113	0.004357	-0.001190	
63262	    0	7.345988	-2.082825	-3.847266	-1.554129	0.708399	0.592431	0.073385	-0.020910	-0.038570	0.999959	-0.007771	0.003542	0.002962	
63263	    0	6.449737	-1.479768	-3.427884	-0.972569	0.480658	1.358812	0.064514	-0.014526	-0.034363	0.999962	-0.004863	0.002403	0.006794	
63264	    0	6.288261	-0.546739	-3.060762	-0.535785	0.299841	2.102131	0.062890	-0.004889	-0.030688	0.999940	-0.002679	0.001499	0.010510	
63265	    0	5.657536	-0.616285	-3.043137	-0.172240	0.106052	2.889353	0.056641	-0.005371	-0.030457	0.999895	-0.000861	0.000530	0.014446	
63266	    0	5.251273	-1.286107	-3.061100	0.331325	-0.105482	3.637898	0.052751	-0.011852	-0.030603	0.999832	0.001657	-0.000527	0.018188	
63267	    0	5.517336	-0.688573	-3.211432	0.878214	-0.351553	4.306379	0.055359	-0.005554	-0.032043	0.999757	0.004391	-0.001758	0.021530	
63268	    0	6.019547	0.124803	-3.554792	1.324225	-0.617857	4.893835	0.060246	0.002956	-0.035346	0.999674	0.006620	-0.003089	0.024467	
63269	    0	6.701590	0.918718	-3.906111	1.561183	-0.842970	5.381732	0.066895	0.011292	-0.038696	0.999599	0.007805	-0.004214	0.026905	
63270	    0	7.508358	1.205244	-4.239977	1.518296	-1.030701	5.839306	0.074900	0.014561	-0.041909	0.999531	0.007590	-0.005153	0.029192	
63271	    0	8.436312	0.886364	-4.403696	1.354645	-1.201839	6.215227	0.084290	0.011780	-0.043457	0.999475	0.006772	-0.006008	0.031071	
63272	    0	9.403457	0.795023	-4.122283	1.180876	-1.392442	6.547472	0.093986	0.011269	-0.040508	0.999422	0.005903	-0.006961	0.032731	
63273	    0	10.232935	1.603231	-3.835977	0.932699	-1.562829	6.866373	0.101990	0.019714	-0.037476	0.999369	0.004663	-0.007812	0.034325	
63274	    0	10.989112	1.905791	-3.603897	0.531318	-1.728264	7.196361	0.109414	0.023095	-0.035034	0.999311	0.002656	-0.008639	0.035974	
63275	    0	12.568347	1.641413	-3.188662	0.016217	-1.888746	7.497748	0.125244	0.021118	-0.030701	0.999252	0.000081	-0.009441	0.037479	
63276	    0	13.978680	2.970151	-2.898578	-0.315941	-2.084717	7.728354	0.138794	0.035034	-0.027588	0.999197	-0.001579	-0.010421	0.038631	
63277	    0	15.631681	5.058047	-2.031562	-0.669474	-2.249770	7.814477	0.154401	0.056575	-0.018754	0.999166	-0.003346	-0.011246	0.039062	
63278	    0	16.634086	6.997719	-1.676511	-0.753611	-2.355846	7.765630	0.163644	0.076308	-0.015106	0.999169	-0.003767	-0.011776	0.038817	
63279	    0	17.718175	9.876275	-1.183243	-0.621769	-2.384053	7.575703	0.173401	0.105347	-0.010071	0.999207	-0.003108	-0.011917	0.037868	
63280	    0	18.714476	14.060964	-0.184220	-0.553075	-2.303877	7.280220	0.181871	0.147293	-0.000128	0.999267	-0.002765	-0.011517	0.036392	
63281	    0	19.107435	17.707452	2.145909	-0.653790	-2.164927	6.835888	0.184631	0.183533	0.022888	0.999352	-0.003268	-0.010822	0.034172	
63282	    0	19.598750	19.927433	5.627135	-0.548268	-1.883647	6.191197	0.189155	0.205358	0.057517	0.999473	-0.002741	-0.009417	0.030951	
63283	    0	20.718264	21.553929	7.263760	0.086414	-1.525314	5.361870	0.200745	0.220947	0.074280	0.999611	0.000432	-0.007626	0.026806	
63284	    0	17.643552	27.446926	7.247900	0.973780	-1.127716	4.150345	0.170278	0.277685	0.074798	0.999757	0.004869	-0.005638	0.020750	
63285	    0	13.224662	33.477491	4.517908	1.619986	-0.873606	2.775702	0.127380	0.336182	0.048462	0.999861	0.008100	-0.004368	0.013878	
63286	    0	9.631186	37.736099	2.802833	1.883934	-0.692956	1.324495	0.093705	0.377699	0.031913	0.999928	0.009419	-0.003465	0.006622	
63287	    0	10.123529	38.089389	3.637203	2.031745	-0.570499	-0.006104	0.101135	0.380493	0.040527	0.999944	0.010159	-0.002852	-0.000031	
63288	    0	12.113397	46.593684	8.072284	2.496817	-0.262271	-1.767800	0.125129	0.463785	0.086684	0.999882	0.012484	-0.001311	-0.008839	
63289	    0	18.828859	55.473665	9.899221	2.686729	0.141919	-3.627322	0.198364	0.549805	0.106262	0.999744	0.013433	0.000710	-0.018135	
63290	    0	25.231536	42.979233	3.983697	1.210735	0.484332	-5.116866	0.263294	0.422900	0.041782	0.999651	0.006053	0.002421	-0.025581	
63291	    0	23.839977	-17.820854	1.665419	-0.638448	0.589043	-4.615445	0.234253	-0.183594	0.016541	0.999723	-0.003192	0.002945	-0.023075	
63292	    0	23.308479	-25.844346	3.967144	0.521911	0.787635	-5.178668	0.226440	-0.264465	0.038086	0.999653	0.002609	0.003938	-0.025890	
63293	    0	16.485677	0.971289	-4.493292	2.814613	0.221483	-5.965171	0.165011	0.005425	-0.045019	0.999454	0.014071	0.001107	-0.029820	
63294	    0	19.373099	33.697616	-12.012140	2.267167	0.079362	-6.706494	0.204865	0.331564	-0.116422	0.999373	0.011333	0.000397	-0.033525	
63295	    0	3.271706	10.940470	3.393203	-0.756753	0.068674	-5.807562	0.035889	0.108521	0.033508	0.999571	-0.003783	0.000343	-0.029034	
63296	    0	-0.832655	7.301673	-1.895702	0.619961	-0.162716	-5.269669	-0.006383	0.073260	-0.018736	0.999647	0.003099	-0.000813	-0.026345	
63297	    0	7.595680	13.301031	0.907980	-0.214214	-0.242636	-4.602459	0.078979	0.131226	0.009033	0.999733	-0.001071	-0.001213	-0.023010	
63298	    0	7.581598	4.036126	2.373769	-0.169957	-0.295470	-4.167479	0.076600	0.038791	0.023817	0.999781	-0.000850	-0.001477	-0.020836	
63299	    0	11.815924	5.636367	0.398088	0.375583	-0.112160	-4.038516	0.119263	0.053955	0.004150	0.999794	0.001878	-0.000561	-0.020191	
63300	    0	11.859922	6.661377	-2.589346	0.315302	0.050357	-3.635036	0.119778	0.064485	-0.025821	0.999833	0.001576	0.000252	-0.018174	
63301	    0	13.596338	6.613997	-1.528365	0.083355	0.003052	-3.281550	0.137024	0.063904	-0.015259	0.999865	0.000417	0.000015	-0.016407	
63302	    0	12.923416	7.098390	-2.367176	0.180061	0.004578	-3.101664	0.130314	0.068990	-0.023612	0.999879	0.000900	0.000023	-0.015508	
63303	    0	10.792683	7.763437	-2.442467	-0.151829	-0.014306	-2.658923	0.108948	0.076172	-0.024475	0.999911	-0.000759	-0.000072	-0.013294	
63304	    0	9.990763	7.484844	-3.084156	-0.386628	-0.024415	-2.220582	0.100734	0.073673	-0.030972	0.999936	-0.001933	-0.000122	-0.011103	
63305	    0	10.962624	8.767731	-2.471024	-0.610170	-0.022126	-1.802090	0.110413	0.086609	-0.024963	0.999954	-0.003051	-0.000111	-0.009010	
63306	    0	12.590420	6.655404	-0.961101	-0.532347	-0.029946	-1.500146	0.126400	0.065581	-0.009768	0.999968	-0.002662	-0.000150	-0.007501	
63307	    0	15.148838	8.612531	-0.178451	-0.422672	-0.015831	-1.287089	0.152039	0.085144	-0.001953	0.999976	-0.002113	-0.000079	-0.006435	
63308	    0	18.456072	7.875244	1.396180	-0.391009	0.028801	-1.094061	0.184990	0.077768	0.013783	0.999983	-0.001955	0.000144	-0.005470	
63309	    0	18.791970	6.188740	2.757012	-0.325777	0.004768	-1.018529	0.188232	0.060974	0.027466	0.999986	-0.001629	0.000024	-0.005093	
63310	    0	19.646852	6.702472	2.246575	-0.391580	0.020027	-0.940136	0.196783	0.066144	0.022316	0.999987	-0.001958	0.000100	-0.004701	
63311	    0	20.131879	5.491100	1.154019	-0.759892	-0.018883	-0.810246	0.201538	0.054138	0.011353	0.999984	-0.003799	-0.000094	-0.004051	
63312	    0	18.955764	2.869197	0.175649	-1.138887	-0.106431	-0.725179	0.189659	0.028014	0.001697	0.999976	-0.005694	-0.000532	-0.003626	
63313	    0	18.855993	1.209590	-0.167219	-1.617261	-0.125887	-0.644692	0.188599	0.011475	-0.001648	0.999962	-0.008086	-0.000629	-0.003223	
63314	    0	18.909238	0.430749	-1.345237	-2.154205	-0.123980	-0.627722	0.189113	0.003570	-0.013376	0.999936	-0.010771	-0.000620	-0.003139	
63315	    0	18.382332	-1.532040	-2.140271	-2.551153	-0.088504	-0.701162	0.183777	-0.016235	-0.021118	0.999912	-0.012755	-0.000443	-0.003506	
63316	    0	16.720685	-5.281833	-2.672855	-2.644623	-0.001144	-0.820758	0.166987	-0.053851	-0.026020	0.999904	-0.013223	-0.000006	-0.004104	
63317	    0	14.260107	-6.475203	-3.355203	-2.463604	0.042917	-0.980406	0.142273	-0.065857	-0.032776	0.999911	-0.012318	0.000215	-0.004902	
63318	    0	11.595383	-7.633457	-2.611325	-2.175957	0.064470	-1.102475	0.115521	-0.077250	-0.025313	0.999925	-0.010880	0.000322	-0.005512	
63319	    0	9.184908	-6.112504	-2.504642	-1.783026	0.086405	-1.322201	0.091431	-0.061951	-0.024536	0.999938	-0.008915	0.000432	-0.006611	
63320	    0	8.477066	-7.883185	-1.701359	-1.521713	0.205807	-1.537162	0.084144	-0.079607	-0.016497	0.999941	-0.007608	0.001029	-0.007686	
63321	    0	8.787320	-8.091314	-1.206896	-1.103232	0.367172	-1.850928	0.087097	-0.081787	-0.011780	0.999940	-0.005516	0.001836	-0.009254	
63322	    0	9.076946	-6.566843	-1.713845	-0.491153	0.504886	-2.196551	0.089997	-0.066702	-0.017203	0.999933	-0.002456	0.002524	-0.010983	
63323	    0	9.214868	-5.230463	-1.249216	-0.012207	0.716612	-2.533795	0.091431	-0.053467	-0.012817	0.999913	-0.000061	0.003583	-0.012669	
63324	    0	10.513614	-5.546392	-0.800406	0.098232	0.862919	-2.962802	0.104263	-0.057009	-0.008483	0.999881	0.000491	0.004314	-0.014813	
63325	    0	11.354240	-4.612755	-0.987867	0.025369	0.869798	-3.486821	0.112671	-0.048096	-0.010376	0.999838	0.000127	0.004349	-0.017433	
63326	    0	9.861897	-4.020641	-2.659808	-0.093085	0.817542	-3.842029	0.097713	-0.042102	-0.026979	0.999806	-0.000465	0.004087	-0.019209	
63327	    0	15.579568	-3.593398	-4.495290	-0.183880	0.791407	-3.741684	0.154907	-0.038879	-0.045532	0.999816	-0.000919	0.003957	-0.018707	
63328	    0	15.018959	-6.287469	-4.781977	-0.171671	0.685348	-3.543093	0.148879	-0.065561	-0.048276	0.999836	-0.000858	0.003427	-0.017715	
63329	    0	16.602963	-6.702036	-3.497096	-0.596646	0.768506	-3.193050	0.164795	-0.069763	-0.035400	0.999860	-0.002983	0.003842	-0.015965	
63330	    0	19.172772	-6.938150	-3.968642	-0.806654	0.837172	-3.050367	0.190471	-0.072454	-0.040197	0.999866	-0.004033	0.004186	-0.015251	
63331	    0	20.625561	-6.248150	-5.476131	-0.759727	0.939216	-2.843588	0.205078	-0.065613	-0.055481	0.999880	-0.003798	0.004696	-0.014217	
63332	    0	20.843457	-4.879183	-5.864320	-0.849753	0.926240	-2.572147	0.207508	-0.051716	-0.059390	0.999896	-0.004249	0.004631	-0.012860	
63333	    0	19.833120	-3.854928	-4.406618	-1.190793	0.859858	-2.224797	0.197693	-0.041016	-0.044678	0.999910	-0.005954	0.004299	-0.011124	
63334	    0	16.565680	-3.403631	-3.681031	-1.694538	0.886943	-1.835114	0.165169	-0.035868	-0.037245	0.999911	-0.008472	0.004435	-0.009175	
63335	    0	12.916513	-2.718713	-2.945972	-2.206299	0.888852	-1.345104	0.128845	-0.028381	-0.029724	0.999907	-0.011031	0.004444	-0.006725	
63336	    0	10.233236	-2.801671	-3.546748	-2.414964	0.780128	-0.675412	0.102098	-0.028790	-0.035522	0.999913	-0.012074	0.003901	-0.003377	
63337	    0	8.444204	-2.754492	-3.289637	-2.275901	0.608268	0.061037	0.084351	-0.027893	-0.032837	0.999930	-0.011379	0.003041	0.000305	
63338	    0	7.073104	-1.941617	-2.562938	-1.723125	0.363165	0.786221	0.070761	-0.019359	-0.025591	0.999953	-0.008615	0.001816	0.003931	
63339	    0	6.467821	-0.486561	-2.293246	-1.111619	0.131418	1.473257	0.064697	-0.004517	-0.022949	0.999957	-0.005558	0.000657	0.007366	
63340	    0	5.970190	0.379010	-2.204340	-0.701348	-0.107195	2.207806	0.059668	0.004372	-0.022026	0.999932	-0.003507	-0.000536	0.011039	
63341	    0	5.203188	-0.351346	-2.676590	-0.131231	-0.351538	3.011438	0.052124	-0.002747	-0.026672	0.999885	-0.000656	-0.001758	0.015057	
63342	    0	4.923546	0.132336	-3.212638	0.582731	-0.614776	3.748743	0.049296	0.002340	-0.031969	0.999815	0.002913	-0.003074	0.018743	
63343	    0	5.236178	1.445912	-3.590531	1.115517	-0.903973	4.401791	0.052185	0.015808	-0.035583	0.999732	0.005577	-0.004519	0.022007	
63344	    0	5.901876	1.909008	-3.942572	1.524918	-1.176022	5.011779	0.058741	0.020863	-0.038925	0.999640	0.007624	-0.005879	0.025056	
63345	    0	6.945629	2.381556	-3.970060	1.695502	-1.400773	5.532891	0.069031	0.026062	-0.039001	0.999557	0.008476	-0.007003	0.027660	
63346	    0	8.012156	2.790122	-3.974567	1.493895	-1.568676	5.961655	0.079544	0.030571	-0.038898	0.999496	0.007468	-0.007842	0.029803	
63347	    0	9.161993	2.170612	-3.716967	1.137940	-1.707006	6.275554	0.091187	0.024780	-0.036255	0.999454	0.005689	-0.008533	0.031372	
63348	    0	9.816634	1.602183	-3.070538	0.964546	-1.889602	6.553229	0.097852	0.019377	-0.029692	0.999407	0.004822	-0.009446	0.032760	
63349	    0	10.596850	1.810401	-2.051287	0.840367	-2.041300	6.819850	0.105469	0.021790	-0.019348	0.999357	0.004201	-0.010204	0.034092	
63350	    0	11.582867	2.135830	-1.001858	0.696152	-2.171636	7.082284	0.115074	0.025475	-0.008682	0.999308	0.003480	-0.010856	0.035403	
63351	    0	13.203739	2.440395	-0.280787	0.547927	-2.300643	7.347405	0.131042	0.029236	-0.001221	0.999255	0.002739	-0.011500	0.036728	
63352	    0	14.722846	3.262550	-0.010677	0.584564	-2.395301	7.519586	0.145850	0.038124	0.001752	0.999216	0.002922	-0.011973	0.037588	
63353	    0	16.161139	5.128960	0.041779	0.686257	-2.441296	7.601674	0.159485	0.057373	0.002563	0.999197	0.003430	-0.012203	0.037998	
63354	    0	17.202746	8.369678	-0.092569	0.825530	-2.396460	7.590603	0.168679	0.090139	0.001472	0.999199	0.004127	-0.011979	0.037943	
63355	    0	18.444230	12.102079	0.235763	0.710670	-2.226067	7.502388	0.179688	0.127808	0.004822	0.999228	0.003552	-0.011127	0.037502	
63356	    0	19.160225	14.897658	1.134784	0.569098	-2.044021	7.263009	0.185895	0.155761	0.013704	0.999284	0.002845	-0.010218	0.036306	
63357	    0	20.234825	17.443570	3.510972	0.504408	-1.809878	6.812941	0.195923	0.181091	0.037354	0.999375	0.002522	-0.009048	0.034058	
63358	    0	20.948207	19.552117	5.961858	0.650132	-1.512777	6.071329	0.202962	0.201550	0.061819	0.999505	0.003250	-0.007563	0.030352	
63359	    0	19.964480	22.909249	5.274915	1.078924	-1.200818	5.079489	0.193420	0.233765	0.055176	0.999644	0.005394	-0.006003	0.025394	
63360	    0	16.213123	28.256425	2.292100	1.402959	-0.948786	3.872778	0.156505	0.285458	0.025668	0.999776	0.007014	-0.004744	0.019362	
63361	    0	10.697416	33.557935	1.025557	1.454217	-0.808555	2.498721	0.102722	0.336792	0.013123	0.999887	0.007271	-0.004043	0.012493	
63362	    0	7.421751	36.102047	2.801056	1.324100	-0.627527	1.111046	0.072118	0.361228	0.030630	0.999957	0.006620	-0.003138	0.005555	
63363	    0	8.539038	35.029676	5.882015	1.269732	-0.411990	-0.139619	0.085510	0.349854	0.061218	0.999977	0.006349	-0.002060	-0.000698	
63364	    0	9.446056	34.310212	8.198571	1.475741	-0.108721	-1.396394	0.096805	0.341814	0.084563	0.999948	0.007379	-0.000544	-0.006982	
63365	    0	10.506684	33.976027	2.506155	2.135573	-0.017358	-2.690257	0.109619	0.338013	0.028687	0.999852	0.010677	-0.000087	-0.013451	
63366	    0	15.487375	50.791885	-5.126738	1.750921	0.004387	-4.434815	0.166089	0.504742	-0.046843	0.999716	0.008754	0.000022	-0.022172	
63367	    0	19.234117	14.660462	-1.379854	-1.373414	0.235960	-4.414762	0.195496	0.142212	-0.015015	0.999732	-0.006866	0.001180	-0.022072	
63368	    0	20.585202	-28.470297	2.551813	-1.961685	0.341254	-4.075209	0.200045	-0.288552	0.027991	0.999743	-0.009808	0.001706	-0.020374	
63369	    0	20.624998	-13.953327	-4.860941	1.271397	0.222041	-5.153499	0.202515	-0.144470	-0.049744	0.999647	0.006356	0.001110	-0.025764	
63370	    0	23.453600	21.252478	-11.267178	3.074705	-0.078408	-6.306988	0.241159	0.206687	-0.109370	0.999384	0.015370	-0.000392	-0.031528	
63371	    0	24.274323	26.893850	4.413314	-0.234836	0.491420	-6.489184	0.251404	0.260925	0.043213	0.999470	-0.001174	0.002457	-0.032440	
63372	    0	2.107332	-0.937975	6.294327	0.222999	-0.088513	-5.684666	0.020766	-0.010043	0.062942	0.999595	0.001115	-0.000443	-0.028419	
63373	    0	5.621513	12.548570	2.567286	1.175835	-0.082980	-5.315293	0.059509	0.123779	0.026428	0.999629	0.005878	-0.000415	-0.026573	
63374	    0	4.294339	10.726840	-1.330901	0.031283	-0.239585	-4.636418	0.045430	0.106236	-0.013239	0.999730	0.000156	-0.001198	-0.023180	
63375	    0	7.101259	4.609315	-1.607285	0.250453	-0.070196	-4.177398	0.071960	0.044617	-0.015991	0.999781	0.001252	-0.000351	-0.020885	
63376	    0	10.416941	6.982034	-1.067715	0.384163	0.018502	-3.784789	0.105465	0.067853	-0.010555	0.999819	0.001921	0.000093	-0.018923	
63377	    0	11.912658	8.233064	-0.583250	0.206766	0.082592	-3.356329	0.120483	0.080322	-0.005798	0.999858	0.001034	0.000413	-0.016781	
63378	    0	13.177053	6.489170	-0.706738	0.219926	0.057032	-3.042148	0.132735	0.062885	-0.007035	0.999884	0.001100	0.000285	-0.015210	
63379	    0	12.595029	8.677076	-1.834339	0.153547	0.051882	-2.781767	0.127136	0.085022	-0.018311	0.999903	0.000768	0.000259	-0.013908	
63380	    0	10.755709	8.130533	-2.849490	-0.131801	0.035859	-2.322249	0.108486	0.080030	-0.028567	0.999932	-0.000659	0.000179	-0.011611	
63381	    0	10.986486	8.495921	-3.219465	-0.317388	0.036812	-1.894408	0.110657	0.083862	-0.032349	0.999953	-0.001587	0.000184	-0.009472	
63382	    0	12.040005	7.017609	-2.561656	-0.467114	0.037575	-1.487938	0.120913	0.069218	-0.025802	0.999969	-0.002336	0.000188	-0.007440	
63383	    0	14.363452	7.787657	-1.457813	-0.414088	0.045014	-1.223763	0.144104	0.076965	-0.014771	0.999979	-0.002070	0.000225	-0.006119	
63384	    0	17.602993	7.207660	0.027782	-0.382616	0.087548	-1.000981	0.176388	0.071195	0.000064	0.999985	-0.001913	0.000438	-0.005005	
63385	    0	19.788515	6.504724	2.121326	-0.377657	0.096321	-0.886539	0.198181	0.064209	0.020996	0.999988	-0.001888	0.000482	-0.004433	
63386	    0	20.315392	5.275109	2.775761	-0.423814	0.096512	-0.802043	0.203377	0.051994	0.027549	0.999990	-0.002119	0.000483	-0.004010	
63387	    0	20.379801	5.114629	1.455332	-0.641444	0.046539	-0.702670	0.203979	0.050476	0.014343	0.999989	-0.003207	0.000233	-0.003513	
63388	    0	20.040614	3.433774	0.825091	-1.112373	-0.055504	-0.613980	0.200508	0.033768	0.008118	0.999979	-0.005562	-0.000278	-0.003070	
63389	    0	18.679340	1.420991	0.236048	-1.721978	-0.149347	-0.532539	0.186829	0.013733	0.002380	0.999959	-0.008610	-0.000747	-0.002663	
63390	    0	18.304343	0.830113	-0.119164	-2.403511	-0.178342	-0.501073	0.183064	0.007829	-0.001124	0.999924	-0.012017	-0.000892	-0.002505	
63391	    0	17.674654	-2.137939	-0.660420	-2.873141	-0.144201	-0.499743	0.176697	-0.021912	-0.006165	0.999893	-0.014365	-0.000721	-0.002499	
63392	    0	16.889222	-3.974671	-1.419204	-2.836136	0.011063	-0.628303	0.168765	-0.040473	-0.013631	0.999894	-0.014180	0.000055	-0.003141	
63393	    0	14.721114	-5.603098	-2.215490	-2.548103	0.151829	-0.784325	0.146973	-0.056885	-0.021545	0.999910	-0.012740	0.000759	-0.003922	
63394	    0	11.901789	-7.348945	-2.499478	-2.194838	0.224500	-0.877210	0.118666	-0.074280	-0.024316	0.999929	-0.010974	0.001122	-0.004386	
63395	    0	9.663044	-7.645810	-2.186413	-1.677732	0.297742	-1.058215	0.096191	-0.077148	-0.021362	0.999949	-0.008389	0.001489	-0.005291	
63396	    0	7.627857	-7.173164	-2.590703	-1.124779	0.417334	-1.351947	0.075737	-0.072390	-0.025660	0.999959	-0.005624	0.002087	-0.006760	
63397	    0	7.512843	-6.492395	-2.300448	-0.585946	0.528152	-1.663231	0.074524	-0.065613	-0.023010	0.999957	-0.002930	0.002641	-0.008316	
63398	    0	6.057730	-5.090354	-2.925341	-0.078584	0.588618	-1.986158	0.059981	-0.051513	-0.029410	0.999946	-0.000393	0.002943	-0.009931	
63399	    0	6.574650	-3.157111	-3.426322	0.290878	0.721759	-2.343810	0.065247	-0.032288	-0.034546	0.999924	0.001454	0.003609	-0.011719	
63400	    0	8.721984	-2.288682	-2.376105	0.413148	0.911558	-2.926371	0.086763	-0.024109	-0.024206	0.999880	0.002066	0.004558	-0.014631	
63401	    0	10.886713	-1.633013	-3.016526	0.392364	1.035368	-3.534138	0.108398	-0.018188	-0.030762	0.999828	0.001962	0.005177	-0.017670	
63402	    0	9.984346	-3.168024	-5.421450	0.096709	1.059602	-3.835550	0.098923	-0.033557	-0.054756	0.999802	0.000484	0.005298	-0.019176	
63403	    0	16.634974	-2.297826	-6.164852	-0.573771	1.040914	-3.946202	0.165527	-0.026428	-0.062439	0.999787	-0.002869	0.005204	-0.019730	
63404	    0	15.930718	-6.835727	-3.951930	-1.049313	1.083075	-4.006883	0.157677	-0.071736	-0.040006	0.999770	-0.005246	0.005415	-0.020033	
63405	    0	17.564319	-7.674039	-2.373129	-1.348791	1.184174	-3.918760	0.173950	-0.080322	-0.024231	0.999767	-0.006743	0.005920	-0.019592	
63406	    0	20.326401	-8.524711	-2.983017	-1.305871	1.308923	-3.879083	0.201359	-0.089363	-0.030578	0.999768	-0.006529	0.006544	-0.019394	
63407	    0	23.699535	-7.996771	-4.356193	-0.895754	1.572720	-3.704333	0.235107	-0.084534	-0.045044	0.999787	-0.004478	0.007863	-0.018520	
63408	    0	25.014709	-6.911333	-4.618581	-0.350210	1.581857	-3.393945	0.248550	-0.073423	-0.048030	0.999823	-0.001751	0.007909	-0.016969	
63409	    0	23.283896	-5.236431	-4.266467	-0.294509	1.436111	-3.051141	0.231689	-0.055969	-0.044250	0.999856	-0.001472	0.007180	-0.015255	
63410	    0	19.502893	-4.646868	-2.543532	-0.748284	1.274733	-2.770156	0.194193	-0.049260	-0.026494	0.999876	-0.003741	0.006373	-0.013850	
63411	    0	15.686285	-4.106843	-1.987879	-1.147500	1.114883	-2.358326	0.156250	-0.043030	-0.020508	0.999898	-0.005737	0.005574	-0.011791	
63412	    0	12.297958	-3.356590	-3.055811	-1.362069	0.970100	-1.651993	0.122546	-0.034789	-0.030919	0.999930	-0.006810	0.004850	-0.008260	
63413	    0	9.772652	-2.415575	-3.808501	-1.249519	0.817118	-0.790415	0.097473	-0.024780	-0.038330	0.999964	-0.006248	0.004086	-0.003952	
63414	    0	7.694811	-1.893228	-4.020065	-0.869183	0.554087	0.041008	0.076840	-0.019092	-0.040331	0.999987	-0.004346	0.002770	0.000205	
63415	    0	6.380976	-0.573388	-4.155877	-0.379754	0.244142	0.811008	0.063782	-0.005554	-0.041626	0.999989	-0.001899	0.001221	0.004055	
63416	    0	5.231216	0.534155	-4.026083	-0.005341	-0.020790	1.649303	0.052270	0.005772	-0.040256	0.999966	-0.000027	-0.000104	0.008246	
63417	    0	4.436983	-0.118541	-3.753820	0.409710	-0.288971	2.518532	0.044434	-0.000549	-0.037476	0.999917	0.002048	-0.001445	0.012592	
63418	    0	4.066721	-0.100106	-3.966552	0.849004	-0.581580	3.334787	0.040790	-0.000154	-0.039549	0.999847	0.004245	-0.002908	0.016673	
63419	    0	4.307136	0.636767	-3.867233	1.069150	-0.846164	4.050754	0.043091	0.007446	-0.038452	0.999771	0.005345	-0.004230	0.020252	
63420	    0	4.703515	1.032123	-4.034946	1.143191	-1.112861	4.681301	0.046996	0.011651	-0.040024	0.999694	0.005715	-0.005564	0.023404	
63421	    0	5.510546	1.353031	-4.043177	1.112698	-1.352864	5.248167	0.054993	0.015198	-0.039978	0.999617	0.005563	-0.006763	0.026237	
63422	    0	6.394470	1.419942	-3.867202	0.915092	-1.535455	5.723666	0.063794	0.016202	-0.038111	0.999550	0.004575	-0.007676	0.028614	
63423	    0	7.373716	0.777492	-3.330891	0.630295	-1.696874	6.111417	0.073730	0.010132	-0.032654	0.999492	0.003151	-0.008483	0.030552	
63424	    0	8.525064	0.103376	-2.755144	0.480741	-1.837690	6.396717	0.085406	0.003829	-0.026760	0.999443	0.002403	-0.009187	0.031978	
63425	    0	9.225957	0.497831	-2.106725	0.469304	-1.970884	6.702266	0.092224	0.008118	-0.020142	0.999387	0.002346	-0.009852	0.033504	
63426	    0	9.906751	0.427303	-1.128505	0.345307	-2.092825	6.976529	0.098948	0.007745	-0.010238	0.999335	0.001726	-0.010462	0.034875	
63427	    0	11.108351	0.214553	-0.562149	0.415901	-2.192256	7.222178	0.110962	0.006165	-0.004395	0.999286	0.002079	-0.010959	0.036102	
63428	    0	12.739103	1.189922	0.139779	0.523318	-2.279476	7.425848	0.126805	0.016609	0.002885	0.999242	0.002616	-0.011395	0.037120	
63429	    0	14.252813	2.523904	0.582649	0.673089	-2.320518	7.565770	0.141357	0.030579	0.007568	0.999211	0.003365	-0.011600	0.037819	
63430	    0	15.569922	4.453879	0.413994	0.857010	-2.284852	7.632008	0.153788	0.050409	0.006112	0.999196	0.004284	-0.011421	0.038150	
63431	    0	16.772502	7.832418	0.698385	0.962513	-2.142902	7.622260	0.164490	0.084595	0.009155	0.999205	0.004811	-0.010712	0.038101	
63432	    0	17.837875	11.120115	1.026396	1.030233	-1.956107	7.532337	0.173910	0.117747	0.012575	0.999229	0.005150	-0.009778	0.037652	
63433	    0	19.146478	15.512004	1.988185	1.144681	-1.711489	7.261092	0.185486	0.161804	0.022400	0.999288	0.005722	-0.008555	0.036297	
63434	    0	19.976273	19.202300	3.037726	1.200161	-1.475257	6.779927	0.192870	0.198447	0.032995	0.999380	0.006000	-0.007375	0.033893	
63435	    0	19.764667	21.419366	3.140763	1.417206	-1.271269	6.036622	0.190857	0.219788	0.034180	0.999498	0.007085	-0.006355	0.030178	
63436	    0	18.100264	24.663468	1.706070	1.770998	-1.113455	4.988516	0.174673	0.250875	0.020254	0.999634	0.008854	-0.005567	0.024940	
63437	    0	14.126214	30.325943	0.447988	1.857324	-0.994948	3.678407	0.135620	0.305725	0.007996	0.999775	0.009286	-0.004974	0.018391	
63438	    0	9.514012	35.962062	1.780399	1.528220	-0.840407	2.279932	0.090950	0.360521	0.020945	0.999896	0.007641	-0.004202	0.011399	
63439	    0	7.991617	36.406391	4.301635	1.189436	-0.580413	1.013195	0.077942	0.364197	0.045410	0.999965	0.005947	-0.002902	0.005066	
63440	    0	8.040010	34.721031	6.032480	1.176460	-0.322153	-0.178529	0.080610	0.346775	0.062495	0.999981	0.005882	-0.001611	-0.000893	
63441	    0	9.478524	33.944816	1.514109	1.661906	-0.226598	-1.417570	0.097168	0.338623	0.018066	0.999939	0.008309	-0.001133	-0.007088	
63442	    0	13.616127	56.510955	-6.838245	2.054163	-0.316451	-3.455205	0.146006	0.563305	-0.062365	0.999796	0.010270	-0.001582	-0.017275	
63443	    0	23.742802	47.962002	-3.940078	-1.404519	0.086221	-4.652100	0.248474	0.473633	-0.042847	0.999704	-0.007022	0.000431	-0.023258	
63444	    0	25.442502	-12.345958	-1.696827	-4.007553	0.425974	-4.403577	0.251587	-0.129333	-0.014954	0.999554	-0.020035	0.002130	-0.022015	
63445	    0	25.221809	-23.395565	-10.915328	-0.218800	0.036244	-5.404177	0.245753	-0.240774	-0.108937	0.999632	-0.001094	0.000181	-0.027018	
63446	    0	26.445808	15.262075	-11.033441	2.233023	0.007059	-6.758400	0.269436	0.144791	-0.108698	0.999367	0.011163	0.000035	-0.033785	
63447	    0	23.545363	24.484199	10.984391	-1.146712	0.563913	-6.421282	0.243469	0.237732	0.107788	0.999464	-0.005733	0.002819	-0.032101	
63448	    0	2.298046	3.554199	9.054380	-0.176644	0.060471	-5.629330	0.023997	0.034956	0.090506	0.999603	-0.000883	0.000302	-0.028143	
63449	    0	5.052180	15.093307	3.011265	0.128379	0.216699	-5.184756	0.054443	0.149536	0.030151	0.999662	0.000642	0.001083	-0.025921	
63450	    0	5.078412	7.906189	-1.329884	-0.390848	0.068861	-4.446399	0.052520	0.077881	-0.013470	0.999750	-0.001954	0.000344	-0.022230	
63451	    0	8.891588	4.403695	-2.549174	-0.231187	0.072675	-4.094220	0.089783	0.042175	-0.025574	0.999789	-0.001156	0.000363	-0.020470	
63452	    0	9.936937	4.402144	-1.915414	-0.032999	-0.078206	-3.754073	0.100180	0.042143	-0.019122	0.999824	-0.000165	-0.000391	-0.018769	
63453	    0	11.580055	8.261798	-0.211321	-0.129706	-0.155456	-3.408216	0.117188	0.080627	-0.002075	0.999854	-0.000648	-0.000777	-0.017040	
63454	    0	13.011785	6.008607	-0.834717	-0.141340	-0.210389	-3.032992	0.131018	0.058098	-0.008251	0.999884	-0.000707	-0.001052	-0.015164	
63455	    0	13.621153	9.057918	-3.120870	-0.170904	-0.140194	-2.726831	0.137451	0.088684	-0.031189	0.999906	-0.000854	-0.000701	-0.013634	
63456	    0	11.730195	7.777200	-2.598391	-0.233083	-0.158504	-2.352007	0.118226	0.076355	-0.025980	0.999929	-0.001165	-0.000793	-0.011760	
63457	    0	10.424369	6.729211	-2.799997	-0.164035	-0.075342	-1.998172	0.104919	0.066223	-0.028015	0.999949	-0.000820	-0.000377	-0.009991	
63458	    0	11.786007	7.540731	-4.016390	-0.374798	0.018120	-1.563280	0.118441	0.074408	-0.040315	0.999968	-0.001874	0.000091	-0.007816	
63459	    0	15.783960	8.969904	-1.394695	-0.450710	0.093079	-1.242837	0.158386	0.088684	-0.014221	0.999977	-0.002254	0.000465	-0.006214	
63460	    0	18.045279	8.477738	0.774963	-0.558475	0.151635	-1.075751	0.180911	0.083826	0.007378	0.999981	-0.002792	0.000758	-0.005379	
63461	    0	19.355279	5.623193	2.958109	-0.657467	0.230409	-0.937658	0.193848	0.055420	0.029175	0.999983	-0.003287	0.001152	-0.004688	
63462	    0	19.688445	4.956612	2.720595	-0.779156	0.247766	-0.826459	0.197121	0.048857	0.026771	0.999983	-0.003896	0.001239	-0.004132	
63463	    0	20.185951	5.964618	1.749322	-1.040466	0.215150	-0.707250	0.202087	0.059021	0.016968	0.999979	-0.005202	0.001076	-0.003536	
63464	    0	20.129201	2.741459	1.413020	-1.499002	0.157930	-0.595290	0.201384	0.026919	0.013768	0.999967	-0.007495	0.000790	-0.002976	
63465	    0	19.211413	0.912661	0.629529	-2.024878	0.106241	-0.479898	0.192139	0.008728	0.006104	0.999946	-0.010124	0.000531	-0.002399	
63466	    0	18.794683	-1.120863	-0.205269	-2.602843	0.100329	-0.357638	0.187925	-0.011571	-0.001998	0.999913	-0.013014	0.000502	-0.001788	
63467	    0	17.369780	-1.971349	-1.121689	-2.726070	0.119976	-0.459304	0.173645	-0.020264	-0.011047	0.999904	-0.013630	0.000600	-0.002296	
63468	    0	16.342778	-6.115009	-3.201729	-2.668845	0.208098	-0.543802	0.163227	-0.062016	-0.031363	0.999907	-0.013344	0.001040	-0.002719	
63469	    0	14.175905	-8.294490	-3.954670	-2.264458	0.307663	-0.671403	0.141418	-0.083862	-0.038818	0.999928	-0.011322	0.001538	-0.003357	
63470	    0	12.115913	-8.700954	-4.359692	-1.826890	0.374610	-0.815787	0.120721	-0.087897	-0.043023	0.999948	-0.009134	0.001873	-0.004079	
63471	    0	9.228970	-8.878446	-3.613223	-1.209273	0.511366	-1.035321	0.091736	-0.089478	-0.035828	0.999965	-0.006046	0.002557	-0.005177	
63472	    0	7.239918	-6.948816	-3.568899	-0.472836	0.510030	-1.355566	0.071835	-0.070061	-0.035707	0.999970	-0.002364	0.002550	-0.006778	
63473	    0	6.530491	-6.300193	-2.708075	0.015259	0.607498	-1.657126	0.064697	-0.063538	-0.027283	0.999961	0.000076	0.003037	-0.008286	
63474	    0	6.480419	-4.302806	-1.195528	0.655953	0.821133	-2.156691	0.064285	-0.043683	-0.012362	0.999928	0.003280	0.004106	-0.010783	
63475	    0	8.841029	-2.076390	-0.629399	0.859867	1.018756	-2.806204	0.088074	-0.021973	-0.006836	0.999879	0.004299	0.005094	-0.014030	
63476	    0	9.986362	-4.497001	-3.016833	0.725402	1.094111	-3.243803	0.098950	-0.046469	-0.030878	0.999846	0.003627	0.005470	-0.016218	
63477	    0	10.269658	-7.789792	-4.181318	0.759360	1.083438	-3.526515	0.101074	-0.079529	-0.042664	0.999823	0.003797	0.005417	-0.017632	
63478	    0	14.021025	-5.225444	-4.381507	0.671049	0.931610	-3.800260	0.138979	-0.054754	-0.044645	0.999803	0.003355	0.004658	-0.019000	
63479	    0	14.197194	-5.764602	-3.154382	0.168048	0.810295	-3.889722	0.140686	-0.060364	-0.032166	0.999802	0.000840	0.004051	-0.019447	
63480	    0	13.330901	-7.405698	-2.581803	-0.537713	0.819064	-3.622458	0.131831	-0.076524	-0.026156	0.999824	-0.002688	0.004095	-0.018111	
63481	    0	14.833822	-9.668852	-2.300092	-1.177284	0.800561	-3.454028	0.146545	-0.099365	-0.023010	0.999825	-0.005886	0.004003	-0.017269	
63482	    0	16.543501	-9.474454	-3.177680	-1.412662	0.873997	-3.290935	0.163705	-0.097672	-0.031812	0.999829	-0.007063	0.004370	-0.016454	
63483	    0	19.419177	-7.222688	-4.249112	-1.267689	1.030593	-3.097502	0.192819	-0.075492	-0.043015	0.999846	-0.006338	0.005153	-0.015487	
63484	    0	20.425304	-5.276771	-4.504492	-0.972026	1.120996	-2.830054	0.203221	-0.055870	-0.045919	0.999872	-0.004860	0.005605	-0.014150	
63485	    0	20.152211	-3.771957	-4.014659	-0.703453	1.124037	-2.468190	0.200806	-0.040344	-0.041138	0.999902	-0.003517	0.005620	-0.012341	
63486	    0	19.477940	-3.343490	-3.426398	-0.759717	1.039723	-2.173291	0.194219	-0.035680	-0.035142	0.999920	-0.003798	0.005198	-0.010866	
63487	    0	16.355551	-3.584697	-2.879205	-1.209287	0.966857	-1.779216	0.163086	-0.037476	-0.029358	0.999930	-0.006046	0.004834	-0.008896	
63488	    0	12.620366	-3.236650	-3.259491	-1.431871	0.952546	-1.036661	0.125876	-0.033255	-0.032959	0.999949	-0.007159	0.004763	-0.005183	
63489	    0	9.675382	-2.344445	-3.912596	-1.312270	0.947772	-0.083161	0.096558	-0.023743	-0.039429	0.999967	-0.006561	0.004739	-0.000416	
63490	    0	7.963225	-1.412414	-3.783408	-0.960549	0.766761	0.722891	0.079537	-0.014019	-0.038072	0.999974	-0.004803	0.003834	0.003614	
63491	    0	6.880607	1.057135	-4.181296	-0.655182	0.596626	1.431291	0.068604	0.010925	-0.042053	0.999964	-0.003276	0.002983	0.007156	
63492	    0	6.152974	2.496125	-4.138957	-0.491344	0.425157	2.175950	0.061166	0.025526	-0.041582	0.999935	-0.002457	0.002126	0.010880	
63493	    0	5.800340	1.810038	-4.099164	-0.160032	0.242624	2.953447	0.057678	0.018921	-0.041077	0.999889	-0.000800	0.001213	0.014767	
63494	    0	5.375846	1.249745	-4.215834	0.398277	0.051120	3.688833	0.053504	0.013570	-0.042146	0.999827	0.001991	0.000256	0.018443	
63495	    0	5.476578	1.563700	-4.364357	0.927239	-0.178543	4.362087	0.054443	0.017029	-0.043518	0.999750	0.004636	-0.000893	0.021809	
63496	    0	5.790118	2.218414	-4.719085	1.371155	-0.428248	4.976066	0.057421	0.023939	-0.046907	0.999664	0.006855	-0.002141	0.024878	
63497	    0	6.385851	2.959166	-5.141491	1.552797	-0.661370	5.519107	0.063171	0.031738	-0.050964	0.999583	0.007763	-0.003306	0.027592	
63498	    0	6.884734	3.267819	-5.402626	1.577824	-0.878476	5.966962	0.068059	0.035140	-0.053455	0.999514	0.007888	-0.004392	0.029830	
63499	    0	7.861456	2.873442	-5.479612	1.509558	-1.091201	6.322861	0.077942	0.031616	-0.054138	0.999456	0.007546	-0.005455	0.031609	
63500	    0	8.624204	2.802823	-5.361686	1.431752	-1.315190	6.655882	0.085587	0.031264	-0.052836	0.999398	0.007157	-0.006575	0.033273	
63501	    0	9.192734	2.440518	-4.860766	1.271525	-1.546816	6.951131	0.091370	0.027893	-0.047729	0.999346	0.006356	-0.007732	0.034748	
63502	    0	10.536641	2.068692	-4.191972	1.141436	-1.770246	7.222735	0.104887	0.024716	-0.040856	0.999292	0.005706	-0.008849	0.036105	
63503	    0	12.265972	3.016875	-3.664692	1.031183	-1.960487	7.468777	0.121765	0.034912	-0.035278	0.999241	0.005155	-0.009800	0.037334	
63504	    0	13.899178	4.790897	-3.432510	0.900318	-2.135274	7.653750	0.137374	0.053337	-0.032620	0.999200	0.004500	-0.010674	0.038259	
63505	    0	15.277380	6.526591	-3.243791	0.761812	-2.271127	7.726869	0.150452	0.071228	-0.030457	0.999182	0.003808	-0.011353	0.038624	
63506	    0	16.216691	9.275916	-3.574901	0.773830	-2.340570	7.679159	0.158845	0.099034	-0.033502	0.999187	0.003868	-0.011700	0.038385	
63507	    0	17.527574	13.574431	-2.679065	0.455783	-2.250489	7.525287	0.170288	0.142273	-0.024536	0.999226	0.002278	-0.011250	0.037617	
63508	    0	18.303688	16.473105	-0.871055	-0.066773	-2.149906	7.270075	0.176970	0.171236	-0.006843	0.999281	-0.000334	-0.010747	0.036342	
63509	    0	18.965385	19.187658	1.529633	-0.584345	-1.963459	6.826701	0.182800	0.198242	0.016541	0.999365	-0.002921	-0.009815	0.034126	
63510	    0	19.265705	20.393002	4.407601	-0.926369	-1.688677	6.149593	0.185887	0.209922	0.044702	0.999480	-0.004631	-0.008442	0.030743	
63511	    0	18.820417	21.101246	4.709922	-0.672233	-1.399978	5.244337	0.182251	0.216003	0.047668	0.999625	-0.003361	-0.006999	0.026218	
63512	    0	16.492176	24.160732	2.364748	0.051121	-1.196952	4.103973	0.159773	0.244915	0.024676	0.999771	0.000256	-0.005984	0.020518	
63513	    0	11.966363	30.009867	1.435533	0.705936	-1.084941	2.723797	0.115479	0.301636	0.016052	0.999886	0.003530	-0.005424	0.013618	
63514	    0	7.720838	33.103921	3.816585	1.077860	-0.898948	1.341841	0.074808	0.331333	0.040291	0.999952	0.005389	-0.004495	0.006709	
63515	    0	7.827010	32.595799	7.259528	1.324475	-0.667387	0.086976	0.077881	0.325500	0.075012	0.999972	0.006622	-0.003337	0.000435	
63516	    0	9.348366	29.804098	9.493340	1.596286	-0.407798	-1.056307	0.094856	0.296771	0.097498	0.999951	0.007981	-0.002039	-0.005281	
63517	    0	10.143407	28.864075	6.052239	2.129446	-0.266085	-2.143179	0.104431	0.286865	0.063721	0.999885	0.010647	-0.001330	-0.010715	
63518	    0	12.791377	44.795971	-1.783119	2.470805	-0.333624	-3.844788	0.136518	0.445563	-0.012094	0.999737	0.012353	-0.001668	-0.019222	
63519	    0	16.802228	31.243087	-4.743975	-0.186936	-0.211924	-4.463568	0.174988	0.308533	-0.047546	0.999749	-0.000935	-0.001060	-0.022316	
63520	    0	20.901663	-18.710322	-3.279608	-2.264010	-0.065618	-3.698830	0.205515	-0.191280	-0.030579	0.999764	-0.011319	-0.000328	-0.018493	
63521	    0	24.240718	-16.227197	-5.982124	0.457238	-0.067909	-4.918408	0.238342	-0.168030	-0.060120	0.999695	0.002286	-0.000340	-0.024590	
63522	    0	27.869085	18.813483	-7.266495	2.939073	-0.057995	-6.427386	0.284586	0.180092	-0.069897	0.999375	0.014692	-0.000290	-0.032130	
63523	    0	26.236073	21.094032	5.805312	0.175698	0.461660	-6.503686	0.269165	0.202209	0.057617	0.999468	0.000878	0.002308	-0.032513	
63524	    0	3.142396	0.832467	7.940768	0.380185	0.007249	-5.610824	0.031641	0.007288	0.079421	0.999604	0.001901	0.000036	-0.028050	
63525	    0	4.127613	12.889820	3.490649	1.199481	-0.144022	-5.163416	0.044556	0.127563	0.035706	0.999648	0.005997	-0.000720	-0.025814	
63526	    0	6.540019	11.755711	-0.360717	0.056844	-0.257514	-4.467383	0.068008	0.116058	-0.003488	0.999749	0.000284	-0.001287	-0.022335	
63527	    0	9.272755	5.153826	-1.861048	-0.015832	-0.258654	-3.969836	0.093750	0.049683	-0.018494	0.999802	-0.000079	-0.001293	-0.019848	
63528	    0	11.019302	4.260500	-0.763458	0.228703	-0.294511	-3.583148	0.110944	0.040630	-0.007424	0.999837	0.001143	-0.001472	-0.017915	
63529	    0	11.437345	8.223633	0.633689	0.205240	-0.298132	-3.204485	0.115662	0.080383	0.006592	0.999869	0.001026	-0.001491	-0.016022	
63530	    0	11.824877	6.825377	0.172042	0.140767	-0.305568	-2.879434	0.119212	0.066541	0.001949	0.999894	0.000704	-0.001528	-0.014397	
63531	    0	11.667269	8.650449	-2.899355	0.100711	-0.241668	-2.549813	0.117798	0.085022	-0.028809	0.999917	0.000504	-0.001208	-0.012749	
63532	    0	10.967281	8.164257	-3.949237	-0.264554	-0.228123	-2.082100	0.110559	0.080442	-0.039474	0.999944	-0.001323	-0.001141	-0.010410	
63533	    0	10.952332	7.356870	-3.993260	-0.392728	-0.177767	-1.672384	0.110168	0.072571	-0.039978	0.999962	-0.001964	-0.000889	-0.008362	
63534	    0	10.887061	6.815143	-2.761775	-0.519757	-0.048256	-1.288424	0.109313	0.067376	-0.027767	0.999975	-0.002599	-0.000241	-0.006442	
63535	    0	12.946252	7.483605	-3.467177	-0.572017	0.042725	-0.986486	0.129822	0.074097	-0.034912	0.999983	-0.002860	0.000214	-0.004932	
63536	    0	16.595043	7.228132	-3.454281	-0.765041	0.130082	-0.725559	0.166188	0.071546	-0.034925	0.999986	-0.003825	0.000650	-0.003628	
63537	    0	19.954153	5.949478	0.354676	-0.831417	0.188447	-0.549319	0.199707	0.058960	0.003113	0.999987	-0.004157	0.000942	-0.002747	
63538	    0	21.111358	4.906713	1.878567	-1.082999	0.252916	-0.460818	0.211249	0.048680	0.018254	0.999982	-0.005415	0.001265	-0.002304	
63539	    0	20.588888	4.161927	2.579009	-1.379979	0.169374	-0.401310	0.205994	0.041382	0.025330	0.999973	-0.006900	0.000847	-0.002007	
63540	    0	21.090262	4.030924	2.179837	-1.766801	0.085069	-0.370221	0.210986	0.040109	0.021354	0.999959	-0.008834	0.000425	-0.001851	
63541	    0	19.846532	1.563088	2.217526	-2.370319	-0.043489	-0.331124	0.198486	0.015564	0.022034	0.999928	-0.011851	-0.000217	-0.001656	
63542	    0	17.960438	-1.739818	1.568497	-2.928458	-0.188262	-0.231370	0.179569	-0.017372	0.016109	0.999891	-0.014642	-0.000941	-0.001157	
63543	    0	17.007972	-2.714600	0.083604	-3.117498	-0.167663	-0.254832	0.170044	-0.027344	0.001404	0.999877	-0.015587	-0.000838	-0.001274	
63544	    0	16.790839	-4.676295	-1.185193	-3.014680	-0.045015	-0.350012	0.167829	-0.047228	-0.011105	0.999885	-0.015073	-0.000225	-0.001750	
63545	    0	15.296319	-7.040405	-4.003228	-2.608567	0.102428	-0.484481	0.152771	-0.071289	-0.039185	0.999911	-0.013042	0.000512	-0.002422	
63546	    0	12.731679	-7.270395	-5.532179	-2.155923	0.230222	-0.681129	0.127004	-0.073729	-0.054677	0.999935	-0.010779	0.001151	-0.003406	
63547	    0	9.717708	-8.508436	-5.626475	-1.610399	0.310521	-0.958266	0.096680	-0.085999	-0.055725	0.999954	-0.008052	0.001553	-0.004791	
63548	    0	7.282287	-7.644859	-4.832300	-0.860224	0.438886	-1.389520	0.072183	-0.077159	-0.048151	0.999964	-0.004301	0.002194	-0.006948	
63549	    0	6.360291	-6.625603	-3.773816	-0.185970	0.524911	-1.911958	0.062866	-0.066895	-0.037842	0.999950	-0.000930	0.002625	-0.009560	
63550	    0	5.437103	-3.932520	-2.157874	0.397884	0.636309	-2.493547	0.053806	-0.039955	-0.021830	0.999915	0.001989	0.003181	-0.012467	
63551	    0	6.858406	-1.448984	-1.411231	0.478574	0.747712	-3.062569	0.068298	-0.015503	-0.014404	0.999872	0.002393	0.003738	-0.015312	
63552	    0	8.173333	-4.577707	-2.499336	0.337809	0.848432	-3.396972	0.080833	-0.047112	-0.025416	0.999845	0.001689	0.004242	-0.016984	
63553	    0	9.372124	-8.123660	-3.384519	0.325986	0.959836	-3.682170	0.092041	-0.082886	-0.034424	0.999817	0.001630	0.004799	-0.018410	
63554	    0	10.058560	-9.095668	-3.272198	0.379207	0.955267	-3.969661	0.098597	-0.092864	-0.033371	0.999789	0.001896	0.004776	-0.019847	
63555	    0	14.663162	-4.785328	-2.632460	0.061231	0.874398	-4.277378	0.145447	-0.050964	-0.026978	0.999762	0.000306	0.004372	-0.021385	
63556	    0	14.931671	-6.363085	-0.331056	-0.413929	0.932580	-4.345682	0.147870	-0.066862	-0.003866	0.999750	-0.002069	0.004663	-0.021727	
63557	    0	15.853234	-7.210339	-0.117421	-0.652364	0.986748	-4.152239	0.156982	-0.075378	-0.001709	0.999766	-0.003262	0.004933	-0.020760	
63558	    0	17.375450	-7.844656	-0.288429	-0.939628	1.099093	-3.897185	0.172164	-0.081827	-0.003454	0.999784	-0.004698	0.005495	-0.019485	
63559	    0	20.218335	-7.358444	-1.770722	-1.014014	1.286592	-3.632595	0.200684	-0.077332	-0.018616	0.999801	-0.005070	0.006433	-0.018162	
63560	    0	23.366693	-6.905484	-3.806730	-0.591885	1.473322	-3.398332	0.232160	-0.073124	-0.039569	0.999824	-0.002959	0.007366	-0.016991	
63561	    0	23.222934	-6.340304	-5.079667	-0.098996	1.439737	-3.102263	0.230835	-0.067017	-0.052429	0.999853	-0.000495	0.007198	-0.015511	
63562	    0	20.639063	-4.686824	-4.723592	0.057795	1.278162	-2.712161	0.205422	-0.049644	-0.048565	0.999887	0.000289	0.006391	-0.013560	
63563	    0	18.047636	-2.640315	-3.837986	-0.283059	1.072915	-2.406381	0.179932	-0.028625	-0.039307	0.999911	-0.001415	0.005364	-0.012032	
63564	    0	13.959034	-1.743679	-3.437232	-0.964569	0.950263	-1.942680	0.139246	-0.018958	-0.034945	0.999928	-0.004823	0.004751	-0.009713	
63565	    0	10.338593	-1.611764	-4.263265	-1.561005	0.905055	-1.235987	0.103088	-0.017090	-0.042969	0.999940	-0.007805	0.004525	-0.006180	
63566	    0	8.311415	-2.249194	-5.258426	-1.640916	0.800526	-0.320248	0.082867	-0.023057	-0.052729	0.999956	-0.008204	0.004003	-0.001601	
63567	    0	7.360899	-1.810713	-5.404008	-1.393714	0.612647	0.472265	0.073486	-0.018311	-0.054138	0.999968	-0.006968	0.003063	0.002361	
63568	    0	6.533973	0.524383	-5.201050	-1.014720	0.320629	1.185430	0.065225	0.005366	-0.052142	0.999968	-0.005074	0.001603	0.005927	
63569	    0	5.918849	2.088895	-4.732376	-0.664532	0.102426	1.930270	0.058960	0.021301	-0.047424	0.999948	-0.003323	0.000512	0.009651	
63570	    0	5.639814	1.533853	-3.993504	-0.328455	-0.095370	2.688490	0.056205	0.016029	-0.039934	0.999907	-0.001642	-0.000477	0.013442	
63571	    0	5.293283	0.746855	-3.988770	0.188646	-0.321977	3.466973	0.052856	0.008423	-0.039795	0.999847	0.000943	-0.001610	0.017334	
63572	    0	5.556385	0.851352	-4.041925	0.586172	-0.552791	4.150891	0.055481	0.009784	-0.040238	0.999776	0.002931	-0.002764	0.020753	
63573	    0	5.804157	1.411191	-4.315928	0.894256	-0.845232	4.771906	0.057861	0.015686	-0.042847	0.999696	0.004471	-0.004226	0.023857	
63574	    0	6.389588	2.301513	-4.696638	1.092668	-1.086564	5.306728	0.063504	0.024959	-0.046488	0.999618	0.005463	-0.005432	0.026530	
63575	    0	7.329952	3.010032	-4.819280	1.099562	-1.295477	5.782430	0.072693	0.032471	-0.047546	0.999545	0.005497	-0.006476	0.028908	
63576	    0	8.339171	2.878705	-4.482740	0.798361	-1.452120	6.157201	0.082771	0.031519	-0.044103	0.999492	0.003991	-0.007259	0.030781	
63577	    0	9.217862	2.440277	-4.365221	0.497528	-1.610671	6.435818	0.091675	0.027466	-0.042847	0.999446	0.002487	-0.008052	0.032173	
63578	    0	9.740514	1.713453	-3.430843	0.236749	-1.797652	6.667128	0.097064	0.020414	-0.033412	0.999403	0.001184	-0.008986	0.033329	
63579	    0	10.760654	0.979402	-1.834433	0.127629	-1.979485	6.855703	0.107361	0.013489	-0.017273	0.999363	0.000638	-0.009895	0.034271	
63580	    0	12.023135	1.342325	-0.360798	0.142702	-2.130415	7.029779	0.119690	0.017639	-0.002319	0.999325	0.000713	-0.010650	0.035141	
63581	    0	13.326645	2.408143	0.961539	0.161209	-2.225255	7.175417	0.132171	0.028829	0.011112	0.999292	0.000806	-0.011124	0.035869	
63582	    0	14.196332	3.997384	1.561163	0.238475	-2.272576	7.211688	0.140210	0.045032	0.017263	0.999284	0.001192	-0.011360	0.036050	
63583	    0	14.905340	6.149970	1.931298	0.288650	-2.239758	7.196225	0.146484	0.066772	0.021057	0.999289	0.001443	-0.011196	0.035973	
63584	    0	15.735597	7.640078	2.970902	0.183911	-2.090362	7.118523	0.154183	0.081899	0.031405	0.999311	0.000919	-0.010449	0.035584	
63585	    0	16.402653	10.249642	3.638772	0.428865	-1.898416	6.961812	0.159973	0.108032	0.038147	0.999347	0.002144	-0.009490	0.034801	
63586	    0	17.419635	14.963369	4.963085	0.750880	-1.611264	6.637544	0.168698	0.155103	0.051580	0.999410	0.003754	-0.008055	0.033181	
63587	    0	17.907262	18.948903	5.617991	1.130104	-1.304656	6.124385	0.172791	0.194519	0.058411	0.999494	0.005650	-0.006522	0.030617	
63588	    0	18.085549	21.459016	5.010550	1.538101	-0.993099	5.363228	0.174766	0.218933	0.052656	0.999599	0.007689	-0.004965	0.026813	
63589	    0	16.808287	25.192650	2.878653	1.870905	-0.773503	4.319410	0.162476	0.255188	0.031799	0.999715	0.009354	-0.003867	0.021595	
63590	    0	13.446195	30.053988	1.560341	1.846607	-0.615536	3.096372	0.129735	0.302409	0.018794	0.999832	0.009233	-0.003078	0.015481	
63591	    0	9.130041	34.191224	1.974232	1.640362	-0.484288	1.783035	0.088196	0.342529	0.022766	0.999923	0.008202	-0.002421	0.008915	
63592	    0	6.595845	35.421486	3.460651	1.248179	-0.305750	0.553326	0.064923	0.354170	0.036917	0.999975	0.006241	-0.001529	0.002767	
63593	    0	7.462428	32.340243	3.707194	1.155098	-0.168420	-0.486759	0.075378	0.322998	0.039001	0.999980	0.005775	-0.000842	-0.002434	
63594	    0	8.154139	32.735424	1.704666	1.314949	-0.059510	-1.556614	0.084080	0.326585	0.019220	0.999948	0.006575	-0.000298	-0.007783	
63595	    0	9.611485	43.073647	-2.696014	1.913561	-0.161562	-3.150356	0.102905	0.429382	-0.022766	0.999829	0.009567	-0.000808	-0.015751	
63596	    0	15.867223	49.042925	-6.042942	-0.083167	-0.132953	-4.404043	0.169458	0.486752	-0.060522	0.999756	-0.000416	-0.000665	-0.022018	
63597	    0	22.057853	5.406404	-9.188284	-2.690400	0.139823	-4.160735	0.221558	0.048218	-0.092712	0.999692	-0.013451	0.000699	-0.020802	
63598	    0	21.920785	-14.874880	-16.338729	0.387426	-0.214982	-5.146217	0.215466	-0.154009	-0.163449	0.999666	0.001937	-0.001075	-0.025728	
63599	    0	30.214886	8.430684	-7.174165	1.802599	0.045022	-6.540408	0.304688	0.075012	-0.071106	0.999424	0.009011	0.000225	-0.032696	
63600	    0	19.230349	15.715119	7.595945	-0.176458	0.394504	-6.224116	0.197219	0.151131	0.075438	0.999513	-0.000882	0.001972	-0.031116	
63601	    0	6.360475	9.974255	9.164048	0.445615	0.005532	-5.564840	0.066345	0.097717	0.091858	0.999610	0.002228	0.000028	-0.027821	
63602	    0	5.171509	12.583019	5.278971	0.513704	0.015070	-5.062649	0.054879	0.124331	0.053106	0.999676	0.002568	0.000075	-0.025311	
63603	    0	6.917782	7.496233	-0.865049	0.093086	-0.028803	-4.386491	0.070801	0.073425	-0.008606	0.999759	0.000465	-0.000144	-0.021931	
63604	    0	10.881865	6.464741	-3.085490	0.094802	-0.064854	-3.986241	0.110088	0.062476	-0.030789	0.999801	0.000474	-0.000324	-0.019930	
63605	    0	10.895830	4.858658	0.023747	0.178728	-0.157937	-3.570747	0.109802	0.046631	0.000366	0.999840	0.000894	-0.000790	-0.017853	
63606	    0	13.072592	7.918876	0.617058	0.161369	-0.207147	-3.261902	0.131988	0.077038	0.006370	0.999866	0.000807	-0.001036	-0.016309	
63607	    0	12.334626	7.740973	-1.263873	-0.086215	-0.158506	-2.871803	0.124451	0.075623	-0.012573	0.999896	-0.000431	-0.000793	-0.014359	
63608	    0	12.906326	9.693787	-2.446433	-0.244719	-0.153736	-2.486866	0.130274	0.095293	-0.024482	0.999921	-0.001224	-0.000769	-0.012434	
63609	    0	12.505537	8.131975	-2.171626	-0.363166	-0.115778	-2.108042	0.125916	0.079956	-0.021790	0.999942	-0.001816	-0.000579	-0.010540	
63610	    0	13.175095	7.562166	-2.517196	-0.424391	-0.075341	-1.718353	0.132403	0.074432	-0.025281	0.999960	-0.002122	-0.000377	-0.008592	
63611	    0	14.662846	7.597232	-3.786287	-0.592810	0.000191	-1.402296	0.147156	0.074829	-0.038086	0.999970	-0.002964	0.000001	-0.007011	
63612	    0	17.726032	7.035611	-1.807426	-0.784308	0.055123	-1.087960	0.177634	0.069319	-0.018396	0.999977	-0.003922	0.000276	-0.005440	
63613	    0	19.642878	7.121507	1.324874	-0.772100	0.099374	-0.968939	0.196777	0.070312	0.012878	0.999980	-0.003860	0.000497	-0.004845	
63614	    0	21.670096	5.718057	2.872632	-0.934798	0.156594	-0.849157	0.216964	0.056393	0.028292	0.999979	-0.004674	0.000783	-0.004246	
63615	    0	20.695328	3.237410	2.548167	-1.206981	0.137521	-0.761420	0.207092	0.031738	0.025146	0.999974	-0.006035	0.000688	-0.003807	
63616	    0	20.195786	2.156160	1.494389	-1.485650	0.102616	-0.646789	0.202034	0.021018	0.014683	0.999967	-0.007428	0.000513	-0.003234	
63617	    0	20.264577	1.812325	0.343599	-1.942286	0.088502	-0.569163	0.202698	0.017578	0.003174	0.999949	-0.009711	0.000443	-0.002846	
63618	    0	19.576433	-1.592866	-1.038093	-2.557827	0.061037	-0.461591	0.195724	-0.016512	-0.010232	0.999915	-0.012789	0.000305	-0.002308	
63619	    0	16.675151	-5.037923	-1.860002	-2.809238	0.069621	-0.469224	0.166626	-0.051025	-0.017944	0.999898	-0.014046	0.000348	-0.002346	
63620	    0	15.746278	-4.837104	-3.276680	-2.690973	0.095180	-0.601788	0.157300	-0.049280	-0.032183	0.999905	-0.013454	0.000476	-0.003009	
63621	    0	13.670388	-6.583419	-4.452519	-2.458831	0.170140	-0.759909	0.136414	-0.066895	-0.043823	0.999916	-0.012294	0.000851	-0.003799	
63622	    0	11.408310	-8.850620	-4.236359	-2.007907	0.304991	-0.919743	0.113609	-0.089450	-0.041642	0.999937	-0.010039	0.001525	-0.004599	
63623	    0	8.143885	-9.777318	-3.378953	-1.284807	0.411420	-1.139083	0.080811	-0.098450	-0.033325	0.999961	-0.006424	0.002057	-0.005695	
63624	    0	6.878539	-6.971994	-3.975217	-0.446897	0.474554	-1.487367	0.068170	-0.070317	-0.039758	0.999967	-0.002234	0.002373	-0.007437	
63625	    0	5.828293	-4.885481	-3.038937	0.186351	0.495156	-1.902802	0.057739	-0.049377	-0.030579	0.999950	0.000932	0.002476	-0.009514	
63626	    0	4.992044	-2.428386	-2.470237	0.505079	0.616089	-2.354873	0.049554	-0.024806	-0.024918	0.999923	0.002525	0.003080	-0.011774	
63627	    0	8.293814	-1.597401	-1.369238	0.347341	0.765257	-2.903095	0.082642	-0.017151	-0.014038	0.999886	0.001737	0.003826	-0.014515	
63628	    0	10.221140	-2.439591	-3.275990	-0.047686	0.854344	-3.355957	0.101642	-0.026113	-0.033189	0.999849	-0.000238	0.004272	-0.016779	
63629	    0	10.219874	-6.244997	-4.444058	-0.278298	1.004850	-3.591365	0.100830	-0.064331	-0.044861	0.999825	-0.001391	0.005024	-0.017956	
63630	    0	15.066103	-5.172493	-5.293089	-0.257509	0.909482	-3.813417	0.149395	-0.054650	-0.053543	0.999806	-0.001287	0.004547	-0.019066	
63631	    0	14.331628	-7.508163	-3.355436	-0.425558	0.852261	-3.921012	0.141663	-0.077942	-0.033997	0.999796	-0.002128	0.004261	-0.019604	
63632	    0	13.664461	-8.149490	-1.449100	-0.861606	0.892317	-3.790916	0.135001	-0.084127	-0.014737	0.999801	-0.004308	0.004461	-0.018953	
63633	    0	15.380950	-9.122569	-0.655870	-1.136093	0.896705	-3.737891	0.152039	-0.094116	-0.006714	0.999799	-0.005680	0.004483	-0.018688	
63634	    0	16.175501	-8.343626	-1.679084	-1.272476	0.927986	-3.648998	0.160117	-0.086475	-0.016993	0.999802	-0.006362	0.004640	-0.018244	
63635	    0	19.126717	-6.976371	-2.806260	-1.209140	1.113195	-3.409780	0.189880	-0.073181	-0.028687	0.999821	-0.006045	0.005566	-0.017048	
63636	    0	21.834877	-6.180302	-2.440702	-0.833172	1.225151	-3.136601	0.217189	-0.065320	-0.025473	0.999849	-0.004166	0.006125	-0.015682	
63637	    0	21.329421	-4.729720	-3.368914	-0.520918	1.098677	-2.847404	0.212402	-0.050415	-0.034729	0.999880	-0.002604	0.005493	-0.014236	
63638	    0	18.304118	-3.139220	-3.361523	-0.885612	1.005779	-2.499283	0.182457	-0.033826	-0.034388	0.999899	-0.004428	0.005029	-0.012496	
63639	    0	14.609617	-2.019622	-2.847215	-1.297605	0.901819	-2.011926	0.145752	-0.021851	-0.028992	0.999918	-0.006488	0.004509	-0.010059	
63640	    0	9.898595	-2.160528	-2.308506	-1.175897	0.782787	-1.147858	0.098768	-0.022309	-0.023342	0.999957	-0.005879	0.003914	-0.005739	
63641	    0	8.774784	-1.721727	-2.009071	-0.640681	0.660708	-0.396730	0.087646	-0.017456	-0.020325	0.999987	-0.003203	0.003304	-0.001984	
63642	    0	7.760404	-0.171698	-2.890859	-0.220299	0.506783	0.277710	0.077533	-0.001641	-0.029103	0.999994	-0.001101	0.002534	0.001389	
63643	    0	7.081700	1.565541	-3.423318	-0.085450	0.347330	0.991063	0.070679	0.015991	-0.034363	0.999986	-0.000427	0.001737	0.004955	
63644	    0	6.158795	1.758768	-3.538359	0.174715	0.158503	1.764321	0.061401	0.018161	-0.035417	0.999960	0.000874	0.000793	0.008821	
63645	    0	5.689045	1.927154	-3.447772	0.605218	0.021363	2.484962	0.056641	0.020081	-0.034424	0.999918	0.003026	0.000107	0.012424	
63646	    0	5.372325	2.772882	-3.439963	0.950858	-0.146301	3.217085	0.053291	0.028751	-0.034225	0.999859	0.004754	-0.000731	0.016085	
63647	    0	5.388185	3.292134	-3.823953	1.130182	-0.317405	3.901179	0.053284	0.034180	-0.037964	0.999792	0.005651	-0.001587	0.019505	
63648	    0	5.575611	3.227871	-4.448156	1.263737	-0.515795	4.536862	0.055115	0.033813	-0.044128	0.999719	0.006318	-0.002579	0.022682	
