// Start Time: Unknown
// Update Rate: 100.0Hz
// Filter Profile: human (34.3)
// Firmware Version: 2.1.4
PacketCounter	SampleTimeFine	Acc_X	Acc_Y	Acc_Z	Gyr_X	Gyr_Y	Gyr_Z	VelInc_X	VelInc_Y	VelInc_Z	OriInc_q0	OriInc_q1	OriInc_q2	OriInc_q3	
 8263	    0	2.570723	-9.267269	1.152401	-0.465203	0.161743	-0.045013	0.025696	-0.092651	0.011719	0.999996	-0.002326	0.000809	-0.000225	
 8264	    0	2.727434	-8.978077	0.632405	-0.366402	0.193024	0.206757	0.027373	-0.089741	0.006462	0.999997	-0.001832	0.000965	0.001034	
 8265	    0	2.587849	-7.702983	0.223463	-0.288392	0.202370	0.470734	0.026062	-0.076965	0.002319	0.999995	-0.001442	0.001012	0.002354	
 8266	    0	3.095011	-6.459439	-0.062110	-0.149918	0.247956	0.751688	0.031192	-0.064478	-0.000611	0.999991	-0.000750	0.001240	0.003758	
 8267	    0	3.569246	-5.546612	-0.608900	-0.090027	0.219918	0.953678	0.035950	-0.055298	-0.006104	0.999988	-0.000450	0.001100	0.004768	
 8268	    0	4.225236	-3.469907	-2.126988	0.032997	0.116730	1.183326	0.042444	-0.034445	-0.021300	0.999982	0.000165	0.000584	0.005917	
 8269	    0	6.397570	-2.541826	-3.545057	0.115205	-0.011253	1.355754	0.064148	-0.024963	-0.035461	0.999976	0.000576	-0.000056	0.006779	
 8270	    0	10.171697	-2.726223	-4.945084	0.268939	-0.128556	1.432050	0.101940	-0.026466	-0.049421	0.999972	0.001345	-0.000643	0.007160	
 8271	    0	14.771651	-2.594743	-6.404351	0.458531	-0.184442	1.380170	0.147949	-0.024780	-0.063965	0.999972	0.002293	-0.000922	0.006901	
 8272	    0	20.581431	-2.392586	-6.211290	0.551419	-0.178148	1.299106	0.206018	-0.022417	-0.061993	0.999974	0.002757	-0.000891	0.006495	
 8273	    0	25.440138	-0.268239	-4.122629	0.479893	-0.216486	1.263438	0.254456	-0.000977	-0.040955	0.999976	0.002399	-0.001082	0.006317	
 8274	    0	25.430808	5.670444	-2.712467	0.609025	-0.372129	1.638244	0.253881	0.058867	-0.026475	0.999960	0.003045	-0.001861	0.008191	
 8275	    0	23.387264	5.995544	-3.169925	0.651565	-0.526250	2.197316	0.233276	0.062622	-0.030884	0.999930	0.003258	-0.002631	0.010986	
 8276	    0	23.660865	5.421135	-4.004708	0.637264	-0.644702	2.473521	0.236040	0.057259	-0.039106	0.999913	0.003186	-0.003223	0.012367	
 8277	    0	24.873103	6.577204	-4.132704	0.622005	-0.769066	2.474286	0.248047	0.068970	-0.040161	0.999910	0.003110	-0.003845	0.012371	
 8278	    0	25.495026	8.145890	-4.570345	0.548380	-0.919943	2.511293	0.254106	0.084776	-0.044304	0.999907	0.002742	-0.004600	0.012556	
 8279	    0	25.514042	8.347013	-4.479156	0.561542	-1.051175	2.561273	0.254272	0.086853	-0.043213	0.999900	0.002808	-0.005256	0.012806	
 8280	    0	25.371045	8.076470	-3.663356	0.839455	-1.062813	2.629757	0.252807	0.084242	-0.034940	0.999890	0.004197	-0.005314	0.013148	
 8281	    0	24.375719	8.556358	-2.850575	1.213313	-0.869023	2.732197	0.242676	0.089050	-0.026917	0.999878	0.006066	-0.004345	0.013660	
 8282	    0	22.321717	9.166779	-2.513437	1.456132	-0.530647	2.797627	0.221969	0.094955	-0.023861	0.999871	0.007280	-0.002653	0.013988	
 8283	    0	19.290823	9.529267	-1.921216	1.582403	-0.201997	2.753565	0.191589	0.098083	-0.018250	0.999873	0.007912	-0.001010	0.013767	
 8284	    0	16.678582	9.084383	-0.861035	1.552260	-0.010491	2.621371	0.165576	0.093082	-0.007885	0.999884	0.007761	-0.000052	0.013106	
 8285	    0	13.876558	9.161482	0.545317	1.513152	0.162512	2.450646	0.137634	0.093262	0.006042	0.999895	0.007565	0.000813	0.012253	
 8286	    0	11.267711	9.195752	1.136634	1.497890	0.337421	2.348214	0.111608	0.093184	0.011872	0.999901	0.007489	0.001687	0.011741	
 8287	    0	9.120120	9.684728	1.044613	1.321449	0.499167	2.214114	0.090149	0.097778	0.010864	0.999913	0.006607	0.002496	0.011070	
 8288	    0	7.136197	9.856750	0.643854	0.950835	0.553144	2.073526	0.070354	0.099269	0.006714	0.999930	0.004754	0.002766	0.010367	
 8289	    0	5.207267	10.353930	2.565752	0.715079	0.582134	1.927222	0.051147	0.103943	0.025879	0.999943	0.003575	0.002911	0.009636	
 8290	    0	3.680255	7.687971	1.034496	0.160983	0.412375	1.876669	0.036100	0.077212	0.010332	0.999953	0.000805	0.002062	0.009383	
 8291	    0	2.730881	8.745356	0.723061	-0.515564	0.348668	1.759364	0.026550	0.087708	0.006958	0.999956	-0.002578	0.001743	0.008797	
 8292	    0	1.708948	7.198641	0.488061	-1.126498	0.215725	1.605441	0.016516	0.072146	0.004457	0.999950	-0.005632	0.001079	0.008027	
 8293	    0	0.769698	7.115907	0.992735	-1.640161	0.127413	1.406125	0.007202	0.071289	0.009338	0.999941	-0.008201	0.000637	0.007030	
 8294	    0	-0.495745	5.487104	0.960755	-1.945347	-0.044061	1.172663	-0.005281	0.054931	0.009072	0.999935	-0.009727	-0.000220	0.005863	
 8295	    0	-1.621332	4.299052	0.569704	-1.980440	-0.274664	0.920124	-0.016418	0.042969	0.005249	0.999939	-0.009902	-0.001373	0.004601	
 8296	    0	-2.445148	2.082503	-1.556776	-1.577019	-0.779545	0.627718	-0.024455	0.020624	-0.015826	0.999956	-0.007885	-0.003898	0.003139	
 8297	    0	-2.651370	-1.011744	-2.809834	-1.560812	-1.366450	0.293737	-0.026306	-0.010376	-0.028198	0.999945	-0.007804	-0.006832	0.001469	
 8298	    0	-2.178875	-3.313182	-3.310816	-2.164153	-1.901311	-0.050546	-0.021483	-0.033484	-0.032952	0.999896	-0.010820	-0.009506	-0.000253	
 8299	    0	-0.455449	-4.009489	-3.212688	-2.759693	-2.133097	-0.282302	-0.004272	-0.040527	-0.031616	0.999846	-0.013798	-0.010665	-0.001411	
 8300	    0	1.546188	-5.157192	-1.523202	-2.366734	-2.020537	-0.261508	0.015543	-0.051766	-0.014463	0.999878	-0.011833	-0.010102	-0.001307	
 8301	    0	3.562031	-7.799544	-0.249022	-1.124400	-1.580835	0.021363	0.035645	-0.078003	-0.001770	0.999952	-0.005622	-0.007904	0.000107	
 8302	    0	5.169571	-10.565025	-2.875480	0.074387	-0.880817	0.397302	0.052032	-0.105536	-0.028565	0.999988	0.000372	-0.004404	0.001987	
 8303	    0	4.625103	-9.914909	-7.235987	0.727275	-0.114441	0.560762	0.046570	-0.098755	-0.072693	0.999989	0.003636	-0.000572	0.002804	
 8304	    0	3.371262	-6.060248	-8.639076	1.114473	0.588612	0.548749	0.033623	-0.060027	-0.086825	0.999976	0.005572	0.002943	0.002744	
 8305	    0	2.819214	-2.549922	-6.738142	1.747354	1.062031	0.479135	0.027893	-0.024841	-0.067749	0.999945	0.008737	0.005310	0.002396	
 8306	    0	2.462621	-2.381861	-3.880084	2.551931	1.305244	0.407996	0.024419	-0.023270	-0.039260	0.999895	0.012759	0.006526	0.002040	
 8307	    0	2.441404	-3.433886	-2.789165	3.418350	1.256631	0.331134	0.024292	-0.033813	-0.028625	0.999832	0.017091	0.006283	0.001656	
 8308	    0	3.360265	-2.474342	-1.562429	5.344505	1.474951	0.316661	0.033522	-0.024257	-0.016524	0.999614	0.026719	0.007374	0.001583	
 8309	    0	2.670899	-0.167371	4.290197	4.351596	0.953754	0.306727	0.026917	-0.002563	0.042725	0.999750	0.021756	0.004768	0.001534	
 8310	    0	7.732627	7.726953	2.233649	1.462951	-0.360492	-0.283626	0.077394	0.076993	0.023040	0.999970	0.007315	-0.001802	-0.001418	
 8311	    0	23.273420	-8.951521	-14.231210	-0.328639	-1.267253	0.440220	0.233826	-0.089233	-0.140686	0.999975	-0.001643	-0.006336	0.002201	
 8312	    0	21.806994	-10.470534	-8.157017	0.638774	-0.824742	0.430109	0.218629	-0.103976	-0.081002	0.999984	0.003194	-0.004124	0.002151	
 8313	    0	11.362731	21.124641	-1.285682	1.300822	-0.335505	0.288393	0.113342	0.211487	-0.011292	0.999976	0.006504	-0.001678	0.001442	
 8314	    0	12.483120	23.466808	-0.317628	-0.083351	-0.464058	-0.190735	0.125062	0.234548	-0.002984	0.999996	-0.000417	-0.002320	-0.000954	
 8315	    0	11.098124	12.455732	-0.665669	-0.573543	-0.317385	-1.033026	0.111633	0.123962	-0.006836	0.999981	-0.002868	-0.001587	-0.005165	
 8316	    0	13.270559	3.052129	-1.013207	0.263790	-0.195315	-1.729225	0.132973	0.029386	-0.009963	0.999961	0.001319	-0.000977	-0.008646	
 8317	    0	13.753070	13.304365	-1.436221	0.849937	-0.186734	-2.356782	0.139099	0.131470	-0.013672	0.999921	0.004250	-0.000934	-0.011784	
 8318	    0	13.925382	16.861713	-3.381870	0.690664	-0.138667	-2.043955	0.140991	0.167297	-0.033142	0.999941	0.003453	-0.000693	-0.010220	
 8319	    0	16.692364	10.284397	-2.339648	0.437172	-0.122645	-2.026404	0.167969	0.101196	-0.023071	0.999946	0.002186	-0.000613	-0.010132	
 8320	    0	19.640695	6.858572	-3.142961	0.662820	-0.042726	-2.351438	0.197203	0.066374	-0.031165	0.999925	0.003314	-0.000214	-0.011757	
 8321	    0	20.492822	6.051517	-3.609021	0.621242	-0.018311	-2.573470	0.205688	0.057983	-0.035889	0.999912	0.003106	-0.000092	-0.012867	
 8322	    0	20.348601	8.726392	-4.824637	0.296030	-0.025559	-2.750294	0.204667	0.084526	-0.048094	0.999904	0.001480	-0.000128	-0.013751	
 8323	    0	19.497357	10.460996	-4.961017	-0.249490	0.005532	-2.922163	0.196472	0.101685	-0.049744	0.999892	-0.001247	0.000028	-0.014610	
 8324	    0	19.449692	8.128786	-4.324420	-0.884284	0.094799	-3.041967	0.195681	0.078125	-0.043687	0.999874	-0.004421	0.000474	-0.015209	
 8325	    0	19.418349	4.098886	-2.986784	-1.432109	0.193987	-3.138126	0.194763	0.037720	-0.030334	0.999850	-0.007160	0.000970	-0.015690	
 8326	    0	19.836084	1.153763	-1.623913	-1.795875	0.316066	-3.294376	0.198487	0.008121	-0.016636	0.999823	-0.008979	0.001580	-0.016471	
 8327	    0	19.552555	0.543812	-0.844142	-1.794353	0.513490	-3.358666	0.195557	0.002075	-0.008972	0.999815	-0.008971	0.002567	-0.016792	
 8328	    0	18.410668	0.307363	-0.596499	-1.936272	0.635187	-3.316516	0.184103	-0.000041	-0.006559	0.999810	-0.009681	0.003176	-0.016582	
 8329	    0	17.125827	-1.504100	-0.774559	-2.241473	0.656934	-3.218291	0.170959	-0.017883	-0.008118	0.999802	-0.011207	0.003284	-0.016090	
 8330	    0	15.454582	-2.937444	-1.284378	-2.325777	0.683828	-3.050997	0.154028	-0.031878	-0.013010	0.999809	-0.011628	0.003419	-0.015254	
 8331	    0	13.555166	-4.376746	-2.403755	-2.275025	0.686685	-2.841349	0.134827	-0.045959	-0.023987	0.999828	-0.011374	0.003433	-0.014206	
 8332	    0	11.415516	-6.057530	-3.681811	-2.157891	0.658450	-2.618729	0.113225	-0.062457	-0.036525	0.999850	-0.010789	0.003292	-0.013093	
 8333	    0	8.965884	-8.354426	-5.004726	-1.907998	0.582909	-2.395727	0.088501	-0.085083	-0.049500	0.999878	-0.009540	0.002914	-0.011978	
 8334	    0	6.673410	-9.565298	-5.493966	-1.332894	0.541321	-2.198092	0.065527	-0.096742	-0.054476	0.999913	-0.006664	0.002707	-0.010990	
 8335	    0	5.221318	-10.242208	-5.360624	-0.560581	0.579082	-2.008096	0.051025	-0.103088	-0.053467	0.999941	-0.002803	0.002895	-0.010040	
 8336	    0	4.371605	-11.843917	-4.709385	0.248722	0.586138	-1.877815	0.042463	-0.118783	-0.047367	0.999950	0.001244	0.002931	-0.009389	
 8337	    0	3.128131	-13.136618	-4.560935	0.717365	0.405890	-1.763181	0.030029	-0.131470	-0.046143	0.999952	0.003587	0.002029	-0.008816	
 8338	    0	2.100406	-13.567514	-4.095663	0.583846	0.183298	-1.576633	0.019897	-0.135715	-0.041371	0.999964	0.002919	0.000916	-0.007883	
 8339	    0	1.289638	-15.030473	-3.853943	0.289347	0.006867	-1.321421	0.011902	-0.150330	-0.038757	0.999977	0.001447	0.000034	-0.006607	
 8340	    0	0.710524	-14.812717	-2.086785	0.337411	-0.016022	-0.936321	0.006413	-0.148123	-0.021117	0.999988	0.001687	-0.000080	-0.004682	
 8341	    0	0.955191	-12.264368	1.605316	0.187874	0.165558	-0.469208	0.009277	-0.122681	0.015930	0.999996	0.000939	0.000828	-0.002346	
 8342	    0	1.775751	-11.663371	3.815494	-0.445366	0.220299	0.030518	0.017817	-0.116546	0.038395	0.999996	-0.002227	0.001101	0.000153	
 8343	    0	3.314525	-11.180016	3.737239	-0.797847	0.222016	0.466158	0.033447	-0.111572	0.037781	0.999989	-0.003989	0.001110	0.002331	
 8344	    0	5.040356	-8.719561	1.809384	-0.739674	0.294687	0.762371	0.050762	-0.086935	0.018341	0.999985	-0.003698	0.001473	0.003812	
 8345	    0	6.366334	-6.469477	0.451748	-0.534633	0.350955	1.100166	0.064026	-0.064331	0.004578	0.999979	-0.002673	0.001755	0.005501	
 8346	    0	7.225363	-5.827239	-0.143601	-0.339702	0.324443	1.468864	0.072677	-0.057742	-0.001455	0.999969	-0.001698	0.001622	0.007344	
 8347	    0	8.604553	-5.172192	-1.282403	-0.189212	0.238231	1.783014	0.086487	-0.050964	-0.012878	0.999959	-0.000946	0.001191	0.008915	
 8348	    0	10.624741	-3.746269	-2.461678	-0.117495	0.111200	2.012668	0.106604	-0.036406	-0.024654	0.999949	-0.000587	0.000556	0.010063	
 8349	    0	13.422177	-2.948103	-3.290363	-0.007439	-0.006867	2.092018	0.134521	-0.028076	-0.032898	0.999945	-0.000037	-0.000034	0.010460	
 8350	    0	17.085232	-2.331939	-4.090510	-0.028229	-0.065614	2.033459	0.171091	-0.021586	-0.040846	0.999948	-0.000141	-0.000328	0.010167	
 8351	    0	20.648967	-1.105200	-3.657652	-0.306706	-0.119593	1.890593	0.206604	-0.009155	-0.036438	0.999953	-0.001534	-0.000598	0.009453	
 8352	    0	22.487098	2.754430	-2.793542	-0.332266	-0.308042	1.974330	0.224627	0.029716	-0.027637	0.999949	-0.001661	-0.001540	0.009871	
 8353	    0	23.343816	4.740425	-3.761669	-0.082972	-0.505077	2.282004	0.232971	0.050049	-0.037048	0.999931	-0.000415	-0.002525	0.011410	
 8354	    0	24.007402	5.105434	-4.601213	-0.033761	-0.661679	2.591210	0.239536	0.054152	-0.045228	0.999910	-0.000169	-0.003308	0.012956	
 8355	    0	24.176775	6.420898	-4.548812	0.123600	-0.789479	2.759647	0.241028	0.067566	-0.044495	0.999896	0.000618	-0.003947	0.013798	
 8356	    0	24.204315	6.999855	-5.044665	0.245104	-0.929677	2.854455	0.241241	0.073506	-0.049235	0.999887	0.001225	-0.004648	0.014272	
 8357	    0	23.962058	7.656350	-5.564109	0.422876	-1.066632	2.894709	0.238770	0.080139	-0.054199	0.999878	0.002114	-0.005333	0.014473	
 8358	    0	23.259902	8.741290	-5.557627	0.610760	-1.222283	2.953469	0.231606	0.091004	-0.053885	0.999867	0.003054	-0.006111	0.014767	
 8359	    0	22.325807	9.377675	-5.413571	0.916525	-1.192532	3.049616	0.222107	0.097412	-0.052368	0.999855	0.004582	-0.005962	0.015247	
 8360	    0	21.119128	9.631787	-4.968343	1.279323	-0.893066	3.112569	0.209872	0.099902	-0.048113	0.999848	0.006396	-0.004465	0.015562	
 8361	    0	19.078892	9.610967	-3.323495	1.679506	-0.515010	3.014527	0.189392	0.099243	-0.031921	0.999847	0.008397	-0.002575	0.015072	
 8362	    0	16.293610	9.025773	-1.727066	1.971723	-0.255025	2.806420	0.161668	0.092695	-0.016158	0.999851	0.009858	-0.001275	0.014031	
 8363	    0	13.635961	9.254686	-0.647759	2.095315	-0.093846	2.495685	0.135193	0.094299	-0.005432	0.999866	0.010476	-0.000469	0.012478	
 8364	    0	10.686282	9.572556	0.341700	2.163402	0.158889	2.237983	0.105786	0.096869	0.004376	0.999878	0.010817	0.000794	0.011189	
 8365	    0	8.316597	10.100180	0.858350	2.021287	0.360883	2.027963	0.082153	0.101746	0.009460	0.999895	0.010106	0.001804	0.010139	
 8366	    0	6.283594	10.543313	0.234739	1.624339	0.436412	1.782653	0.061899	0.105965	0.003071	0.999925	0.008121	0.002182	0.008913	
 8367	    0	4.537911	10.825891	2.832812	1.401546	0.426682	1.520567	0.044617	0.108398	0.028992	0.999944	0.007008	0.002133	0.007603	
 8368	    0	3.003063	9.504912	0.588780	0.543027	0.256350	1.391806	0.029376	0.095239	0.006108	0.999970	0.002715	0.001282	0.006959	
 8369	    0	2.530514	10.077594	1.240498	-0.215723	0.225832	1.309977	0.024658	0.100952	0.012268	0.999977	-0.001079	0.001129	0.006550	
 8370	    0	2.298579	9.251449	1.181306	-0.953493	0.124551	1.214421	0.022430	0.092707	0.011357	0.999969	-0.004767	0.000623	0.006072	
 8371	    0	1.626315	7.987110	1.738865	-1.506826	0.014687	0.988020	0.015869	0.080078	0.016785	0.999959	-0.007534	0.000073	0.004940	
 8372	    0	0.632274	5.480518	2.560421	-1.756504	-0.131609	0.764859	0.006096	0.055051	0.025126	0.999953	-0.008782	-0.000658	0.003824	
 8373	    0	0.072962	3.086078	3.478314	-1.534288	-0.267604	0.469976	0.000610	0.031128	0.034546	0.999967	-0.007671	-0.001338	0.002350	
 8374	    0	0.037054	0.778212	2.916837	-1.326381	-0.453571	0.150873	0.000299	0.007976	0.029117	0.999974	-0.006632	-0.002268	0.000754	
 8375	    0	-0.219062	-0.653549	0.038791	-1.531050	-0.971998	-0.141909	-0.002197	-0.006531	0.000427	0.999958	-0.007655	-0.004860	-0.000710	
 8376	    0	-0.051251	-1.900102	-2.896349	-2.347837	-1.632747	-0.359738	-0.000312	-0.019339	-0.028741	0.999896	-0.011739	-0.008163	-0.001799	
 8377	    0	1.414023	-2.998909	-5.644017	-3.289052	-2.076854	-0.479157	0.014648	-0.030945	-0.055786	0.999807	-0.016444	-0.010384	-0.002396	
 8378	    0	2.166752	-4.729267	-5.926573	-3.281232	-2.118056	-0.451880	0.022180	-0.048304	-0.058246	0.999806	-0.016405	-0.010590	-0.002259	
 8379	    0	2.468124	-8.248718	-5.012685	-2.699214	-1.928037	-0.316635	0.025024	-0.083191	-0.048767	0.999861	-0.013495	-0.009640	-0.001583	
 8380	    0	3.410851	-10.894017	-3.916341	-1.704441	-1.392583	0.005913	0.034379	-0.109266	-0.037994	0.999939	-0.008522	-0.006963	0.000030	
 8381	    0	4.193553	-10.831271	-4.606932	-0.701717	-0.743870	0.354006	0.042297	-0.108398	-0.045532	0.999985	-0.003509	-0.003719	0.001770	
 8382	    0	4.540596	-8.706985	-5.953635	0.105286	-0.148010	0.575066	0.045700	-0.086907	-0.059548	0.999995	0.000526	-0.000740	0.002875	
 8383	    0	4.344229	-6.885603	-6.177253	0.783733	0.424959	0.605014	0.043518	-0.068481	-0.062134	0.999985	0.003919	0.002125	0.003025	
 8384	    0	4.298161	-6.217595	-5.396481	1.651789	0.748646	0.568208	0.042953	-0.061604	-0.054636	0.999954	0.008259	0.003743	0.002841	
 8385	    0	4.238768	-8.622977	-5.264683	2.777390	0.847656	0.461595	0.042358	-0.085388	-0.054016	0.999891	0.013886	0.004238	0.002308	
 8386	    0	6.027063	-8.389524	-5.956904	5.115723	1.232291	0.498448	0.060100	-0.082179	-0.062057	0.999650	0.025576	0.006161	0.002492	
 8387	    0	7.976843	-4.684907	5.204207	5.194734	1.436983	0.793555	0.080322	-0.047852	0.050232	0.999629	0.025970	0.007184	0.003967	
 8388	    0	11.744094	-1.898815	3.976246	3.165568	0.061991	0.043299	0.117457	-0.019588	0.039419	0.999874	0.015827	0.000310	0.000216	
 8389	    0	17.201477	-8.810497	-7.865882	1.555654	-0.842869	0.318150	0.172485	-0.087219	-0.078613	0.999959	0.007778	-0.004214	0.001591	
 8390	    0	13.286955	1.110720	-2.322353	2.101944	-0.646605	0.600446	0.132909	0.011746	-0.022673	0.999934	0.010509	-0.003233	0.003002	
 8391	    0	6.882305	28.355479	-3.884669	1.879913	-0.311094	0.453193	0.068237	0.284058	-0.036072	0.999951	0.009399	-0.001555	0.002266	
 8392	    0	8.211315	30.359203	-0.064746	-0.769618	-0.598147	-0.088692	0.082252	0.303551	-0.001570	0.999988	-0.003848	-0.002991	-0.000443	
 8393	    0	11.844921	16.551480	-0.452308	-1.592091	-0.680554	-1.038378	0.119324	0.164856	-0.005432	0.999949	-0.007960	-0.003403	-0.005192	
 8394	    0	14.614732	6.588653	-1.857245	-0.616275	-0.393493	-1.889643	0.146797	0.064445	-0.018484	0.999949	-0.003081	-0.001967	-0.009448	
 8395	    0	17.573374	10.396967	-2.342652	0.128368	-0.258643	-2.535317	0.177063	0.101746	-0.023132	0.999918	0.000642	-0.001293	-0.012676	
 8396	    0	19.348739	12.020132	-3.475393	0.458729	-0.136951	-2.372990	0.194920	0.117973	-0.034348	0.999927	0.002294	-0.000685	-0.011865	
 8397	    0	19.663901	8.487615	-2.616694	0.560773	-0.054742	-2.215624	0.197571	0.082764	-0.025879	0.999934	0.002804	-0.000274	-0.011078	
 8398	    0	20.153967	6.909300	-3.130766	0.596825	0.007439	-2.396263	0.202348	0.066765	-0.031114	0.999924	0.002984	0.000037	-0.011981	
 8399	    0	19.833316	7.833200	-4.896914	0.264938	-0.039674	-2.603987	0.199341	0.075806	-0.048828	0.999914	0.001325	-0.000198	-0.013020	
 8400	    0	18.945584	10.212787	-6.735636	-0.409330	-0.093654	-2.753919	0.190868	0.099368	-0.067472	0.999903	-0.002047	-0.000468	-0.013769	
 8401	    0	19.846016	9.880632	-6.937017	-1.145222	-0.098996	-3.017557	0.199951	0.095398	-0.069824	0.999869	-0.005726	-0.000495	-0.015087	
 8402	    0	20.502054	6.368063	-6.118150	-1.689812	-0.004769	-3.200133	0.206000	0.059870	-0.061693	0.999836	-0.008449	-0.000024	-0.016000	
 8403	    0	21.987210	0.986388	-4.732377	-2.065980	0.080114	-3.306789	0.219971	0.005737	-0.047485	0.999809	-0.010329	0.000401	-0.016533	
 8404	    0	22.473915	-1.608376	-2.695008	-1.887630	0.248543	-3.362102	0.224390	-0.020113	-0.027052	0.999813	-0.009438	0.001243	-0.016809	
 8405	    0	21.552724	-2.219679	-0.728258	-1.549432	0.443294	-3.424277	0.215088	-0.025940	-0.007568	0.999821	-0.007747	0.002216	-0.017120	
 8406	    0	19.683099	-1.981336	0.146448	-1.470270	0.568042	-3.400048	0.196460	-0.023147	0.001068	0.999824	-0.007351	0.002840	-0.016999	
 8407	    0	17.647368	-1.449352	0.243819	-1.625728	0.632514	-3.311350	0.176208	-0.017395	0.002014	0.999825	-0.008128	0.003162	-0.016556	
 8408	    0	16.205255	-1.068242	-0.091731	-1.906315	0.709003	-3.139679	0.161854	-0.013236	-0.001373	0.999825	-0.009531	0.003545	-0.015697	
 8409	    0	14.928220	-1.729172	-0.558150	-2.223144	0.734754	-2.917651	0.148987	-0.019531	-0.005920	0.999825	-0.011115	0.003674	-0.014587	
 8410	    0	13.417425	-3.082012	-1.979011	-2.435631	0.721591	-2.660901	0.133675	-0.032843	-0.019881	0.999830	-0.012177	0.003608	-0.013304	
 8411	    0	11.617436	-5.583665	-3.966359	-2.510775	0.622591	-2.434668	0.115356	-0.057739	-0.039307	0.999842	-0.012553	0.003113	-0.012173	
 8412	    0	9.357101	-7.496598	-4.589032	-2.358926	0.615339	-2.251919	0.092575	-0.076549	-0.045280	0.999862	-0.011794	0.003077	-0.011259	
 8413	    0	7.049751	-8.139212	-3.648149	-1.891202	0.700403	-2.075268	0.069519	-0.082458	-0.035950	0.999895	-0.009456	0.003502	-0.010376	
 8414	    0	5.001593	-8.894300	-3.428667	-1.264984	0.752276	-1.884505	0.049046	-0.089623	-0.033907	0.999928	-0.006325	0.003761	-0.009422	
 8415	    0	3.244333	-9.987379	-4.773556	-0.846877	0.711262	-1.679258	0.031433	-0.100342	-0.047424	0.999949	-0.004234	0.003556	-0.008396	
 8416	    0	2.356796	-10.774384	-5.776335	-0.676926	0.615318	-1.439684	0.022614	-0.108104	-0.057468	0.999963	-0.003385	0.003077	-0.007198	
 8417	    0	2.004633	-11.987104	-5.120722	-0.498776	0.580602	-1.221477	0.019165	-0.120117	-0.050964	0.999973	-0.002494	0.002903	-0.006107	
 8418	    0	1.466834	-13.463197	-4.443452	-0.247384	0.454142	-0.950436	0.013927	-0.134754	-0.044300	0.999985	-0.001237	0.002271	-0.004752	
 8419	    0	0.823259	-13.252413	-2.024353	-0.175477	0.363351	-0.670625	0.007751	-0.132568	-0.020142	0.999991	-0.000877	0.001817	-0.003353	
 8420	    0	0.835854	-11.965712	1.321721	-0.173760	0.354386	-0.406838	0.008139	-0.119662	0.013307	0.999995	-0.000869	0.001772	-0.002034	
 8421	    0	1.498934	-10.396423	1.926691	-0.319672	0.319100	-0.128174	0.014954	-0.103943	0.019409	0.999997	-0.001598	0.001595	-0.000641	
 8422	    0	2.416264	-8.513511	1.141443	-0.484467	0.299836	0.144577	0.024241	-0.085090	0.011584	0.999995	-0.002422	0.001499	0.000723	
 8423	    0	2.558826	-7.448590	0.962964	-0.639345	0.318337	0.411226	0.025757	-0.074402	0.009827	0.999991	-0.003197	0.001592	0.002056	
 8424	    0	2.356100	-6.548024	1.085847	-0.786976	0.367929	0.680355	0.023804	-0.065356	0.011072	0.999985	-0.003935	0.001840	0.003402	
 8425	    0	2.635769	-6.429981	0.612626	-0.857360	0.405124	0.940711	0.026672	-0.064148	0.006348	0.999977	-0.004287	0.002026	0.004704	
 8426	    0	3.374410	-6.052929	0.045329	-0.733382	0.440792	1.169978	0.034099	-0.060328	0.000600	0.999973	-0.003667	0.002204	0.005850	
 8427	    0	3.985816	-5.452369	-0.718024	-0.440220	0.401501	1.392378	0.040222	-0.054260	-0.007141	0.999970	-0.002201	0.002007	0.006962	
 8428	    0	4.425158	-4.608294	-2.798301	-0.041962	0.282100	1.619548	0.044583	-0.045729	-0.028036	0.999966	-0.000210	0.001410	0.008098	
 8429	    0	5.790726	-3.326957	-4.853852	0.387579	0.147440	1.795985	0.058167	-0.032654	-0.048645	0.999957	0.001938	0.000737	0.008980	
 8430	    0	8.690567	-3.004308	-6.718890	0.596056	-0.020790	1.814107	0.087179	-0.029053	-0.067267	0.999954	0.002980	-0.000104	0.009070	
 8431	    0	13.111916	-2.625594	-8.158835	0.577553	-0.180628	1.702904	0.131409	-0.024902	-0.081543	0.999959	0.002888	-0.000903	0.008514	
 8432	    0	18.669898	-2.457332	-8.184262	0.567442	-0.289920	1.491944	0.186993	-0.022947	-0.081638	0.999967	0.002837	-0.001450	0.007460	
 8433	    0	25.135163	-0.346635	-6.301038	0.672156	-0.314906	1.278698	0.251465	-0.001648	-0.062622	0.999972	0.003361	-0.001575	0.006393	
 8434	    0	28.929806	6.712059	-4.524762	1.004425	-0.418097	1.536392	0.288863	0.069565	-0.044298	0.999955	0.005022	-0.002090	0.007682	
 8435	    0	25.355550	7.625599	-4.621647	1.036289	-0.509657	2.207241	0.252808	0.079285	-0.045166	0.999922	0.005181	-0.002548	0.011036	
 8436	    0	23.332530	6.447939	-5.032414	1.104773	-0.583859	2.514540	0.232633	0.067681	-0.049276	0.999901	0.005524	-0.002919	0.012572	
 8437	    0	24.288442	6.707731	-5.294417	1.172870	-0.743892	2.568145	0.242188	0.070496	-0.051636	0.999893	0.005864	-0.003719	0.012840	
 8438	    0	24.796808	8.064376	-5.801893	1.186225	-0.919568	2.616219	0.247144	0.084218	-0.056389	0.999886	0.005931	-0.004598	0.013081	
 8439	    0	24.643719	8.945974	-6.038337	1.195002	-1.108596	2.656663	0.245544	0.093079	-0.058472	0.999878	0.005975	-0.005543	0.013283	
 8440	    0	24.314335	9.368496	-5.422610	1.351797	-1.220757	2.689861	0.242173	0.097303	-0.052096	0.999867	0.006759	-0.006104	0.013449	
 8441	    0	23.309542	9.840287	-4.460187	1.690947	-1.092583	2.773421	0.231934	0.101990	-0.042480	0.999853	0.008454	-0.005463	0.013866	
 8442	    0	22.240687	10.179206	-3.882469	1.995192	-0.806088	2.842672	0.221078	0.105315	-0.036893	0.999841	0.009975	-0.004030	0.014213	
 8443	    0	20.027395	9.825749	-3.107606	2.157133	-0.515774	2.745199	0.198975	0.101318	-0.029480	0.999844	0.010785	-0.002579	0.013725	
 8444	    0	17.465649	9.267920	-2.069237	2.213011	-0.270284	2.537848	0.173487	0.095105	-0.019414	0.999857	0.011065	-0.001351	0.012689	
 8445	    0	14.544053	9.380466	-0.521347	2.282242	0.028230	2.299600	0.144348	0.095520	-0.004150	0.999868	0.011411	0.000141	0.011497	
 8446	    0	11.431284	9.984245	0.345058	2.217953	0.272380	2.124108	0.113250	0.101004	0.004412	0.999881	0.011089	0.001362	0.010620	
 8447	    0	9.306152	11.161281	2.368840	2.114370	0.464646	1.922675	0.092041	0.112244	0.024658	0.999895	0.010571	0.002323	0.009613	
 8448	    0	7.043899	9.669596	1.615886	1.547088	0.463497	1.796385	0.069606	0.097196	0.016747	0.999927	0.007735	0.002317	0.008982	
 8449	    0	5.739262	9.677925	1.889971	0.837148	0.495155	1.647211	0.056641	0.097168	0.019165	0.999954	0.004186	0.002476	0.008236	
 8450	    0	3.972529	8.065946	2.753781	0.484854	0.431066	1.544398	0.039161	0.080896	0.027649	0.999965	0.002424	0.002155	0.007722	
 8451	    0	3.360312	6.240216	2.528520	0.139619	0.361827	1.425184	0.033203	0.062622	0.025269	0.999972	0.000698	0.001809	0.007126	
 8452	    0	2.492766	5.906311	1.803128	-0.385096	0.244524	1.232728	0.024585	0.059250	0.017887	0.999978	-0.001925	0.001223	0.006164	
 8453	    0	1.126610	5.553725	1.804321	-0.764471	0.150491	1.054390	0.010986	0.055664	0.017822	0.999978	-0.003822	0.000752	0.005272	
 8454	    0	-0.328695	4.750619	1.838283	-0.859457	0.081635	0.895315	-0.003492	0.047569	0.018180	0.999980	-0.004297	0.000408	0.004477	
 8455	    0	-1.039084	3.045991	2.386378	-0.784305	-0.028801	0.680545	-0.010498	0.030518	0.023743	0.999986	-0.003922	-0.000144	0.003403	
 8456	    0	-1.052488	-0.017122	2.259784	-0.780871	-0.254632	0.433160	-0.010553	-0.000106	0.022585	0.999989	-0.003904	-0.001273	0.002166	
 8457	    0	-0.849109	-1.833423	-1.503599	-1.245128	-0.761993	0.121308	-0.008423	-0.018433	-0.014954	0.999972	-0.006226	-0.003810	0.000607	
 8458	    0	-0.861621	-2.127114	-4.507381	-2.256461	-1.458403	-0.140957	-0.008304	-0.021772	-0.044891	0.999909	-0.011282	-0.007292	-0.000705	
 8459	    0	0.071384	-2.596704	-4.770484	-2.966281	-2.072258	-0.345631	0.001160	-0.026672	-0.047302	0.999834	-0.014831	-0.010361	-0.001728	
 8460	    0	1.342680	-3.841287	-2.909540	-2.952366	-2.252901	-0.453212	0.013661	-0.038866	-0.028371	0.999825	-0.014761	-0.011264	-0.002266	
 8461	    0	1.825005	-6.206917	-0.373568	-2.359110	-2.146050	-0.305952	0.018188	-0.062134	-0.002808	0.999871	-0.011795	-0.010730	-0.001530	
 8462	    0	2.705655	-7.592903	-1.741775	-1.384190	-1.651224	0.127223	0.027245	-0.076029	-0.016667	0.999941	-0.006921	-0.008256	0.000636	
 8463	    0	3.475562	-6.849686	-5.917977	-0.244714	-0.776675	0.500490	0.035156	-0.068481	-0.058960	0.999989	-0.001224	-0.003883	0.002502	
 8464	    0	3.410425	-5.811202	-8.023777	0.733760	0.229264	0.589373	0.034183	-0.057716	-0.080489	0.999988	0.003669	0.001146	0.002947	
 8465	    0	2.808576	-5.065193	-6.806505	1.384180	0.925457	0.492102	0.027893	-0.050110	-0.068542	0.999962	0.006921	0.004627	0.002460	
 8466	    0	2.658376	-4.377706	-4.168684	1.905673	1.151109	0.398263	0.026428	-0.043324	-0.042253	0.999935	0.009528	0.005755	0.001991	
 8467	    0	3.132610	-5.319183	-2.163901	2.483635	1.048311	0.382244	0.031311	-0.052856	-0.022461	0.999907	0.012418	0.005241	0.001911	
 8468	    0	5.567662	-6.818973	-4.564250	4.411703	1.169498	0.447312	0.055553	-0.067032	-0.047455	0.999737	0.022057	0.005847	0.002236	
 8469	    0	8.746196	-6.009476	4.110198	4.145388	1.375120	0.713407	0.087952	-0.060608	0.039246	0.999755	0.020725	0.006875	0.003567	
 8470	    0	13.153218	-2.088688	6.104721	1.780534	0.023079	-0.088311	0.131530	-0.021487	0.060843	0.999960	0.008903	0.000115	-0.000442	
 8471	    0	18.077092	-7.735885	-6.366948	0.873571	-0.719265	0.398257	0.181152	-0.076721	-0.063354	0.999982	0.004368	-0.003596	0.001991	
 8472	    0	13.652149	-3.400943	-6.798233	1.670482	-0.520142	0.829328	0.136836	-0.032875	-0.067904	0.999952	0.008352	-0.002601	0.004147	
 8473	    0	7.911766	23.057861	-4.345706	1.857023	-0.288968	0.436408	0.078674	0.231140	-0.041199	0.999953	0.009285	-0.001445	0.002182	
 8474	    0	7.220371	32.758263	-1.763974	-0.547983	-0.601770	-0.179863	0.072553	0.327468	-0.018319	0.999990	-0.002740	-0.003009	-0.000899	
 8475	    0	10.229613	19.918078	-2.356912	-1.377125	-0.660524	-1.023879	0.103394	0.198486	-0.024597	0.999957	-0.006886	-0.003303	-0.005119	
 8476	    0	15.017077	8.041317	-3.216651	-0.585376	-0.484094	-1.968611	0.151030	0.078835	-0.032034	0.999944	-0.002927	-0.002420	-0.009843	
 8477	    0	18.326072	10.375018	-3.044688	0.152784	-0.434890	-2.797030	0.184753	0.101196	-0.029968	0.999899	0.000764	-0.002174	-0.013985	
 8478	    0	19.700777	13.153359	-4.044077	0.601405	-0.291261	-2.591973	0.198750	0.129086	-0.039762	0.999910	0.003007	-0.001456	-0.012959	
 8479	    0	20.292490	8.822060	-2.303343	0.796721	-0.163273	-2.391116	0.203979	0.085876	-0.022522	0.999920	0.003983	-0.000816	-0.011955	
 8480	    0	21.132025	5.773649	-1.324719	1.106870	-0.023270	-2.562606	0.212039	0.055095	-0.012913	0.999902	0.005534	-0.000116	-0.012813	
 8481	    0	21.472003	7.201408	-2.686826	1.152083	0.023080	-2.799332	0.215698	0.069153	-0.026489	0.999885	0.005760	0.000115	-0.013996	
 8482	    0	20.330601	11.560521	-4.881104	0.565550	-0.026132	-2.963941	0.204997	0.112713	-0.048463	0.999886	0.002828	-0.000131	-0.014819	
 8483	    0	20.776942	12.588826	-5.277487	-0.504325	-0.044825	-3.231956	0.209778	0.122375	-0.053040	0.999866	-0.002522	-0.000224	-0.016159	
 8484	    0	21.269164	8.862911	-5.199935	-1.384813	0.011254	-3.409769	0.214154	0.084623	-0.052607	0.999830	-0.006924	0.000056	-0.017048	
 8485	    0	22.479388	3.219545	-3.676663	-2.116537	0.082594	-3.419725	0.225281	0.027954	-0.037170	0.999797	-0.010582	0.000413	-0.017097	
 8486	    0	22.618627	-0.218202	-1.877373	-2.237286	0.262279	-3.434613	0.226077	-0.006277	-0.019015	0.999788	-0.011186	0.001311	-0.017172	
 8487	    0	21.250319	-2.174312	0.156210	-1.950772	0.486024	-3.392249	0.212097	-0.025330	0.001282	0.999805	-0.009753	0.002430	-0.016960	
 8488	    0	19.101786	-2.748950	0.181863	-1.844328	0.574147	-3.311551	0.190533	-0.030632	0.001544	0.999816	-0.009221	0.002871	-0.016557	
 8489	    0	16.717274	-1.574851	-0.751778	-2.104127	0.574529	-3.190811	0.166870	-0.018494	-0.007812	0.999813	-0.010520	0.002872	-0.015953	
 8490	    0	14.759559	-1.499695	-1.895543	-2.405699	0.560796	-2.984806	0.147294	-0.017426	-0.019169	0.999812	-0.012028	0.002804	-0.014923	
 8491	    0	13.039941	-3.984290	-2.821822	-2.558289	0.499946	-2.754376	0.129761	-0.041992	-0.028015	0.999820	-0.012791	0.002500	-0.013771	
 8492	    0	11.179801	-6.736847	-3.750551	-2.444395	0.452828	-2.531375	0.110846	-0.069229	-0.036919	0.999843	-0.012221	0.002264	-0.012656	
 8493	    0	9.454780	-8.606741	-4.537659	-2.187251	0.411242	-2.320199	0.093445	-0.087646	-0.044617	0.999870	-0.010936	0.002056	-0.011600	
 8494	    0	7.476234	-9.324645	-4.714308	-1.861638	0.399794	-2.192002	0.073638	-0.094492	-0.046415	0.999894	-0.009308	0.001999	-0.010960	
 8495	    0	5.139403	-9.707266	-4.132215	-1.478427	0.434125	-2.073727	0.050293	-0.097900	-0.040710	0.999916	-0.007392	0.002171	-0.010368	
 8496	    0	3.360798	-10.337884	-3.684866	-0.944347	0.509272	-1.892318	0.032534	-0.103863	-0.036443	0.999940	-0.004722	0.002546	-0.009461	
 8497	    0	2.479920	-10.963398	-3.738147	-0.482756	0.447851	-1.660941	0.023804	-0.109924	-0.037170	0.999960	-0.002414	0.002239	-0.008305	
 8498	    0	2.050670	-11.600655	-3.667138	-0.367359	0.325397	-1.436057	0.019613	-0.116217	-0.036490	0.999970	-0.001837	0.001627	-0.007180	
 8499	    0	1.608359	-12.374817	-4.094486	-0.299646	0.156404	-1.181801	0.015320	-0.123901	-0.040771	0.999981	-0.001498	0.000782	-0.005909	
 8500	    0	0.893609	-12.931533	-2.689049	-0.420191	0.073624	-0.897602	0.008346	-0.129410	-0.026622	0.999988	-0.002101	0.000368	-0.004488	
 8501	    0	0.555882	-12.222101	1.358215	-0.648501	0.050545	-0.612642	0.005188	-0.122192	0.013977	0.999990	-0.003242	0.000253	-0.003063	
 8502	    0	1.225413	-10.768500	3.773027	-0.854877	0.035477	-0.275613	0.012113	-0.107539	0.038188	0.999990	-0.004274	0.000177	-0.001378	
 8503	    0	2.236868	-9.509524	3.572420	-0.996212	0.030518	0.054169	0.022400	-0.094910	0.036194	0.999987	-0.004981	0.000153	0.000271	
 8504	    0	2.798380	-8.562144	2.285269	-0.995831	0.083161	0.351907	0.028144	-0.085457	0.023267	0.999986	-0.004979	0.000416	0.001760	
 8505	    0	2.798680	-7.926386	1.516692	-0.910955	0.174142	0.654606	0.028259	-0.079102	0.015503	0.999984	-0.004555	0.000871	0.003273	
 8506	    0	2.869286	-7.295758	0.866395	-0.756269	0.201990	0.953108	0.029049	-0.072786	0.008910	0.999981	-0.003781	0.001010	0.004766	
 8507	    0	3.524070	-6.521882	-0.219762	-0.481991	0.193788	1.247415	0.035645	-0.065002	-0.002075	0.999977	-0.002410	0.000969	0.006237	
 8508	    0	4.587568	-5.575222	-1.930504	-0.208285	0.144006	1.523033	0.046285	-0.055421	-0.019280	0.999969	-0.001041	0.000720	0.007615	
 8509	    0	5.989954	-4.147979	-4.551613	0.274662	0.068856	1.741813	0.060242	-0.040894	-0.045593	0.999961	0.001373	0.000344	0.008709	
 8510	    0	8.198222	-2.910403	-6.455422	0.763906	-0.085641	1.833755	0.082271	-0.028104	-0.064628	0.999950	0.003819	-0.000428	0.009169	
 8511	    0	13.043812	-2.464378	-7.395902	0.905815	-0.233463	1.801331	0.130737	-0.023132	-0.073914	0.999949	0.004529	-0.001167	0.009007	
 8512	    0	19.400876	-1.540651	-7.180765	0.704584	-0.224117	1.653503	0.194206	-0.013549	-0.071640	0.999958	0.003523	-0.001121	0.008267	
 8513	    0	24.108918	0.593378	-4.662604	0.218394	-0.242617	1.567094	0.241089	0.007874	-0.046326	0.999968	0.001092	-0.001213	0.007835	
 8514	    0	24.802536	6.694883	-0.937398	-0.093271	-0.480468	1.798084	0.247432	0.069171	-0.008811	0.999956	-0.000466	-0.002402	0.008990	
 8515	    0	21.259915	7.676074	-1.449639	-0.057222	-0.626198	2.327022	0.211731	0.079224	-0.013855	0.999927	-0.000286	-0.003131	0.011635	
 8516	    0	20.800509	5.029716	-2.124188	0.085261	-0.702307	2.593882	0.207402	0.052999	-0.020491	0.999909	0.000426	-0.003511	0.012969	
 8517	    0	23.072045	4.843639	-1.757648	0.369464	-0.818658	2.485729	0.230164	0.051331	-0.016541	0.999912	0.001847	-0.004093	0.012428	
 8518	    0	24.339203	6.938746	-2.591219	0.487342	-0.988990	2.424884	0.242650	0.072393	-0.024537	0.999910	0.002437	-0.004945	0.012124	
 8519	    0	24.717278	8.110808	-3.380671	0.447097	-1.180114	2.471240	0.246338	0.084229	-0.032166	0.999904	0.002235	-0.005900	0.012356	
 8520	    0	25.042935	8.101495	-3.200352	0.638412	-1.294373	2.553268	0.249566	0.084303	-0.030121	0.999892	0.003192	-0.006472	0.012766	
 8521	    0	24.833463	8.426880	-2.912587	0.954474	-1.253368	2.620036	0.247375	0.087646	-0.027161	0.999883	0.004772	-0.006267	0.013100	
 8522	    0	23.370386	8.776444	-2.535593	1.201870	-1.009983	2.718656	0.232603	0.091077	-0.023639	0.999876	0.006009	-0.005050	0.013593	
 8523	    0	21.038083	9.414915	-1.802225	1.406347	-0.652341	2.766534	0.209106	0.097168	-0.016663	0.999874	0.007031	-0.003262	0.013832	
 8524	    0	18.319256	9.022333	-1.103466	1.512780	-0.342574	2.715794	0.181962	0.092778	-0.010027	0.999877	0.007564	-0.001713	0.013578	
 8525	    0	15.927969	8.798527	-0.316536	1.462036	-0.166327	2.551362	0.158142	0.090027	-0.002380	0.999891	0.007310	-0.000832	0.012756	
 8526	    0	13.001906	9.052437	0.431440	1.408622	0.016213	2.394753	0.128923	0.092039	0.004949	0.999903	0.007043	0.000081	0.011973	
 8527	    0	10.402881	9.964844	0.604003	1.252209	0.148777	2.247682	0.102905	0.100769	0.006592	0.999916	0.006261	0.000744	0.011238	
 8528	    0	8.207484	10.699645	-0.703238	0.852603	0.253111	2.084395	0.080945	0.107873	-0.006677	0.999935	0.004263	0.001266	0.010422	
 8529	    0	6.494110	9.833517	1.776556	0.815025	0.315100	1.911961	0.064026	0.098877	0.018066	0.999945	0.004075	0.001575	0.009560	
 8530	    0	5.045911	7.381852	-0.565775	0.128748	0.131418	1.807238	0.049786	0.074274	-0.005643	0.999958	0.000644	0.000657	0.009036	
 8531	    0	4.153382	7.143548	0.807851	-0.124933	0.185396	1.637287	0.040955	0.071777	0.007996	0.999966	-0.000625	0.000927	0.008186	
 8532	    0	3.284028	5.159530	0.333283	-0.323489	0.075722	1.462378	0.032463	0.051839	0.003237	0.999971	-0.001617	0.000379	0.007312	
 8533	    0	2.271842	5.442924	0.136844	-0.744444	0.051880	1.169596	0.022400	0.054565	0.001160	0.999975	-0.003722	0.000259	0.005848	
 8534	    0	0.833329	4.989839	1.172974	-0.973709	0.034142	0.996979	0.008086	0.049995	0.011485	0.999975	-0.004869	0.000171	0.004985	
 8535	    0	-0.124537	3.752537	1.828861	-0.854497	-0.093651	0.798039	-0.001404	0.037598	0.018127	0.999982	-0.004272	-0.000468	0.003990	
 8536	    0	-1.128520	2.523307	-0.654142	-0.838475	-0.439265	0.566867	-0.011342	0.025173	-0.006672	0.999985	-0.004192	-0.002196	0.002834	
 8537	    0	-1.656564	1.133059	-2.422012	-1.082430	-0.874336	0.358585	-0.016479	0.011169	-0.024353	0.999973	-0.005412	-0.004372	0.001793	
 8538	    0	-1.544800	-1.677495	-1.560227	-1.085486	-1.360529	0.091172	-0.015334	-0.016867	-0.015615	0.999962	-0.005427	-0.006803	0.000456	
 8539	    0	-0.472018	-3.982620	-2.774068	-1.576842	-1.756328	-0.192265	-0.004517	-0.040039	-0.027466	0.999929	-0.007884	-0.008781	-0.000961	
 8540	    0	1.233354	-4.474004	-2.035388	-1.986184	-1.862775	-0.347530	0.012442	-0.044960	-0.019793	0.999906	-0.009931	-0.009314	-0.001738	
 8541	    0	2.996533	-5.378998	0.148793	-1.503022	-1.631771	-0.384530	0.029846	-0.053833	0.002136	0.999936	-0.007515	-0.008159	-0.001923	
 8542	    0	3.815021	-7.794196	0.535507	-0.399592	-1.083952	-0.138474	0.038066	-0.077957	0.005717	0.999983	-0.001998	-0.005420	-0.000692	
 8543	    0	4.074022	-8.653946	-2.021030	0.624849	-0.463678	0.245667	0.040894	-0.086426	-0.020386	0.999991	0.003124	-0.002318	0.001228	
 8544	    0	4.181210	-6.782968	-6.056285	1.170166	0.177385	0.447467	0.041909	-0.067380	-0.060995	0.999980	0.005851	0.000887	0.002237	
 8545	    0	3.545016	-5.430048	-7.722881	1.464099	0.767717	0.467688	0.035278	-0.053650	-0.077759	0.999963	0.007320	0.003839	0.002338	
 8546	    0	3.688882	-4.838823	-5.426168	2.086502	1.282344	0.435077	0.036642	-0.047737	-0.054997	0.999922	0.010432	0.006412	0.002175	
 8547	    0	3.510437	-7.634477	-3.933023	2.586455	1.226277	0.463120	0.035034	-0.075745	-0.040527	0.999894	0.012932	0.006131	0.002316	
 8548	    0	5.094823	-8.229007	-8.055300	4.274345	1.243886	0.520559	0.050650	-0.080407	-0.082601	0.999748	0.021370	0.006219	0.002603	
 8549	    0	9.467234	-3.964318	4.487555	4.918493	1.811625	1.040010	0.095276	-0.040222	0.043030	0.999642	0.024590	0.009057	0.005199	
 8550	    0	11.737907	3.234590	7.822611	1.865415	0.211719	0.190165	0.117432	0.031727	0.078400	0.999955	0.009327	0.001059	0.000951	
 8551	    0	13.346813	-1.817645	-10.151683	-0.129510	-0.917820	0.444796	0.133972	-0.017944	-0.100891	0.999987	-0.000648	-0.004589	0.002224	
 8552	    0	12.646535	-3.648340	-7.327865	0.213243	-0.704771	1.128396	0.126925	-0.035690	-0.072870	0.999977	0.001066	-0.003524	0.005642	
 8553	    0	7.529897	18.188078	-5.719312	1.146134	-0.315859	0.613408	0.074829	0.182434	-0.056030	0.999977	0.005731	-0.001579	0.003067	
 8554	    0	7.010222	29.476686	-2.627796	-0.595476	-0.505830	-0.151825	0.070394	0.294634	-0.026978	0.999991	-0.002977	-0.002529	-0.000759	
 8555	    0	10.719667	17.903188	-2.687162	-1.232736	-0.598153	-1.186387	0.108337	0.178223	-0.027649	0.999958	-0.006164	-0.002991	-0.005932	
 8556	    0	16.057295	6.410933	-4.476388	-0.000191	-0.372321	-2.043379	0.161300	0.062464	-0.044464	0.999946	-0.000001	-0.001862	-0.010217	
 8557	    0	18.619348	9.328119	-2.733319	0.783568	-0.388160	-2.873338	0.187561	0.090698	-0.026611	0.999887	0.003918	-0.001941	-0.014366	
 8558	    0	18.981696	14.898278	-4.724070	1.079214	-0.261315	-2.589693	0.191788	0.146759	-0.046195	0.999900	0.005396	-0.001307	-0.012948	
 8559	    0	19.989768	10.000159	-2.017029	0.960759	-0.165563	-2.431558	0.201111	0.097656	-0.019531	0.999914	0.004804	-0.000828	-0.012157	
 8560	    0	21.223537	6.299336	-1.680652	1.057470	-0.066950	-2.631848	0.213046	0.060281	-0.016412	0.999899	0.005287	-0.000335	-0.013159	
 8561	    0	21.281203	8.237675	-3.123212	0.837930	-0.067904	-2.902332	0.213989	0.079407	-0.030823	0.999886	0.004189	-0.000340	-0.014511	
 8562	    0	19.716268	13.047110	-5.008449	0.052263	-0.103001	-3.078201	0.199165	0.127429	-0.049949	0.999881	0.000261	-0.000515	-0.015390	
 8563	    0	20.605737	12.251632	-4.751741	-0.965739	-0.060275	-3.326582	0.208069	0.118835	-0.048035	0.999849	-0.004828	-0.000301	-0.016632	
 8564	    0	20.954938	8.016083	-4.284741	-1.673421	0.058368	-3.472734	0.210882	0.076144	-0.043557	0.999814	-0.008367	0.000292	-0.017363	
 8565	    0	22.036256	2.356266	-3.116251	-2.200475	0.148975	-3.507484	0.220703	0.019348	-0.031555	0.999785	-0.011002	0.000745	-0.017536	
 8566	    0	22.208636	-0.849434	-1.510258	-2.055313	0.388173	-3.540670	0.221858	-0.012581	-0.015418	0.999788	-0.010276	0.001941	-0.017702	
 8567	    0	20.765047	-2.268855	0.112181	-1.560881	0.623361	-3.495245	0.207214	-0.026306	0.000671	0.999811	-0.007804	0.003117	-0.017475	
 8568	    0	18.292426	-1.601909	-0.082167	-1.427161	0.718922	-3.380972	0.182614	-0.019116	-0.001349	0.999825	-0.007135	0.003594	-0.016904	
 8569	    0	16.177549	-1.411973	-0.499488	-1.744945	0.712818	-3.241157	0.161499	-0.016785	-0.005432	0.999824	-0.008724	0.003564	-0.016205	
 8570	    0	14.134899	-1.723709	-1.385087	-2.060248	0.700229	-3.063573	0.141012	-0.019544	-0.014152	0.999823	-0.010301	0.003501	-0.015317	
 8571	    0	12.173815	-2.532339	-2.279490	-2.327103	0.664750	-2.889423	0.121277	-0.027344	-0.022888	0.999822	-0.011635	0.003324	-0.014446	
 8572	    0	10.447049	-4.228576	-3.380840	-2.480076	0.615918	-2.681695	0.103784	-0.044098	-0.033589	0.999828	-0.012400	0.003079	-0.013408	
 8573	    0	8.963431	-6.723650	-4.398070	-2.417877	0.541905	-2.436188	0.088684	-0.068848	-0.043396	0.999848	-0.012089	0.002709	-0.012180	
 8574	    0	7.686966	-8.594799	-4.684274	-2.138035	0.527022	-2.247903	0.075771	-0.087299	-0.046115	0.999876	-0.010690	0.002635	-0.011239	
 8575	    0	6.120981	-9.760168	-4.254176	-1.595927	0.573748	-2.097384	0.060059	-0.098572	-0.041931	0.999908	-0.007979	0.002869	-0.010487	
 8576	    0	4.379398	-10.345962	-3.590668	-0.954839	0.660147	-1.919024	0.042680	-0.104043	-0.035553	0.999937	-0.004774	0.003301	-0.009595	
 8577	    0	3.314713	-10.858162	-4.183098	-0.449378	0.619706	-1.678491	0.032104	-0.108948	-0.041687	0.999957	-0.002247	0.003098	-0.008392	
 8578	    0	2.628593	-12.464915	-4.522066	-0.217249	0.527769	-1.440826	0.025268	-0.124883	-0.045153	0.999969	-0.001086	0.002639	-0.007204	
 8579	    0	1.978622	-14.490351	-4.065969	0.017548	0.397685	-1.250467	0.018799	-0.145020	-0.040710	0.999978	0.000088	0.001988	-0.006252	
 8580	    0	0.953033	-15.057389	-4.104312	0.360682	0.243760	-1.037031	0.008699	-0.150546	-0.041326	0.999984	0.001803	0.001219	-0.005185	
 8581	    0	-0.064480	-14.018955	-1.718768	0.558474	0.178719	-0.799564	-0.001221	-0.140137	-0.017578	0.999988	0.002792	0.000894	-0.003998	
 8582	    0	0.226386	-12.337205	1.157424	0.423814	0.120545	-0.530244	0.001944	-0.123402	0.011312	0.999993	0.002119	0.000603	-0.002651	
 8583	    0	1.719218	-10.605887	1.845395	0.036621	0.022316	-0.196838	0.017090	-0.106079	0.018433	0.999999	0.000183	0.000112	-0.000984	
 8584	    0	2.836853	-8.688171	1.701588	-0.135994	0.062943	0.120354	0.028426	-0.086853	0.017066	0.999999	-0.000680	0.000315	0.000602	
 8585	    0	3.198030	-8.064745	1.117831	-0.182915	0.134277	0.440979	0.032166	-0.080566	0.011230	0.999996	-0.000915	0.000671	0.002205	
 8586	    0	3.559406	-7.862161	0.584815	-0.170517	0.162125	0.769808	0.035901	-0.078479	0.005886	0.999991	-0.000853	0.000811	0.003849	
 8587	    0	4.603479	-6.938794	0.017224	0.001526	0.214578	1.016240	0.046387	-0.069153	0.000122	0.999986	0.000008	0.001073	0.005081	
 8588	    0	5.762253	-5.077153	-1.091012	0.220682	0.271990	1.253709	0.057924	-0.050397	-0.011045	0.999978	0.001103	0.001360	0.006269	
 8589	    0	7.269050	-2.909829	-2.862323	0.382427	0.190737	1.483169	0.072876	-0.028503	-0.028748	0.999969	0.001912	0.000954	0.007416	
 8590	    0	10.074390	-1.676181	-4.199188	0.540359	0.025750	1.643774	0.100871	-0.015820	-0.042048	0.999962	0.002702	0.000129	0.008219	
 8591	    0	14.401319	-1.015356	-4.761730	0.532539	-0.047875	1.718163	0.144104	-0.008789	-0.047607	0.999959	0.002663	-0.000239	0.008591	
 8592	    0	19.712324	-0.006597	-3.679727	0.279049	-0.061036	1.767182	0.197124	0.001727	-0.036736	0.999959	0.001395	-0.000305	0.008836	
 8593	    0	23.898076	1.023229	-1.624365	-0.231174	-0.171473	1.770806	0.238892	0.012329	-0.016052	0.999959	-0.001156	-0.000857	0.008854	
 8594	    0	23.112434	5.124229	-0.011620	-0.510225	-0.409134	1.992071	0.230598	0.053541	0.000221	0.999945	-0.002551	-0.002046	0.009960	
 8595	    0	20.869392	5.366511	-0.745309	-0.279052	-0.608078	2.339230	0.208069	0.056091	-0.006897	0.999926	-0.001395	-0.003040	0.011696	
 8596	    0	22.189546	4.285277	-2.655974	0.044824	-0.725957	2.493165	0.221433	0.045621	-0.025745	0.999915	0.000224	-0.003630	0.012465	
 8597	    0	24.469381	5.255084	-3.365227	0.306138	-0.798821	2.507092	0.244141	0.055664	-0.032593	0.999912	0.001531	-0.003994	0.012535	
 8598	    0	25.532243	7.524928	-4.236119	0.268372	-0.959617	2.538378	0.254539	0.078539	-0.041035	0.999907	0.001342	-0.004798	0.012691	
 8599	    0	25.702934	8.555204	-4.874534	0.258073	-1.132240	2.584925	0.256165	0.088928	-0.047180	0.999899	0.001290	-0.005661	0.012924	
 8600	    0	25.345738	8.255967	-5.055802	0.562117	-1.252412	2.676111	0.252630	0.086082	-0.048736	0.999887	0.002810	-0.006262	0.013380	
 8601	    0	24.595349	7.998950	-5.084221	0.895156	-1.241354	2.776453	0.245117	0.083618	-0.048950	0.999874	0.004476	-0.006207	0.013882	
 8602	    0	23.019287	8.383451	-4.650623	1.232394	-0.984809	2.912655	0.229160	0.087457	-0.044845	0.999863	0.006162	-0.004924	0.014563	
 8603	    0	21.028643	9.094724	-3.508315	1.495625	-0.605040	3.015284	0.208984	0.094360	-0.033752	0.999853	0.007478	-0.003025	0.015076	
 8604	    0	18.560838	9.474477	-2.058369	1.773733	-0.292602	2.980192	0.184196	0.097672	-0.019456	0.999848	0.008868	-0.001463	0.014900	
 8605	    0	16.111075	9.341708	-1.165181	1.880163	-0.173195	2.800884	0.159790	0.095764	-0.010620	0.999857	0.009400	-0.000866	0.014004	
 8606	    0	13.211660	9.497539	-0.076631	1.974193	0.000381	2.588386	0.130873	0.096676	0.000182	0.999867	0.009871	0.000002	0.012941	
 8607	    0	10.748742	10.044413	0.501746	2.010620	0.215921	2.431589	0.106262	0.101685	0.005920	0.999874	0.010053	0.001080	0.012157	
 8608	    0	8.418854	11.024279	-0.090360	1.841231	0.439088	2.276313	0.082926	0.111195	-0.000066	0.999890	0.009206	0.002195	0.011381	
 8609	    0	6.084398	12.171691	2.564049	1.654295	0.534074	2.102726	0.059631	0.122131	0.026489	0.999907	0.008271	0.002670	0.010513	
 8610	    0	3.812115	10.211233	1.231787	0.911922	0.374039	1.999324	0.037122	0.102429	0.012714	0.999937	0.004560	0.001870	0.009996	
 8611	    0	3.023115	10.672752	1.343342	-0.031853	0.335698	1.789881	0.029297	0.106995	0.013367	0.999958	-0.000159	0.001678	0.008949	
 8612	    0	1.879422	9.513572	0.826037	-0.966851	0.237278	1.731901	0.017979	0.095332	0.007778	0.999949	-0.004834	0.001186	0.008659	
 8613	    0	0.917880	8.464106	1.621565	-1.670873	0.102427	1.514467	0.008545	0.084839	0.015503	0.999936	-0.008354	0.000512	0.007572	
 8614	    0	-0.422021	6.540839	2.362536	-2.073911	-0.094798	1.254875	-0.004642	0.065620	0.022943	0.999926	-0.010369	-0.000474	0.006274	
 8615	    0	-1.569980	4.949548	3.527517	-1.859318	-0.295072	0.965899	-0.015991	0.049744	0.034790	0.999944	-0.009296	-0.001475	0.004829	
 8616	    0	-1.947837	1.945684	1.724376	-1.604675	-0.656137	0.651560	-0.019598	0.019530	0.017023	0.999957	-0.008023	-0.003281	0.003258	
 8617	    0	-1.873786	-0.918215	-0.698160	-1.856082	-1.318388	0.322730	-0.018677	-0.009277	-0.007019	0.999933	-0.009280	-0.006592	0.001614	
 8618	    0	-0.765709	-2.586783	-2.715089	-2.586479	-1.966944	-0.030328	-0.007396	-0.026216	-0.026887	0.999867	-0.012932	-0.009834	-0.000152	
 8619	    0	1.325260	-2.347757	-4.703542	-3.138927	-2.213997	-0.304432	0.013733	-0.024231	-0.046509	0.999814	-0.015694	-0.011069	-0.001522	
 8620	    0	1.717013	-3.298849	-4.260890	-2.882159	-2.130814	-0.338191	0.017563	-0.033626	-0.041942	0.999838	-0.014410	-0.010653	-0.001691	
 8621	    0	2.091516	-6.651452	-2.986449	-2.035396	-1.840268	-0.199133	0.021118	-0.066833	-0.028992	0.999905	-0.010177	-0.009201	-0.000996	
 8622	    0	3.450855	-9.632040	-3.138270	-0.907334	-1.125536	0.129510	0.034745	-0.096438	-0.030750	0.999973	-0.004537	-0.005628	0.000648	
 8623	    0	3.750657	-9.358250	-5.500762	0.217629	-0.295258	0.412751	0.037781	-0.093445	-0.055054	0.999996	0.001088	-0.001476	0.002064	
 8624	    0	3.290105	-7.741325	-7.189393	1.223765	0.459484	0.469784	0.032916	-0.076894	-0.072441	0.999975	0.006119	0.002297	0.002349	
 8625	    0	2.592430	-5.889875	-5.883614	2.083826	0.969718	0.411234	0.025757	-0.058228	-0.059570	0.999931	0.010419	0.004848	0.002056	
 8626	    0	2.399516	-4.675349	-3.626406	2.922754	1.211790	0.370804	0.023858	-0.046171	-0.037086	0.999872	0.014613	0.006059	0.001854	
 8627	    0	2.710122	-4.810390	-2.828813	4.058570	1.206298	0.215928	0.026978	-0.047485	-0.029419	0.999775	0.020291	0.006031	0.001080	
 8628	    0	3.910213	-4.749516	-0.098262	5.586438	1.262075	0.417958	0.039188	-0.047357	-0.002554	0.999587	0.027928	0.006310	0.002090	
 8629	    0	4.408395	2.260084	3.212261	3.966027	0.692224	0.057224	0.044189	0.021973	0.032410	0.999797	0.019829	0.003461	0.000286	
 8630	    0	12.676044	7.785302	-0.302564	1.160630	-0.491527	-0.455669	0.126944	0.077579	-0.002263	0.999977	0.005803	-0.002458	-0.002278	
 8631	    0	25.054526	-12.331131	-12.078680	0.101472	-1.166351	0.259401	0.251404	-0.122925	-0.119385	0.999982	0.000507	-0.005832	0.001297	
 8632	    0	14.973504	-8.002028	-7.264956	1.807814	-0.695621	0.379569	0.150139	-0.079078	-0.072845	0.999950	0.009039	-0.003478	0.001898	
 8633	    0	10.700102	19.504636	-1.281910	1.332104	-0.539975	0.351718	0.106689	0.195312	-0.011230	0.999972	0.006660	-0.002700	0.001759	
 8634	    0	11.281602	26.221099	-0.036786	-0.382043	-0.541879	-0.131989	0.112990	0.262136	-0.000563	0.999994	-0.001910	-0.002709	-0.000660	
 8635	    0	12.154095	13.952952	0.684001	-1.214612	-0.478940	-0.870523	0.122131	0.139038	0.006287	0.999969	-0.006073	-0.002395	-0.004353	
 8636	    0	14.879472	5.687891	-0.538785	-0.275616	-0.300984	-1.917107	0.149339	0.055442	-0.005240	0.999951	-0.001378	-0.001505	-0.009585	
 8637	    0	15.003863	14.404365	-2.037569	0.720236	-0.194364	-2.517010	0.151855	0.142212	-0.019714	0.999913	0.003601	-0.000972	-0.012585	
 8638	    0	16.148269	14.936251	-3.181382	0.795384	-0.084688	-2.306614	0.163205	0.147612	-0.031156	0.999925	0.003977	-0.000423	-0.011533	
 8639	    0	18.305936	9.480162	-2.890037	0.528729	-0.096705	-2.289634	0.184143	0.092773	-0.028564	0.999930	0.002644	-0.000484	-0.011448	
 8640	    0	19.709281	5.341482	-3.807523	0.494017	-0.082590	-2.505371	0.197758	0.051034	-0.037866	0.999918	0.002470	-0.000413	-0.012527	
 8641	    0	19.035363	7.681815	-5.414783	0.297747	-0.084689	-2.741328	0.191406	0.074280	-0.053955	0.999905	0.001489	-0.000423	-0.013706	
 8642	    0	18.900506	10.982213	-6.451610	-0.279246	-0.111393	-2.936279	0.190625	0.106941	-0.064561	0.999890	-0.001396	-0.000557	-0.014681	
 8643	    0	19.747863	8.952098	-6.158325	-0.948184	-0.108342	-3.070964	0.198853	0.086182	-0.061890	0.999870	-0.004741	-0.000542	-0.015354	
 8644	    0	19.412176	4.521421	-4.969511	-1.503256	-0.063327	-3.108751	0.194805	0.041815	-0.049956	0.999850	-0.007516	-0.000317	-0.015543	
 8645	    0	19.673959	0.941374	-2.827624	-1.635067	0.109297	-3.190021	0.196838	0.006042	-0.028442	0.999839	-0.008175	0.000546	-0.015949	
 8646	    0	19.233187	0.022096	-1.084659	-1.518140	0.301186	-3.225308	0.192285	-0.002964	-0.011122	0.999840	-0.007590	0.001506	-0.016126	
 8647	    0	18.465679	0.078819	-0.239214	-1.543319	0.460077	-3.211385	0.184631	-0.002197	-0.002808	0.999838	-0.007716	0.002300	-0.016056	
 8648	    0	17.383095	0.155356	0.159878	-1.744559	0.572809	-3.186978	0.173830	-0.001205	0.001103	0.999830	-0.008722	0.002864	-0.015934	
 8649	    0	15.944604	-1.477775	-0.400273	-2.000352	0.621832	-3.080165	0.159180	-0.017273	-0.004333	0.999826	-0.010001	0.003109	-0.015400	
 8650	    0	14.516356	-2.749777	-1.422698	-2.094575	0.651014	-2.907341	0.144695	-0.029754	-0.014395	0.999834	-0.010472	0.003255	-0.014536	
 8651	    0	13.039551	-3.427184	-2.868656	-2.037721	0.652345	-2.694072	0.129822	-0.036316	-0.028748	0.999851	-0.010188	0.003262	-0.013470	
 8652	    0	11.450710	-6.083500	-3.951111	-1.997844	0.571657	-2.479661	0.113626	-0.062640	-0.039217	0.999868	-0.009989	0.002858	-0.012398	
 8653	    0	9.622958	-9.018045	-3.860301	-1.822729	0.528927	-2.272880	0.095093	-0.091614	-0.038025	0.999890	-0.009113	0.002645	-0.011364	
 8654	    0	7.609409	-9.444954	-3.493225	-1.456493	0.565354	-2.080595	0.075006	-0.095486	-0.034452	0.999915	-0.007282	0.002827	-0.010403	
 8655	    0	5.500389	-9.399655	-3.385151	-0.950642	0.613606	-1.873054	0.054016	-0.094666	-0.033569	0.999940	-0.004753	0.003068	-0.009365	
 8656	    0	3.460418	-10.571251	-3.897288	-0.438315	0.581559	-1.675057	0.033604	-0.106082	-0.038839	0.999958	-0.002192	0.002908	-0.008375	
 8657	    0	2.162642	-12.197505	-4.163992	-0.305942	0.484662	-1.467148	0.020630	-0.122192	-0.041504	0.999969	-0.001530	0.002423	-0.007336	
 8658	    0	1.728400	-12.687952	-4.252442	-0.202180	0.405505	-1.235208	0.016414	-0.127026	-0.042430	0.999978	-0.001011	0.002028	-0.006176	
 8659	    0	1.079015	-12.963671	-4.603686	-0.048828	0.296976	-1.004033	0.010071	-0.129700	-0.046021	0.999986	-0.000244	0.001485	-0.005020	
 8660	    0	0.122137	-13.413919	-3.277031	0.014496	0.139046	-0.726320	0.000711	-0.134140	-0.032781	0.999992	0.000072	0.000695	-0.003632	
 8661	    0	0.209208	-12.408066	0.359348	-0.014496	0.145912	-0.424958	0.001831	-0.124084	0.003601	0.999997	-0.000072	0.000730	-0.002125	
 8662	    0	1.070137	-10.721996	2.228059	-0.241280	0.205422	-0.089455	0.010676	-0.107198	0.022399	0.999998	-0.001206	0.001027	-0.000447	
 8663	    0	2.084726	-10.395351	2.128222	-0.440217	0.253487	0.234223	0.020996	-0.103882	0.021484	0.999995	-0.002201	0.001267	0.001171	
 8664	    0	3.021362	-8.222648	0.805718	-0.319291	0.327492	0.484658	0.030426	-0.082140	0.008139	0.999994	-0.001596	0.001637	0.002423	
 8665	    0	4.241556	-7.107536	-0.759481	-0.111389	0.348092	0.736239	0.042664	-0.070923	-0.007629	0.999991	-0.000557	0.001740	0.003681	
 8666	    0	5.412705	-6.238579	-0.539165	0.155259	0.427630	1.024252	0.054434	-0.062103	-0.005556	0.999984	0.000776	0.002138	0.005121	
 8667	    0	6.340158	-5.229664	-1.700912	0.496678	0.423626	1.367964	0.063721	-0.051819	-0.017273	0.999970	0.002483	0.002118	0.006840	
 8668	    0	7.563662	-3.883394	-4.105208	0.760471	0.274281	1.650452	0.075896	-0.038052	-0.041302	0.999957	0.003802	0.001371	0.008252	
 8669	    0	10.717787	-3.134997	-5.486409	0.898185	0.097658	1.773101	0.107422	-0.030151	-0.055054	0.999950	0.004491	0.000488	0.008865	
 8670	    0	15.924128	-3.252465	-6.095971	0.895896	0.006676	1.758413	0.159515	-0.030849	-0.061106	0.999950	0.004479	0.000033	0.008792	
 8671	    0	21.569171	-2.389106	-5.006090	0.615128	-0.019074	1.635000	0.215881	-0.021973	-0.050110	0.999962	0.003076	-0.000095	0.008175	
 8672	    0	24.972908	1.621408	-1.390073	0.121881	-0.134279	1.614016	0.249597	0.018237	-0.013722	0.999967	0.000609	-0.000671	0.008070	
 8673	    0	23.057346	6.434442	-0.522285	0.020790	-0.236515	2.003513	0.229919	0.066650	-0.004944	0.999949	0.000104	-0.001183	0.010017	
 8674	    0	20.352401	5.935731	-2.089792	-0.142483	-0.423251	2.421250	0.202829	0.061801	-0.020512	0.999924	-0.000712	-0.002116	0.012106	
 8675	    0	21.176487	4.518396	-3.217761	-0.125889	-0.559060	2.600174	0.211243	0.047913	-0.031616	0.999911	-0.000629	-0.002795	0.013000	
 8676	    0	23.269287	4.813641	-4.252644	-0.119976	-0.690099	2.569847	0.232194	0.051097	-0.041755	0.999911	-0.000600	-0.003450	0.012849	
 8677	    0	24.529790	6.144745	-4.486079	-0.183683	-0.894955	2.537614	0.244690	0.064514	-0.043823	0.999908	-0.000918	-0.004475	0.012688	
 8678	    0	24.594108	6.631932	-4.748826	-0.048639	-1.125181	2.547919	0.245332	0.069436	-0.046124	0.999903	-0.000243	-0.005626	0.012739	
 8679	    0	24.171390	6.854478	-5.574739	0.349438	-1.231235	2.549067	0.241150	0.071716	-0.054138	0.999898	0.001747	-0.006156	0.012745	
 8680	    0	23.191198	7.224613	-6.142955	0.868256	-1.061859	2.602480	0.231264	0.075521	-0.059877	0.999891	0.004341	-0.005309	0.013012	
 8681	    0	21.779608	7.777304	-5.879613	1.344351	-0.646807	2.662762	0.216919	0.081055	-0.057556	0.999883	0.006721	-0.003234	0.013313	
 8682	    0	19.395529	8.247509	-3.951586	1.765133	-0.218591	2.600396	0.192901	0.085331	-0.038560	0.999875	0.008825	-0.001093	0.013001	
 8683	    0	16.475956	8.314398	-2.008091	2.022067	0.075534	2.494919	0.163696	0.085388	-0.019287	0.999870	0.010110	0.000378	0.012474	
 8684	    0	13.563308	8.874872	-0.793001	2.185344	0.276196	2.351481	0.134566	0.090416	-0.007134	0.999869	0.010926	0.001381	0.011757	
 8685	    0	10.976313	9.327584	-0.545932	2.197548	0.503561	2.224824	0.108704	0.094543	-0.004700	0.999874	0.010987	0.002518	0.011124	
 8686	    0	8.924312	10.002412	-0.798223	1.943085	0.665116	2.064778	0.088179	0.101011	-0.007298	0.999893	0.009715	0.003325	0.010324	
 8687	    0	7.090991	10.664456	0.641674	1.590771	0.708981	1.845600	0.069946	0.107239	0.007019	0.999919	0.007954	0.003545	0.009228	
 8688	    0	5.160766	8.595346	0.897287	1.223779	0.581180	1.687464	0.050907	0.086329	0.009352	0.999941	0.006119	0.002906	0.008437	
 8689	    0	4.265687	9.026836	0.177858	0.444226	0.414281	1.477829	0.041992	0.090576	0.001892	0.999968	0.002221	0.002071	0.007389	
 8690	    0	2.827660	8.674153	1.067051	-0.097657	0.275805	1.287851	0.027732	0.086926	0.010590	0.999978	-0.000488	0.001379	0.006439	
 8691	    0	1.875809	8.247383	1.280822	-0.833710	0.138856	1.252759	0.018250	0.082642	0.012451	0.999971	-0.004169	0.000694	0.006264	
 8692	    0	1.458442	6.261712	1.676898	-1.322953	0.031472	1.059736	0.014255	0.062802	0.016352	0.999964	-0.006615	0.000157	0.005299	
 8693	    0	0.365292	5.473063	2.434988	-1.553365	-0.115778	0.805674	0.003418	0.054932	0.023926	0.999961	-0.007767	-0.000579	0.004028	
 8694	    0	-0.712490	3.522141	3.090297	-1.381505	-0.187113	0.527959	-0.007247	0.035415	0.030652	0.999971	-0.006907	-0.000936	0.002640	
 8695	    0	-0.945686	1.483669	2.323410	-1.137359	-0.357058	0.312044	-0.009521	0.014954	0.023132	0.999981	-0.005687	-0.001785	0.001560	
 8696	    0	-1.266043	-0.149558	-0.249150	-1.218426	-0.861176	0.130655	-0.012649	-0.001519	-0.002537	0.999971	-0.006092	-0.004306	0.000653	
 8697	    0	-0.995577	-1.078142	-2.677249	-2.012686	-1.448668	-0.065614	-0.009766	-0.011047	-0.026733	0.999923	-0.010063	-0.007243	-0.000328	
 8698	    0	0.707999	-1.351919	-4.003603	-2.831213	-1.837818	-0.219356	0.007431	-0.014091	-0.039772	0.999857	-0.014155	-0.009189	-0.001097	
 8699	    0	2.225332	-3.281212	-3.901647	-2.842089	-1.910303	-0.232708	0.022583	-0.033386	-0.038330	0.999852	-0.014210	-0.009551	-0.001163	
 8700	    0	3.289255	-6.622172	-3.302593	-2.321707	-1.759210	-0.115971	0.033138	-0.066616	-0.031963	0.999893	-0.011608	-0.008796	-0.000580	
 8701	    0	4.497721	-9.456341	-2.830975	-1.425956	-1.289197	0.151064	0.045227	-0.094727	-0.027344	0.999953	-0.007130	-0.006446	0.000755	
 8702	    0	4.793182	-9.486635	-4.263544	-0.560381	-0.680163	0.419809	0.048275	-0.094884	-0.042206	0.999988	-0.002802	-0.003401	0.002099	
 8703	    0	4.066938	-6.723901	-6.039695	0.140381	-0.094414	0.582887	0.040894	-0.067078	-0.060425	0.999995	0.000702	-0.000472	0.002914	
 8704	    0	3.446569	-4.504208	-6.022150	0.712779	0.435259	0.616458	0.034472	-0.044721	-0.060456	0.999986	0.003564	0.002176	0.003082	
 8705	    0	3.450171	-3.664886	-4.812575	1.457996	0.767718	0.593574	0.034424	-0.036194	-0.048523	0.999961	0.007290	0.003839	0.002968	
 8706	    0	3.671113	-5.965143	-3.244775	2.250157	0.919556	0.523008	0.036715	-0.059184	-0.033284	0.999922	0.011250	0.004598	0.002615	
 8707	    0	4.774809	-7.722150	-4.332197	3.900413	0.958508	0.508152	0.047729	-0.076233	-0.045044	0.999795	0.019501	0.004792	0.002541	
 8708	    0	8.224124	-8.062553	4.458335	4.095784	1.182459	0.938299	0.082876	-0.081121	0.042437	0.999762	0.020477	0.005912	0.004691	
 8709	    0	11.964678	-3.205407	6.756696	1.823451	0.018502	0.228122	0.119690	-0.032532	0.067261	0.999957	0.009117	0.000093	0.001141	
 8710	    0	16.402044	-6.426790	-9.621833	1.286328	-0.685126	0.431256	0.164487	-0.063295	-0.096065	0.999970	0.006432	-0.003426	0.002156	
 8711	    0	13.039828	0.566392	-5.080072	1.771006	-0.504312	1.017017	0.130493	0.006775	-0.050415	0.999945	0.008855	-0.002522	0.005085	
 8712	    0	7.277952	24.183932	-3.813874	1.769856	-0.397879	0.649844	0.072065	0.242398	-0.035851	0.999953	0.008849	-0.001989	0.003249	
 8713	    0	7.132666	33.740568	-2.176552	-0.436975	-0.629427	-0.045014	0.071472	0.337341	-0.022278	0.999992	-0.002185	-0.003147	-0.000225	
 8714	    0	9.919713	22.166077	-3.287531	-1.447509	-0.645647	-1.037613	0.100453	0.220898	-0.034153	0.999954	-0.007237	-0.003228	-0.005188	
 8715	    0	15.583456	8.428416	-4.003217	-0.854509	-0.445375	-1.959267	0.156738	0.082581	-0.040039	0.999940	-0.004272	-0.002227	-0.009796	
 8716	    0	19.789893	9.124789	-3.419353	0.085643	-0.313196	-2.660068	0.199142	0.088619	-0.033844	0.999909	0.000428	-0.001566	-0.013300	
 8717	    0	19.981116	10.532814	-4.185575	0.588240	-0.228696	-2.293450	0.201050	0.103149	-0.041321	0.999928	0.002941	-0.001143	-0.011467	
 8718	    0	19.870440	9.169856	-2.850510	0.797479	-0.131800	-2.050251	0.199650	0.089767	-0.028013	0.999939	0.003987	-0.000659	-0.010251	
 8719	    0	20.327700	6.230256	-2.414363	0.953699	0.010872	-2.314819	0.203979	0.060059	-0.023865	0.999921	0.004768	0.000054	-0.011574	
 8720	    0	21.117555	5.973801	-2.967306	0.792528	0.045396	-2.630698	0.211931	0.057071	-0.029491	0.999906	0.003963	0.000227	-0.013153	
 8721	    0	20.030821	9.913825	-5.029413	0.236710	0.052645	-2.806184	0.201660	0.096375	-0.050232	0.999901	0.001184	0.000263	-0.014030	
 8722	    0	20.491271	11.022990	-5.558367	-0.612092	0.068095	-3.008579	0.206519	0.106960	-0.055984	0.999882	-0.003060	0.000340	-0.015042	
 8723	    0	21.732571	8.063135	-4.580505	-1.234499	0.147446	-3.267073	0.218567	0.076782	-0.046448	0.999846	-0.006172	0.000737	-0.016335	
 8724	    0	22.465347	3.742231	-4.208197	-1.687910	0.235380	-3.297804	0.225176	0.033354	-0.042640	0.999827	-0.008439	0.001177	-0.016488	
 8725	    0	22.976554	0.406903	-2.795123	-1.961451	0.363182	-3.354095	0.229736	-0.000061	-0.028381	0.999809	-0.009807	0.001816	-0.016769	
 8726	    0	22.011382	-0.933395	-0.708930	-1.826973	0.553929	-3.371640	0.219893	-0.013110	-0.007590	0.999812	-0.009134	0.002769	-0.016857	
 8727	    0	19.955921	-1.092952	-0.020873	-1.708895	0.698894	-3.296094	0.199341	-0.014221	-0.000793	0.999821	-0.008544	0.003494	-0.016479	
 8728	    0	18.068091	-0.677801	-0.026061	-1.907844	0.742194	-3.182410	0.180540	-0.009658	-0.000848	0.999821	-0.009539	0.003711	-0.015911	
 8729	    0	16.033496	-0.387713	-0.810441	-2.215522	0.779009	-3.042027	0.160217	-0.006409	-0.008667	0.999815	-0.011077	0.003895	-0.015209	
 8730	    0	13.743679	-1.083375	-1.635798	-2.593973	0.773480	-2.892874	0.137195	-0.013035	-0.016729	0.999804	-0.012969	0.003867	-0.014463	
 8731	    0	11.769031	-3.315938	-2.957237	-2.877236	0.688408	-2.680384	0.117126	-0.035156	-0.029480	0.999801	-0.014385	0.003442	-0.013401	
 8732	    0	10.306990	-5.825494	-4.754290	-2.970312	0.534664	-2.473416	0.102207	-0.060223	-0.046932	0.999809	-0.014851	0.002673	-0.012366	
 8733	    0	9.000999	-7.689308	-5.525840	-2.763327	0.453974	-2.296573	0.088989	-0.078674	-0.054382	0.999836	-0.013816	0.002270	-0.011482	
 8734	    0	7.585641	-9.477613	-5.310550	-2.327067	0.484869	-2.189159	0.074681	-0.096209	-0.052174	0.999869	-0.011635	0.002424	-0.010945	
 8735	    0	5.779500	-11.038980	-4.654806	-1.782856	0.552386	-2.069922	0.056519	-0.111389	-0.045715	0.999903	-0.008914	0.002762	-0.010349	
 8736	    0	4.022263	-11.618994	-4.588525	-1.228169	0.594343	-1.873821	0.038995	-0.116838	-0.045286	0.999932	-0.006141	0.002972	-0.009369	
 8737	    0	2.690193	-12.302808	-5.145484	-0.906196	0.522622	-1.640346	0.025757	-0.123474	-0.050964	0.999952	-0.004531	0.002613	-0.008202	
 8738	    0	1.909813	-14.198271	-5.318708	-0.792322	0.384907	-1.411264	0.017993	-0.142322	-0.052659	0.999965	-0.003962	0.001925	-0.007056	
 8739	    0	1.103966	-16.030385	-5.253052	-0.598149	0.238230	-1.206217	0.010010	-0.160522	-0.052063	0.999976	-0.002991	0.001191	-0.006031	
 8740	    0	0.494486	-16.044982	-2.718050	-0.287820	0.232316	-0.968747	0.004136	-0.160510	-0.026955	0.999986	-0.001439	0.001162	-0.004844	
 8741	    0	0.608639	-14.530613	1.031305	-0.013733	0.280190	-0.668336	0.005615	-0.145325	0.010315	0.999993	-0.000069	0.001401	-0.003342	
 8742	    0	1.443172	-12.538910	2.096229	-0.113297	0.226975	-0.299263	0.014268	-0.125399	0.021017	0.999997	-0.000566	0.001135	-0.001496	
 8743	    0	2.571680	-10.639580	1.726163	-0.066376	0.186348	0.045013	0.025757	-0.106384	0.017273	0.999999	-0.000332	0.000932	0.000225	
 8744	    0	2.765204	-9.619343	1.293259	0.076866	0.213242	0.331879	0.027825	-0.096152	0.012866	0.999997	0.000384	0.001066	0.001659	
 8745	    0	2.867004	-9.114982	1.022048	0.246621	0.258637	0.677492	0.028992	-0.091064	0.010071	0.999992	0.001233	0.001293	0.003387	
 8746	    0	3.352548	-8.364674	-0.038425	0.313951	0.268556	0.949101	0.033921	-0.083486	-0.000561	0.999986	0.001570	0.001343	0.004745	
 8747	    0	4.064729	-6.501767	-1.057784	0.314333	0.305369	1.186379	0.041016	-0.064758	-0.010742	0.999980	0.001572	0.001527	0.005932	
 8748	    0	5.090180	-4.492924	-2.419053	0.420956	0.305560	1.437583	0.051186	-0.044511	-0.024363	0.999970	0.002105	0.001528	0.007188	
 8749	    0	6.598785	-2.757793	-3.969440	0.623330	0.232890	1.625845	0.066162	-0.026917	-0.039856	0.999961	0.003117	0.001164	0.008129	
 8750	    0	9.673312	-2.016520	-5.324813	0.761234	0.103571	1.733234	0.096874	-0.019123	-0.053372	0.999954	0.003806	0.000518	0.008666	
 8751	    0	14.290680	-1.182603	-6.119125	0.758564	-0.019837	1.703668	0.143005	-0.010376	-0.061218	0.999956	0.003793	-0.000099	0.008518	
 8752	    0	20.394797	-0.473375	-5.539394	0.628288	-0.132181	1.608678	0.204013	-0.002919	-0.055270	0.999962	0.003141	-0.000661	0.008043	
 8753	    0	25.176972	0.542780	-3.868766	0.412755	-0.272945	1.540392	0.251770	0.007446	-0.038330	0.999967	0.002064	-0.001365	0.007702	
 8754	    0	24.372104	5.232083	-2.841334	0.539597	-0.423247	1.824408	0.243289	0.054617	-0.027753	0.999952	0.002698	-0.002116	0.009122	
 8755	    0	22.419682	6.238511	-3.772660	0.700396	-0.568976	2.277431	0.223572	0.065063	-0.036865	0.999925	0.003502	-0.002845	0.011387	
 8756	    0	23.975511	5.847820	-4.948477	0.685521	-0.698683	2.481916	0.239174	0.061616	-0.048441	0.999910	0.003428	-0.003493	0.012409	
 8757	    0	26.005220	7.251860	-4.520584	0.830296	-0.778986	2.532277	0.259277	0.075989	-0.043884	0.999903	0.004151	-0.003895	0.012661	
 8758	    0	26.255997	9.113056	-5.146809	0.803403	-0.907548	2.605909	0.261570	0.094746	-0.049904	0.999896	0.004017	-0.004538	0.013029	
 8759	    0	25.719352	9.986740	-5.514075	0.724056	-1.064149	2.692513	0.256104	0.103516	-0.053406	0.999888	0.003620	-0.005321	0.013462	
 8760	    0	24.823901	9.687857	-4.990630	0.858914	-1.204730	2.725710	0.247179	0.100461	-0.047989	0.999879	0.004294	-0.006023	0.013628	
 8761	    0	23.070939	9.458711	-4.394966	1.169637	-1.156475	2.770353	0.229614	0.098022	-0.042053	0.999869	0.005848	-0.005782	0.013851	
 8762	    0	21.178469	9.350508	-4.146514	1.533008	-0.837938	2.868596	0.210581	0.096841	-0.039847	0.999859	0.007665	-0.004189	0.014342	
 8763	    0	19.186979	9.648693	-3.374179	1.875396	-0.427839	2.819198	0.190552	0.099487	-0.032410	0.999854	0.009377	-0.002139	0.014095	
 8764	    0	16.174226	9.675159	-2.059048	2.134618	-0.136573	2.679193	0.160439	0.099118	-0.019431	0.999852	0.010673	-0.000683	0.013395	
 8765	    0	13.135394	10.039199	-0.812855	2.223496	0.028993	2.415575	0.130127	0.102051	-0.007019	0.999865	0.011117	0.000145	0.012077	
 8766	    0	10.127298	10.511382	0.227867	2.285671	0.217256	2.175231	0.100125	0.106173	0.003379	0.999874	0.011428	0.001086	0.010876	
 8767	    0	7.827231	10.865936	0.339906	2.199063	0.370039	1.961589	0.077209	0.109375	0.004456	0.999889	0.010995	0.001850	0.009808	
 8768	    0	5.991061	11.331844	-0.396750	1.788188	0.494780	1.775027	0.058893	0.113874	-0.003098	0.999917	0.008941	0.002474	0.008875	
 8769	    0	4.442214	10.550469	3.313535	1.883938	0.604264	1.559489	0.043701	0.105530	0.033997	0.999920	0.009419	0.003021	0.007797	
 8770	    0	2.559141	9.183677	0.387336	1.098840	0.381285	1.511978	0.024904	0.092004	0.004331	0.999954	0.005494	0.001906	0.007560	
 8771	    0	2.322243	9.490341	0.995691	0.586897	0.375370	1.386275	0.022583	0.095032	0.010193	0.999969	0.002934	0.001877	0.006931	
 8772	    0	1.551836	9.478112	0.661289	-0.041962	0.217248	1.187904	0.014962	0.094872	0.006577	0.999981	-0.000210	0.001086	0.005939	
 8773	    0	0.942493	8.957005	1.093252	-0.817114	0.158883	1.029213	0.008972	0.089661	0.010559	0.999978	-0.004086	0.000794	0.005146	
 8774	    0	0.351963	5.593757	2.639885	-1.068315	0.074578	0.877578	0.003284	0.056092	0.026098	0.999975	-0.005342	0.000373	0.004388	
 8775	    0	-0.368705	3.098320	3.626722	-0.866513	0.012970	0.640109	-0.003784	0.031128	0.036133	0.999985	-0.004333	0.000065	0.003201	
 8776	    0	-1.009650	0.740854	3.390471	-0.412179	-0.236893	0.332261	-0.010149	0.007462	0.033877	0.999995	-0.002061	-0.001184	0.001661	
 8777	    0	-1.199502	-0.888699	2.139773	-0.341798	-0.839046	-0.006104	-0.012085	-0.008850	0.021362	0.999990	-0.001709	-0.004195	-0.000031	
 8778	    0	-0.254556	-2.327562	-0.452262	-1.280424	-1.505877	-0.227741	-0.002539	-0.023301	-0.004393	0.999950	-0.006402	-0.007529	-0.001139	
 8779	    0	1.862101	-3.398945	-3.705352	-2.870133	-1.949409	-0.331132	0.018921	-0.034546	-0.036377	0.999847	-0.014350	-0.009747	-0.001656	
 8780	    0	2.045653	-4.408101	-3.933835	-3.276459	-2.069604	-0.348113	0.020780	-0.044751	-0.038395	0.999810	-0.016381	-0.010347	-0.001740	
 8781	    0	2.130893	-6.003426	-3.438404	-2.584002	-2.029510	-0.148017	0.021606	-0.060486	-0.033386	0.999865	-0.012919	-0.010147	-0.000740	
 8782	    0	3.107113	-7.934132	-4.768610	-1.485663	-1.548988	0.270467	0.031544	-0.079649	-0.046852	0.999941	-0.007428	-0.007745	0.001352	
 8783	    0	4.091477	-10.216865	-7.429796	-0.476839	-0.681880	0.539400	0.041443	-0.102234	-0.073914	0.999988	-0.002384	-0.003409	0.002697	
 8784	    0	3.992070	-8.433433	-6.771002	0.433923	0.230790	0.612451	0.040100	-0.084064	-0.067939	0.999991	0.002170	0.001154	0.003062	
 8785	    0	3.434265	-5.157956	-4.365923	0.949294	0.601200	0.592045	0.034363	-0.051270	-0.044006	0.999979	0.004746	0.003006	0.002960	
 8786	    0	3.823743	-4.643474	-2.743122	1.239979	0.626189	0.594335	0.038288	-0.046149	-0.027838	0.999971	0.006200	0.003131	0.002972	
 8787	    0	4.064307	-8.061989	-3.876329	1.797515	0.622760	0.624858	0.040771	-0.080139	-0.039612	0.999949	0.008987	0.003114	0.003124	
 8788	    0	7.438045	-6.566486	-3.232129	3.704695	1.018781	0.958505	0.074522	-0.064690	-0.033905	0.999804	0.018522	0.005094	0.004792	
 8789	    0	12.384544	-5.271993	9.440780	2.918381	1.087431	1.285614	0.124695	-0.053284	0.092957	0.999858	0.014591	0.005437	0.006428	
 8790	    0	13.662705	-4.236773	-3.175571	1.934655	-0.328642	0.300603	0.136743	-0.041854	-0.031938	0.999950	0.009673	-0.001643	0.001503	
 8791	    0	13.761000	-5.558392	-13.042696	1.570917	-0.700962	0.875868	0.138306	-0.053955	-0.130371	0.999953	0.007854	-0.003505	0.004379	
 8792	    0	9.475550	13.308985	-3.015967	1.784359	-0.677122	0.999279	0.094187	0.133821	-0.028648	0.999942	0.008922	-0.003386	0.004996	
 8793	    0	5.194075	36.252847	-4.391154	0.534059	-0.610163	0.341798	0.051453	0.362732	-0.042786	0.999990	0.002670	-0.003051	0.001709	
 8794	    0	8.935954	28.761475	-3.778157	-1.463336	-0.720224	-0.546844	0.090285	0.287084	-0.039559	0.999963	-0.007317	-0.003601	-0.002734	
 8795	    0	14.593281	12.827497	-1.492568	-1.458582	-0.646224	-1.651037	0.147034	0.126953	-0.015381	0.999933	-0.007293	-0.003231	-0.008255	
 8796	    0	19.456814	5.230188	-2.682896	-0.216490	-0.450528	-2.518532	0.195266	0.049817	-0.026444	0.999917	-0.001082	-0.002253	-0.012592	
 8797	    0	19.502936	10.491621	-2.377203	0.581565	-0.283821	-2.372039	0.196289	0.102661	-0.023193	0.999924	0.002908	-0.001419	-0.011860	
 8798	    0	19.290290	10.717105	-2.619663	0.660145	-0.161937	-1.943241	0.193954	0.105375	-0.025690	0.999947	0.003301	-0.000810	-0.009716	
 8799	    0	19.956946	7.465892	-1.914630	0.837725	0.020791	-2.044719	0.200317	0.072693	-0.018860	0.999938	0.004189	0.000104	-0.010223	
 8800	    0	21.772786	6.320198	-2.523613	0.645273	0.060274	-2.453488	0.218474	0.060606	-0.025104	0.999919	0.003226	0.000301	-0.012267	
 8801	    0	20.709299	10.237421	-5.214672	0.138287	0.045015	-2.693258	0.208435	0.099609	-0.052124	0.999908	0.000691	0.000225	-0.013466	
 8802	    0	20.564477	11.217624	-6.067314	-0.625825	0.068858	-2.957457	0.207251	0.108929	-0.061089	0.999886	-0.003129	0.000344	-0.014787	
 8803	    0	21.538285	8.848793	-5.586707	-1.064925	0.179300	-3.266305	0.216736	0.084656	-0.056519	0.999851	-0.005324	0.000896	-0.016331	
 8804	    0	21.754702	5.000083	-5.500241	-1.624771	0.211537	-3.297611	0.218268	0.045956	-0.055617	0.999830	-0.008123	0.001058	-0.016487	
 8805	    0	23.132964	0.270972	-4.077364	-1.899076	0.316068	-3.378509	0.231262	-0.001587	-0.041138	0.999810	-0.009495	0.001580	-0.016891	
 8806	    0	22.740522	-2.255674	-1.776150	-1.459972	0.528367	-3.455750	0.226921	-0.026612	-0.018177	0.999820	-0.007299	0.002642	-0.017278	
 8807	    0	20.669268	-1.873278	-0.891266	-1.135890	0.647009	-3.442577	0.206299	-0.022339	-0.009460	0.999830	-0.005679	0.003235	-0.017212	
 8808	    0	18.765534	-0.805024	-0.303796	-1.412472	0.666847	-3.342437	0.187474	-0.011209	-0.003592	0.999829	-0.007062	0.003334	-0.016711	
 8809	    0	16.944406	-0.527901	-0.459386	-1.724343	0.702136	-3.229710	0.169312	-0.008057	-0.005127	0.999825	-0.008621	0.003510	-0.016148	
 8810	    0	14.934136	-1.420295	-2.033303	-2.148760	0.657885	-3.117562	0.149026	-0.016748	-0.020653	0.999815	-0.010743	0.003289	-0.015587	
 8811	    0	12.896580	-2.962296	-3.220147	-2.514809	0.553357	-2.945134	0.128418	-0.031921	-0.032166	0.999808	-0.012573	0.002767	-0.014725	
 8812	    0	11.376373	-6.115620	-4.575537	-2.610743	0.386833	-2.697533	0.112832	-0.063274	-0.045157	0.999822	-0.013053	0.001934	-0.013487	
 8813	    0	10.096903	-9.117626	-5.515169	-2.388693	0.302902	-2.498752	0.099731	-0.093079	-0.054199	0.999849	-0.011943	0.001514	-0.012493	
 8814	    0	8.471184	-11.364166	-5.534989	-1.957207	0.321019	-2.345177	0.083280	-0.115159	-0.054362	0.999882	-0.009786	0.001605	-0.011725	
 8815	    0	5.830425	-12.620771	-5.043698	-1.463361	0.393879	-2.179019	0.056824	-0.127197	-0.049622	0.999911	-0.007317	0.001969	-0.010895	
 8816	    0	3.092796	-12.759927	-4.695218	-0.976964	0.421723	-1.929513	0.029595	-0.128117	-0.046391	0.999939	-0.004885	0.002109	-0.009647	
 8817	    0	1.926679	-13.465995	-4.410852	-0.653657	0.360875	-1.572438	0.018127	-0.134949	-0.043701	0.999962	-0.003268	0.001804	-0.007862	
 8818	    0	1.500952	-15.454762	-3.671985	-0.466732	0.251963	-1.275645	0.013977	-0.154724	-0.036377	0.999975	-0.002334	0.001260	-0.006378	
 8819	    0	1.088308	-16.310996	-3.584066	-0.248529	0.128937	-1.042180	0.010010	-0.163208	-0.035645	0.999985	-0.001243	0.000645	-0.005211	
 8820	    0	0.635353	-16.103834	-1.015466	0.076866	0.165940	-0.777247	0.005719	-0.161057	-0.010221	0.999991	0.000384	0.000830	-0.003886	
 8821	    0	0.326160	-13.621452	2.075552	0.090218	0.204468	-0.428772	0.002991	-0.136230	0.020691	0.999996	0.000451	0.001022	-0.002144	
 8822	    0	0.947508	-10.353092	2.355278	-0.120163	0.102615	0.003624	0.009489	-0.103517	0.023610	0.999999	-0.000601	0.000513	0.000018	
 8823	    0	2.331221	-8.675612	2.539075	-0.301934	0.076294	0.407410	0.023499	-0.086670	0.025513	0.999996	-0.001510	0.000381	0.002037	
 8824	    0	3.059826	-8.595004	2.634285	-0.406267	0.125695	0.759890	0.030941	-0.085779	0.026498	0.999990	-0.002031	0.000628	0.003799	
 8825	    0	3.390713	-7.798649	2.150752	-0.372317	0.268747	1.096350	0.034363	-0.077759	0.021606	0.999982	-0.001862	0.001344	0.005482	
 8826	    0	3.653175	-7.207528	1.337184	-0.370601	0.331691	1.295482	0.037020	-0.071812	0.013444	0.999975	-0.001853	0.001658	0.006477	
 8827	    0	4.274921	-6.124046	0.396436	-0.265315	0.362400	1.496139	0.043213	-0.060913	0.003967	0.999969	-0.001327	0.001812	0.007481	
 8828	    0	4.773565	-4.867261	-1.005963	-0.012207	0.368696	1.782060	0.048148	-0.048245	-0.010145	0.999958	-0.000061	0.001843	0.008910	
 8829	    0	5.939314	-3.410051	-2.713000	0.348097	0.315863	2.033271	0.059692	-0.033447	-0.027283	0.999945	0.001740	0.001579	0.010166	
 8830	    0	8.180305	-2.608222	-4.005703	0.640119	0.204472	2.118726	0.082031	-0.025085	-0.040222	0.999938	0.003201	0.001022	0.010593	
 8831	    0	11.512371	-1.763713	-5.706540	0.681509	0.011444	2.095074	0.115295	-0.016235	-0.057129	0.999939	0.003407	0.000057	0.010475	
 8832	    0	16.408852	-1.087064	-6.446531	0.566111	-0.129511	1.972042	0.164226	-0.009069	-0.064386	0.999947	0.002831	-0.000648	0.009860	
 8833	    0	22.072396	-1.261859	-5.499071	0.455672	-0.242618	1.696800	0.220886	-0.010620	-0.054749	0.999960	0.002278	-0.001213	0.008484	
 8834	    0	25.235241	2.361466	-3.389207	0.507551	-0.393872	1.556796	0.252224	0.025663	-0.033332	0.999964	0.002538	-0.001969	0.007784	
 8835	    0	23.400716	5.638050	-3.234758	0.673116	-0.511179	1.959266	0.233521	0.058777	-0.031555	0.999943	0.003366	-0.002556	0.009796	
 8836	    0	22.749698	5.912455	-4.269623	0.705167	-0.642032	2.455782	0.226882	0.062061	-0.041752	0.999913	0.003526	-0.003210	0.012279	
 8837	    0	24.370079	5.676786	-4.752559	0.917276	-0.763729	2.629181	0.243103	0.060181	-0.046326	0.999895	0.004586	-0.003819	0.013145	
 8838	    0	25.142127	6.908902	-5.556564	0.834877	-1.009978	2.660849	0.250746	0.072656	-0.054000	0.999889	0.004174	-0.005050	0.013304	
 8839	    0	25.887994	9.141541	-5.644313	0.648525	-1.265577	2.756611	0.257935	0.095154	-0.054504	0.999879	0.003242	-0.006328	0.013783	
 8840	    0	25.873051	10.790125	-5.126193	0.638608	-1.451747	2.829676	0.257529	0.111710	-0.049037	0.999868	0.003193	-0.007258	0.014148	
 8841	    0	25.113748	10.575690	-4.939111	0.723301	-1.550938	2.898544	0.249939	0.109558	-0.047058	0.999858	0.003616	-0.007754	0.014492	
 8842	    0	24.089656	9.778020	-4.585293	1.038792	-1.302781	2.947757	0.239708	0.101550	-0.043768	0.999856	0.005194	-0.006514	0.014738	
 8843	    0	22.704314	9.403543	-3.873042	1.457475	-0.811807	2.958821	0.225769	0.097656	-0.037109	0.999855	0.007287	-0.004059	0.014793	
 8844	    0	19.971860	9.008785	-2.470426	1.777731	-0.316444	2.802025	0.198466	0.093087	-0.023571	0.999861	0.008888	-0.001582	0.014009	
 8845	    0	16.158682	9.438686	-0.235155	2.025696	0.103955	2.602505	0.160339	0.096497	-0.001465	0.999864	0.010128	0.000520	0.013012	
 8846	    0	12.334841	10.856388	1.001700	2.014433	0.407235	2.345180	0.122087	0.109894	0.010870	0.999878	0.010072	0.002036	0.011725	
 8847	    0	9.786288	11.554133	1.180143	1.747379	0.626394	2.103493	0.096680	0.116455	0.012512	0.999901	0.008737	0.003132	0.010517	
 8848	    0	7.875835	11.432656	1.012085	1.252203	0.759524	1.842351	0.077741	0.114981	0.010543	0.999930	0.006261	0.003798	0.009212	
 8849	    0	6.269131	11.091823	2.036140	0.808156	0.778210	1.585413	0.061890	0.111328	0.020569	0.999952	0.004041	0.003891	0.007927	
 8850	    0	4.704613	8.419168	2.645756	0.544554	0.680359	1.401726	0.046545	0.084447	0.026528	0.999966	0.002723	0.003402	0.007009	
 8851	    0	3.797679	8.159657	1.391708	-0.031090	0.586706	1.325237	0.037476	0.081848	0.013794	0.999973	-0.000155	0.002934	0.006626	
 8852	    0	2.566541	7.834090	1.781370	-0.325015	0.475887	1.213655	0.025231	0.078524	0.017626	0.999977	-0.001625	0.002379	0.006068	
 8853	    0	1.791424	8.004640	1.152190	-1.116764	0.305942	1.033793	0.017517	0.080200	0.011047	0.999969	-0.005584	0.001530	0.005169	
 8854	    0	0.835170	5.939764	1.943250	-1.637100	0.129129	0.792514	0.008128	0.059587	0.018940	0.999958	-0.008185	0.000646	0.003963	
 8855	    0	-0.817444	4.147830	1.146237	-1.968228	-0.151065	0.567637	-0.008301	0.041565	0.011047	0.999947	-0.009841	-0.000755	0.002838	
 8856	    0	-2.232716	1.878532	-1.665401	-1.847868	-0.463684	0.359159	-0.022322	0.018590	-0.016878	0.999952	-0.009239	-0.002318	0.001796	
 8857	    0	-2.528263	-0.669147	-3.009831	-1.736478	-0.894751	0.038911	-0.025146	-0.006958	-0.030151	0.999951	-0.008682	-0.004474	0.000195	
 8858	    0	-1.811446	-2.659903	-3.047014	-2.018603	-1.582190	-0.346575	-0.017920	-0.026875	-0.030342	0.999916	-0.010093	-0.007911	-0.001733	
 8859	    0	0.011437	-3.659185	-3.304892	-2.786406	-2.213217	-0.596651	0.000366	-0.037048	-0.032532	0.999837	-0.013931	-0.011065	-0.002983	
 8860	    0	2.147350	-4.814114	-1.962243	-3.268286	-2.492130	-0.586361	0.021567	-0.048513	-0.018563	0.999784	-0.016340	-0.012460	-0.002932	
 8861	    0	3.739983	-6.245008	-0.506938	-2.555973	-2.275007	-0.302902	0.037354	-0.062561	-0.003845	0.999852	-0.012779	-0.011374	-0.001514	
 8862	    0	4.665287	-7.859352	-2.911449	-1.033034	-1.472875	0.172045	0.046931	-0.078701	-0.028363	0.999959	-0.005165	-0.007364	0.000860	
 8863	    0	5.282217	-9.096479	-7.418306	0.471688	-0.212098	0.574495	0.053162	-0.090637	-0.074341	0.999992	0.002358	-0.001060	0.002872	
 8864	    0	4.672067	-9.095096	-8.201692	1.431485	0.870907	0.683031	0.046670	-0.090200	-0.082868	0.999959	0.007157	0.004354	0.003415	
 8865	    0	3.656441	-7.264023	-6.265367	1.798478	1.288633	0.609602	0.036377	-0.071960	-0.063538	0.999933	0.008992	0.006443	0.003048	
 8866	    0	3.001286	-4.692309	-4.057372	2.125036	1.354446	0.543228	0.029861	-0.046406	-0.041271	0.999916	0.010625	0.006772	0.002716	
 8867	    0	3.063967	-4.088783	-3.529060	2.580354	1.291131	0.537129	0.030518	-0.040344	-0.036011	0.999892	0.012901	0.006455	0.002686	
 8868	    0	3.091143	-5.352607	-3.517513	3.454406	1.219056	0.548394	0.030838	-0.052821	-0.036280	0.999828	0.017271	0.006095	0.002742	
 8869	    0	4.861325	-5.026229	-2.112769	5.211712	1.405508	0.755404	0.048645	-0.049500	-0.022766	0.999628	0.026055	0.007027	0.003777	
 8870	    0	5.363170	-1.909396	6.954004	3.282325	0.685153	0.642617	0.053932	-0.020057	0.069032	0.999854	0.016411	0.003426	0.003213	
 8871	    0	8.934782	4.375607	-4.584468	1.152811	-0.814635	-0.025940	0.089539	0.044006	-0.045227	0.999974	0.005764	-0.004073	-0.000130	
 8872	    0	19.669238	-7.318145	-17.020129	-0.069619	-1.182185	0.800521	0.197985	-0.072450	-0.169008	0.999974	-0.000348	-0.005911	0.004003	
 8873	    0	13.207739	8.097136	-4.898052	1.276411	-0.645263	0.675971	0.131958	0.081726	-0.048035	0.999969	0.006382	-0.003226	0.003380	
 8874	    0	10.235850	24.920094	1.239554	0.198365	-0.474549	0.261689	0.102002	0.249322	0.012885	0.999995	0.000992	-0.002373	0.001308	
 8875	    0	13.210336	22.172058	-2.736077	-0.647548	-0.554659	-0.571444	0.132812	0.221252	-0.027710	0.999987	-0.003238	-0.002773	-0.002857	
 8876	    0	13.008397	8.807265	-1.630172	-0.635916	-0.462155	-1.325048	0.130701	0.087156	-0.016278	0.999969	-0.003180	-0.002311	-0.006625	
 8877	    0	16.838728	4.588054	-0.864025	0.396737	-0.297362	-2.169082	0.168884	0.044067	-0.008301	0.999938	0.001984	-0.001487	-0.010845	
 8878	    0	17.162375	12.702259	-1.908486	0.952935	-0.165181	-2.247676	0.173053	0.125172	-0.018343	0.999925	0.004765	-0.000826	-0.011238	
 8879	    0	16.600460	11.449851	-1.974521	0.719654	-0.059510	-1.837188	0.167053	0.113037	-0.019287	0.999950	0.003598	-0.000298	-0.009186	
 8880	    0	18.194199	6.930920	-3.827407	0.458534	-0.061990	-1.894599	0.182600	0.067669	-0.038061	0.999952	0.002293	-0.000310	-0.009473	
 8881	    0	19.302175	5.520485	-5.069407	0.326546	-0.071527	-2.323967	0.193665	0.053040	-0.050537	0.999930	0.001633	-0.000358	-0.011620	
 8882	    0	19.905017	6.844249	-5.704211	0.069620	-0.087550	-2.647096	0.199958	0.065820	-0.056931	0.999912	0.000348	-0.000438	-0.013235	
 8883	    0	20.453648	7.987591	-6.055359	-0.191505	-0.079158	-2.897746	0.205688	0.076843	-0.060547	0.999894	-0.000957	-0.000396	-0.014488	
 8884	    0	19.561025	7.804939	-5.879406	-0.716620	-0.087742	-3.015830	0.196781	0.074877	-0.058980	0.999879	-0.003583	-0.000439	-0.015079	
 8885	    0	21.022238	3.880318	-4.088799	-1.252809	-0.037195	-3.219002	0.210815	0.035156	-0.041077	0.999850	-0.006264	-0.000186	-0.016094	
 8886	    0	21.720389	0.626666	-2.447917	-1.371076	0.117499	-3.331365	0.217252	0.002480	-0.024632	0.999837	-0.006855	0.000587	-0.016656	
 8887	    0	21.453199	-0.761345	-0.349642	-1.362496	0.275437	-3.407480	0.214355	-0.011292	-0.003723	0.999830	-0.006812	0.001377	-0.017036	
 8888	    0	20.409966	-1.158245	1.430485	-1.212950	0.458934	-3.413390	0.203896	-0.014978	0.013921	0.999833	-0.006064	0.002295	-0.017066	
 8889	    0	18.612926	-1.389524	1.807135	-1.250526	0.571664	-3.357881	0.185913	-0.016907	0.017639	0.999835	-0.006252	0.002858	-0.016788	
 8890	    0	16.617024	-1.687424	1.161881	-1.241938	0.610574	-3.223012	0.165905	-0.019479	0.011228	0.999846	-0.006209	0.003053	-0.016114	
 8891	    0	14.716985	-1.513887	-0.084713	-1.240598	0.648720	-3.060295	0.146912	-0.017395	-0.001221	0.999858	-0.006203	0.003243	-0.015301	
 8892	    0	13.090336	-2.223153	-1.895821	-1.451365	0.629453	-2.833872	0.130509	-0.024221	-0.019198	0.999867	-0.007257	0.003147	-0.014169	
 8893	    0	11.468500	-5.278538	-3.421890	-1.693796	0.518248	-2.612413	0.113892	-0.054565	-0.034058	0.999875	-0.008469	0.002591	-0.013062	
 8894	    0	9.610732	-8.509102	-4.179953	-1.669372	0.440995	-2.401630	0.094982	-0.086582	-0.041291	0.999890	-0.008347	0.002205	-0.012008	
 8895	    0	7.443033	-9.302622	-3.619984	-1.177057	0.486769	-2.218688	0.073303	-0.094055	-0.035828	0.999918	-0.005885	0.002434	-0.011093	
 8896	    0	4.944821	-10.177729	-3.016748	-0.615704	0.504885	-2.043574	0.048328	-0.102367	-0.029976	0.999939	-0.003078	0.002524	-0.010218	
 8897	    0	2.465221	-11.703563	-3.194242	-0.324254	0.393111	-1.861601	0.023499	-0.117310	-0.031799	0.999953	-0.001621	0.001966	-0.009308	
 8898	    0	0.902621	-11.962907	-3.695887	-0.284771	0.287059	-1.643010	0.007990	-0.119750	-0.036800	0.999964	-0.001424	0.001435	-0.008215	
 8899	    0	0.610906	-12.602724	-3.605918	-0.183107	0.216867	-1.399243	0.005188	-0.126099	-0.035950	0.999974	-0.000916	0.001084	-0.006996	
 8900	    0	0.666018	-13.393346	-2.966849	-0.029373	0.184823	-1.084905	0.005906	-0.133971	-0.029655	0.999985	-0.000147	0.000924	-0.005424	
 8901	    0	1.246769	-13.838780	-1.172910	0.055123	0.206757	-0.711824	0.011963	-0.138428	-0.011780	0.999992	0.000276	0.001034	-0.003559	
 8902	    0	1.717420	-13.997323	1.680171	0.012398	0.233269	-0.430489	0.016892	-0.140011	0.016773	0.999996	0.000062	0.001166	-0.002152	
 8903	    0	1.904596	-12.274842	3.318485	0.225830	0.275612	-0.178528	0.018982	-0.122803	0.033020	0.999997	0.001129	0.001378	-0.000893	
 8904	    0	2.214337	-10.341151	1.996498	0.336266	0.244522	0.109863	0.022224	-0.103433	0.019764	0.999997	0.001681	0.001223	0.000549	
 8905	    0	3.372092	-9.455122	0.646761	0.175667	0.218201	0.439454	0.033936	-0.094482	0.006348	0.999996	0.000878	0.001091	0.002197	
 8906	    0	4.107218	-8.125488	0.740712	-0.029945	0.220299	0.728990	0.041376	-0.081103	0.007374	0.999992	-0.000150	0.001101	0.003645	
 8907	    0	4.406092	-7.358770	0.648571	-0.093651	0.227357	0.994877	0.044434	-0.073364	0.006470	0.999987	-0.000468	0.001137	0.004974	
 8908	    0	4.683998	-6.465626	-0.510361	-0.036240	0.205423	1.210793	0.047225	-0.064372	-0.005140	0.999981	-0.000181	0.001027	0.006054	
 8909	    0	5.081458	-4.863757	-1.199277	-0.085259	0.202944	1.425946	0.051147	-0.048279	-0.012024	0.999973	-0.000426	0.001015	0.007130	
 8910	    0	6.123242	-3.308085	-2.269452	-0.114442	0.176241	1.613635	0.061477	-0.032598	-0.022730	0.999967	-0.000572	0.000881	0.008068	
 8911	    0	8.642229	-2.337325	-3.343111	-0.020409	0.042725	1.692983	0.086609	-0.022644	-0.033447	0.999964	-0.000102	0.000214	0.008465	
 8912	    0	12.586102	-2.233246	-4.980262	0.048447	-0.180628	1.631183	0.126082	-0.021293	-0.049694	0.999966	0.000242	-0.000903	0.008156	
 8913	    0	18.540520	-2.204380	-6.076086	0.107575	-0.374416	1.422895	0.185669	-0.020691	-0.060425	0.999972	0.000538	-0.001872	0.007114	
 8914	    0	24.837643	0.145255	-5.367400	0.286295	-0.392726	1.182946	0.248466	0.002998	-0.053183	0.999979	0.001431	-0.001964	0.005915	
 8915	    0	26.725537	4.555767	-3.013242	0.576026	-0.387387	1.470963	0.266968	0.047607	-0.029480	0.999967	0.002880	-0.001937	0.007355	
 8916	    0	24.696274	6.562566	-3.043215	0.600254	-0.448236	2.045672	0.246341	0.068237	-0.029677	0.999940	0.003001	-0.002241	0.010228	
 8917	    0	24.572365	5.694248	-3.693561	0.594346	-0.561348	2.402561	0.245117	0.059998	-0.036072	0.999919	0.002972	-0.002807	0.012012	
 8918	    0	25.311070	5.517463	-4.179741	0.695822	-0.693151	2.493742	0.252538	0.058469	-0.040722	0.999909	0.003479	-0.003466	0.012468	
 8919	    0	24.838247	7.582842	-4.278100	0.584622	-0.895720	2.591790	0.247559	0.079163	-0.041443	0.999901	0.002923	-0.004478	0.012959	
 8920	    0	24.989241	9.393245	-4.378654	0.454729	-1.116794	2.709488	0.248827	0.097405	-0.042176	0.999889	0.002274	-0.005584	0.013547	
 8921	    0	24.905737	10.033801	-4.390718	0.576805	-1.156471	2.804677	0.247864	0.103943	-0.042175	0.999881	0.002884	-0.005782	0.014023	
 8922	    0	23.405733	10.081455	-4.125072	0.850141	-0.921479	2.904441	0.232744	0.104372	-0.039738	0.999874	0.004251	-0.004607	0.014522	
 8923	    0	21.925747	9.873494	-3.831488	1.052140	-0.561357	3.024425	0.217834	0.102234	-0.037170	0.999867	0.005260	-0.002807	0.015121	
 8924	    0	20.320465	8.806783	-3.038385	1.233153	-0.239192	2.942020	0.201914	0.091228	-0.029586	0.999871	0.006166	-0.001196	0.014709	
 8925	    0	16.868618	8.162282	-1.917740	1.350646	0.073245	2.733718	0.167542	0.084045	-0.018677	0.999884	0.006753	0.000366	0.013668	
 8926	    0	13.175586	8.881102	-0.519770	1.413203	0.384344	2.465142	0.130638	0.090461	-0.004814	0.999897	0.007066	0.001922	0.012325	
 8927	    0	10.288503	9.745661	0.173630	1.341287	0.625820	2.208775	0.101807	0.098572	0.002075	0.999911	0.006706	0.003129	0.011044	
 8928	    0	8.476167	9.944410	-0.185246	1.083590	0.767916	1.940200	0.083785	0.100269	-0.001634	0.999930	0.005418	0.003839	0.009701	
 8929	    0	6.791100	10.267342	0.733819	0.728047	0.792707	1.674680	0.067078	0.103210	0.007446	0.999950	0.003640	0.003963	0.008373	
 8930	    0	5.417375	7.117893	1.408729	0.423245	0.673111	1.447313	0.053704	0.071539	0.014057	0.999966	0.002116	0.003366	0.007236	
 8931	    0	4.636574	7.373960	0.207993	-0.163080	0.553899	1.278697	0.045898	0.074036	0.001892	0.999975	-0.000815	0.002769	0.006393	
 8932	    0	3.079936	6.923311	1.384977	-0.011635	0.507740	1.205071	0.030416	0.069418	0.013768	0.999978	-0.000058	0.002539	0.006025	
 8933	    0	2.053759	7.147069	0.581817	-0.290491	0.374606	1.136787	0.020142	0.071594	0.005676	0.999981	-0.001452	0.001873	0.005684	
 8934	    0	1.051347	7.419794	0.609351	-0.901992	0.266840	0.966842	0.010162	0.074274	0.005745	0.999977	-0.004510	0.001334	0.004834	
 8935	    0	-0.179081	6.713569	0.933131	-1.615738	0.047303	0.852978	-0.002075	0.067200	0.008789	0.999958	-0.008079	0.000237	0.004265	
 8936	    0	-1.090729	4.226066	0.989309	-1.647399	-0.301365	0.638780	-0.011057	0.042305	0.009528	0.999959	-0.008237	-0.001507	0.003194	
 8937	    0	-1.846920	1.509547	-1.903245	-1.724079	-0.701152	0.408942	-0.018433	0.014893	-0.019226	0.999954	-0.008620	-0.003506	0.002045	
 8938	    0	-1.816042	0.246357	-2.377881	-1.632334	-0.993744	0.138285	-0.018044	0.002256	-0.023888	0.999953	-0.008162	-0.004969	0.000691	
 8939	    0	-1.299239	-0.372756	-1.702984	-1.553945	-1.387049	-0.231938	-0.012878	-0.003845	-0.017090	0.999945	-0.007770	-0.006935	-0.001160	
 8940	    0	-0.548557	-0.492589	-2.467885	-2.178266	-1.804604	-0.427070	-0.005274	-0.005183	-0.024672	0.999897	-0.010891	-0.009023	-0.002135	
 8941	    0	1.175125	-1.646541	-1.756284	-2.691594	-2.143204	-0.421927	0.011902	-0.016724	-0.017212	0.999849	-0.013457	-0.010715	-0.002110	
 8942	    0	3.615951	-5.524458	-0.441122	-2.253046	-2.011948	-0.229654	0.036134	-0.055328	-0.003425	0.999885	-0.011265	-0.010059	-0.001148	
 8943	    0	5.800425	-9.910969	-1.729533	-1.177805	-1.428243	0.087739	0.058167	-0.099182	-0.016296	0.999956	-0.005889	-0.007141	0.000439	
 8944	    0	6.399079	-9.791767	-5.238461	0.032234	-0.465775	0.395966	0.064306	-0.097782	-0.052251	0.999995	0.000161	-0.002329	0.001980	
 8945	    0	5.275698	-7.199410	-7.973927	0.942428	0.699620	0.548557	0.052673	-0.071472	-0.080261	0.999979	0.004712	0.003498	0.002743	
 8946	    0	3.598957	-4.464785	-7.199183	1.432256	1.543648	0.534831	0.035549	-0.044034	-0.072584	0.999941	0.007161	0.007718	0.002674	
 8947	    0	2.563205	-2.256278	-3.894028	1.778461	1.802303	0.457776	0.025330	-0.022156	-0.039368	0.999917	0.008892	0.009011	0.002289	
 8948	    0	2.919552	-3.245871	-1.214485	1.932388	1.657913	0.324640	0.029144	-0.032290	-0.012699	0.999917	0.009662	0.008289	0.001623	
 8949	    0	3.036043	-6.554332	-1.992893	2.637769	1.355030	0.161749	0.030273	-0.065247	-0.020996	0.999889	0.013188	0.006775	0.000809	
 8950	    0	5.227277	-6.088862	4.853723	3.379820	1.306035	0.519209	0.052743	-0.061557	0.047157	0.999832	0.016898	0.006530	0.002596	
 8951	    0	8.556859	0.011612	3.534590	1.630611	0.015259	0.259402	0.085571	-0.000061	0.035339	0.999966	0.008153	0.000076	0.001297	
 8952	    0	17.832828	-5.491764	-17.964401	-0.046158	-1.279267	-0.067521	0.179454	-0.055019	-0.178486	0.999979	-0.000231	-0.006396	-0.000338	
 8953	    0	17.317702	-5.748161	-10.828583	-0.035858	-0.983244	0.639347	0.173889	-0.056946	-0.107422	0.999982	-0.000179	-0.004916	0.003197	
 8954	    0	8.244230	17.321834	-4.482288	1.309598	-0.534826	0.589186	0.082048	0.173748	-0.043467	0.999970	0.006548	-0.002674	0.002946	
 8955	    0	11.397544	23.720090	-0.023856	-0.031090	-0.376129	-0.032043	0.114014	0.237183	-0.000061	0.999998	-0.000155	-0.001881	-0.000160	
 8956	    0	11.716591	16.042042	-2.948553	-0.479702	-0.506596	-1.181040	0.118185	0.159654	-0.029571	0.999976	-0.002398	-0.002533	-0.005905	
 8957	    0	13.357993	9.843242	-2.283650	0.496110	-0.380714	-1.966893	0.134583	0.097168	-0.022339	0.999947	0.002481	-0.001904	-0.009834	
 8958	    0	16.389964	13.684862	-0.755991	0.943595	-0.306139	-2.540667	0.165631	0.134785	-0.006668	0.999907	0.004718	-0.001531	-0.012703	
 8959	    0	18.171500	16.823074	-1.875472	0.806446	-0.150112	-2.234702	0.183594	0.166260	-0.017944	0.999928	0.004032	-0.000751	-0.011173	
 8960	    0	19.325134	10.810642	-1.540262	0.352867	-0.108530	-2.199791	0.194433	0.105999	-0.015109	0.999937	0.001764	-0.000543	-0.010999	
 8961	    0	21.694493	6.885855	-3.117486	0.131992	-0.058557	-2.442230	0.217773	0.066223	-0.031067	0.999925	0.000660	-0.000293	-0.012211	
 8962	    0	22.316445	8.765628	-4.146434	0.041391	-0.005913	-2.780813	0.224356	0.084551	-0.041440	0.999903	0.000207	-0.000030	-0.013904	
 8963	    0	22.267183	9.309847	-4.726483	-0.067904	0.060465	-2.951920	0.223999	0.089783	-0.047363	0.999890	-0.000340	0.000302	-0.014759	
 8964	    0	22.094632	7.918044	-4.298637	-0.314917	0.150305	-3.179495	0.222135	0.075587	-0.043274	0.999871	-0.001575	0.000751	-0.015897	
 8965	    0	21.222424	7.334969	-4.363708	-0.837555	0.182351	-3.195336	0.213318	0.069763	-0.044128	0.999863	-0.004188	0.000912	-0.015976	
 8966	    0	21.849747	4.411367	-2.507012	-1.295349	0.292412	-3.315339	0.219150	0.040319	-0.025660	0.999840	-0.006476	0.001462	-0.016576	
 8967	    0	21.848996	1.835063	-0.556680	-1.293829	0.453212	-3.462419	0.218750	0.014526	-0.006165	0.999826	-0.006469	0.002266	-0.017311	
 8968	    0	20.330470	1.662775	-0.242276	-1.334841	0.576244	-3.466810	0.203544	0.013082	-0.003104	0.999823	-0.006674	0.002881	-0.017333	
 8969	    0	18.933610	0.904052	0.020931	-1.757161	0.608292	-3.421237	0.189453	0.005798	-0.000427	0.999810	-0.008785	0.003041	-0.017105	
 8970	    0	17.542592	-0.980416	-0.038867	-2.238618	0.619549	-3.330269	0.175228	-0.012731	-0.000800	0.999793	-0.011192	0.003098	-0.016650	
 8971	    0	15.662701	-2.013899	-0.912055	-2.580447	0.561755	-3.207628	0.156250	-0.022766	-0.009277	0.999784	-0.012901	0.002809	-0.016037	
 8972	    0	13.739328	-3.487160	-2.527723	-2.821934	0.410300	-3.012492	0.136792	-0.037290	-0.025043	0.999784	-0.014109	0.002051	-0.015061	
 8973	    0	11.868396	-6.766808	-3.880154	-2.973382	0.219170	-2.794842	0.117676	-0.069885	-0.037903	0.999791	-0.014866	0.001096	-0.013973	
 8974	    0	9.926716	-10.655788	-4.356849	-2.975467	0.101668	-2.606180	0.097840	-0.108472	-0.042014	0.999804	-0.014876	0.000508	-0.013030	
 8975	    0	7.638307	-12.052874	-4.316643	-2.459838	0.200854	-2.388118	0.074890	-0.121948	-0.041748	0.999852	-0.012299	0.001004	-0.011940	
 8976	    0	5.463144	-11.828637	-4.465426	-1.710184	0.425925	-2.161668	0.053252	-0.119244	-0.043752	0.999903	-0.008551	0.002130	-0.010808	
 8977	    0	3.732271	-12.015401	-4.674821	-1.264219	0.523579	-1.873821	0.036072	-0.120789	-0.046082	0.999932	-0.006321	0.002618	-0.009369	
 8978	    0	2.607288	-13.598534	-4.258842	-1.194401	0.438697	-1.533343	0.024936	-0.136431	-0.041830	0.999949	-0.005972	0.002193	-0.007667	
 8979	    0	2.080119	-15.162271	-3.407443	-1.029979	0.323681	-1.199354	0.019836	-0.151917	-0.033325	0.999967	-0.005150	0.001618	-0.005997	
 8980	    0	1.875137	-14.538607	-3.018936	-0.531962	0.281526	-0.951772	0.018017	-0.145553	-0.029828	0.999984	-0.002660	0.001408	-0.004759	
 8981	    0	1.490349	-13.605974	-1.601166	0.024605	0.327302	-0.695040	0.014404	-0.136108	-0.016052	0.999992	0.000123	0.001637	-0.003475	
 8982	    0	0.904205	-13.200298	0.670509	-0.027657	0.256920	-0.426674	0.008769	-0.132021	0.006712	0.999996	-0.000138	0.001285	-0.002133	
 8983	    0	1.124333	-11.452685	1.761509	-0.368500	0.068092	-0.139618	0.011169	-0.114502	0.017822	0.999997	-0.001842	0.000340	-0.000698	
 8984	    0	2.105983	-9.666690	1.929264	-0.535966	-0.033379	0.125504	0.021117	-0.096601	0.019555	0.999996	-0.002680	-0.000167	0.000628	
 8985	    0	3.034398	-8.512523	1.787227	-0.475884	0.054169	0.396729	0.030518	-0.085022	0.018066	0.999994	-0.002379	0.000271	0.001984	
 8986	    0	3.402910	-8.280044	1.212673	-0.399591	0.189782	0.707438	0.034333	-0.082655	0.012259	0.999990	-0.001998	0.000949	0.003537	
 8987	    0	3.635209	-8.135383	0.160724	-0.219537	0.264741	0.957493	0.036743	-0.081177	0.001648	0.999987	-0.001098	0.001324	0.004787	
 8988	    0	3.776566	-7.576034	-1.282450	0.018883	0.260927	1.169021	0.038191	-0.075537	-0.012881	0.999982	0.000094	0.001305	0.005845	
 8989	    0	4.470792	-6.151576	-2.578106	0.336459	0.248148	1.400769	0.045105	-0.061157	-0.025940	0.999972	0.001682	0.001241	0.007004	
 8990	    0	5.760939	-4.649578	-3.831427	0.772297	0.313382	1.657510	0.057931	-0.045868	-0.038583	0.999956	0.003861	0.001567	0.008287	
 8991	    0	7.388184	-3.263826	-5.806194	1.223779	0.248914	1.798284	0.074097	-0.031616	-0.058350	0.999940	0.006119	0.001245	0.008991	
 8992	    0	9.925617	-2.331814	-7.596988	1.458200	0.059129	1.756325	0.099430	-0.021891	-0.076162	0.999934	0.007291	0.000296	0.008781	
 8993	    0	14.709998	-1.856765	-7.746545	1.446561	-0.104334	1.577789	0.147278	-0.016846	-0.077515	0.999942	0.007233	-0.000522	0.007889	
 8994	    0	22.469152	-0.864240	-6.129506	1.239412	-0.120928	1.344509	0.224778	-0.006752	-0.061205	0.999957	0.006197	-0.000605	0.006722	
 8995	    0	26.776560	3.572219	-2.830540	0.985921	-0.125887	1.435107	0.267517	0.037781	-0.027954	0.999962	0.004930	-0.000629	0.007175	
 8996	    0	21.111272	7.557717	-0.969008	0.840394	-0.192455	1.991883	0.210355	0.077714	-0.009164	0.999941	0.004202	-0.000962	0.009959	
 8997	    0	18.543726	7.059308	-2.558386	0.725574	-0.388156	2.370515	0.184631	0.072876	-0.024963	0.999921	0.003628	-0.001941	0.011852	
 8998	    0	22.102474	5.217679	-3.611986	0.794242	-0.520721	2.394742	0.220470	0.054960	-0.035331	0.999917	0.003971	-0.002604	0.011973	
 8999	    0	24.724447	5.847247	-4.462460	0.873781	-0.731679	2.316348	0.246704	0.061523	-0.043457	0.999916	0.004369	-0.003658	0.011581	
 9000	    0	25.865779	7.714061	-5.135537	0.753616	-1.026565	2.338288	0.257989	0.080349	-0.049731	0.999911	0.003768	-0.005133	0.011691	
 9001	    0	26.605063	9.617450	-5.218931	0.654815	-1.323744	2.416310	0.265198	0.099548	-0.050110	0.999899	0.003274	-0.006618	0.012081	
 9002	    0	26.464602	10.659220	-5.051810	0.882182	-1.465471	2.457711	0.263666	0.110052	-0.048103	0.999887	0.004411	-0.007327	0.012288	
 9003	    0	24.376590	10.955853	-5.528989	1.158381	-1.368770	2.606310	0.242676	0.113037	-0.052979	0.999874	0.005792	-0.006844	0.013031	
 9004	    0	22.597584	10.352845	-5.503976	1.434390	-0.988623	2.779132	0.224771	0.107043	-0.053167	0.999865	0.007172	-0.004943	0.013895	
 9005	    0	20.644099	10.247639	-4.130703	1.751791	-0.520158	2.805459	0.205078	0.105713	-0.039856	0.999860	0.008759	-0.002601	0.014027	
 9006	    0	17.533294	10.217404	-2.492053	2.007009	-0.116354	2.750148	0.173918	0.104815	-0.023776	0.999854	0.010035	-0.000582	0.013750	
 9007	    0	13.979608	10.529421	-1.137053	1.968469	0.078014	2.560536	0.138428	0.107178	-0.010376	0.999869	0.009842	0.000390	0.012802	
 9008	    0	10.470145	11.130796	-0.038357	1.826737	0.342954	2.362340	0.103377	0.112533	0.000463	0.999887	0.009133	0.001715	0.011811	
 9009	    0	8.032374	11.663621	0.501383	1.606800	0.547998	2.111881	0.079102	0.117432	0.005737	0.999907	0.008034	0.002740	0.010559	
 9010	    0	6.427405	11.090320	0.205743	1.186015	0.666824	1.833002	0.063262	0.111472	0.002505	0.999934	0.005930	0.003334	0.009165	
 9011	    0	5.123380	10.184660	2.672998	0.948539	0.690471	1.548028	0.050537	0.102112	0.027039	0.999952	0.004743	0.003452	0.007740	
 9012	    0	3.568129	6.711774	2.211384	0.686082	0.565345	1.464671	0.035252	0.067301	0.022244	0.999963	0.003430	0.002827	0.007323	
 9013	    0	3.132199	6.916469	2.443060	0.741013	0.579077	1.294722	0.030945	0.069275	0.024597	0.999968	0.003705	0.002895	0.006474	
 9014	    0	1.985702	7.345462	1.899868	0.553707	0.455669	1.046569	0.019516	0.073504	0.019157	0.999979	0.002769	0.002278	0.005233	
 9015	    0	1.026156	8.209442	1.761357	-0.187493	0.387575	0.844577	0.009949	0.082153	0.017517	0.999989	-0.000937	0.001938	0.004223	
 9016	    0	0.502981	5.916193	2.628503	-0.917821	0.222207	0.684170	0.004856	0.059299	0.026008	0.999983	-0.004589	0.001111	0.003421	
 9017	    0	-0.315584	2.960603	2.287024	-1.103980	-0.081444	0.469974	-0.003235	0.029724	0.022705	0.999982	-0.005520	-0.000407	0.002350	
 9018	    0	-1.495521	0.343278	-0.716867	-0.937275	-0.400545	0.193406	-0.014944	0.003385	-0.007215	0.999986	-0.004686	-0.002003	0.000967	
 9019	    0	-2.207062	-0.163800	-2.549827	-1.116952	-0.773436	-0.096894	-0.021973	-0.001770	-0.025574	0.999976	-0.005585	-0.003867	-0.000484	
 9020	    0	-1.805904	-0.647196	-2.171897	-1.567488	-1.347567	-0.363166	-0.017924	-0.006610	-0.021789	0.999945	-0.007837	-0.006738	-0.001816	
 9021	    0	-0.027026	-2.409005	-2.129737	-2.497018	-1.969995	-0.491354	-0.000122	-0.024353	-0.020996	0.999870	-0.012485	-0.009850	-0.002457	
 9022	    0	2.701229	-5.020286	-1.381274	-3.289451	-2.367756	-0.440628	0.027056	-0.050477	-0.012664	0.999792	-0.016446	-0.011838	-0.002203	
 9023	    0	5.228192	-7.440047	0.167057	-3.007694	-2.407032	-0.168620	0.052185	-0.074402	0.003418	0.999814	-0.015038	-0.012034	-0.000843	
 9024	    0	6.568316	-8.827676	-1.905306	-1.943846	-2.096630	0.293933	0.066002	-0.088355	-0.017504	0.999896	-0.009719	-0.010483	0.001470	
 9025	    0	6.302036	-8.223442	-7.486138	-0.700957	-1.116191	0.692755	0.063721	-0.082275	-0.074219	0.999971	-0.003505	-0.005581	0.003464	
 9026	    0	4.857824	-6.958454	-9.977682	0.415041	0.233460	0.870517	0.048763	-0.069165	-0.099977	0.999988	0.002075	0.001167	0.004353	
 9027	    0	3.519409	-6.306251	-6.631380	1.235408	1.101701	0.856793	0.035095	-0.062500	-0.066895	0.999956	0.006177	0.005508	0.004284	
 9028	    0	3.042866	-5.391451	-3.090315	1.831861	1.357111	0.741023	0.030415	-0.053514	-0.031601	0.999928	0.009159	0.006785	0.003705	
 9029	    0	3.358993	-4.501750	-2.326476	2.463045	1.381732	0.642417	0.033569	-0.044617	-0.024048	0.999895	0.012315	0.006908	0.003212	
 9030	    0	3.104381	-5.289201	-2.692790	3.616942	1.312339	0.565946	0.031011	-0.052303	-0.028081	0.999810	0.018084	0.006561	0.002830	
 9031	    0	4.723049	-5.983163	2.668394	5.077409	1.587871	0.988890	0.047729	-0.060242	0.024780	0.999634	0.025384	0.007938	0.004944	
 9032	    0	4.068704	-2.347345	7.136038	2.887259	0.318920	0.559827	0.040868	-0.024385	0.070948	0.999890	0.014436	0.001595	0.002799	
 9033	    0	8.763806	5.112373	-9.986099	1.430720	-0.981915	-0.035096	0.088135	0.051819	-0.099060	0.999962	0.007154	-0.004910	-0.000175	
 9034	    0	17.521093	6.499954	-13.008705	0.053597	-1.188096	0.594906	0.175785	0.065557	-0.129026	0.999977	0.000268	-0.005940	0.002975	
 9035	    0	13.406805	18.442641	-6.150630	0.064087	-0.797084	0.367738	0.133972	0.184692	-0.060913	0.999990	0.000320	-0.003985	0.001839	
 9036	    0	13.031390	20.020892	2.189170	-0.602343	-0.572016	-0.178338	0.130430	0.200158	0.021662	0.999990	-0.003012	-0.002860	-0.000892	
 9037	    0	14.173200	20.662900	-2.936334	-0.538449	-0.614172	-1.207744	0.143066	0.205688	-0.029480	0.999973	-0.002692	-0.003071	-0.006039	
 9038	    0	15.088893	9.948655	-2.668713	-0.029946	-0.459486	-1.728653	0.151802	0.098173	-0.026354	0.999960	-0.000150	-0.002297	-0.008643	
 9039	    0	19.151789	8.881648	-0.592436	0.616471	-0.359163	-2.378143	0.192566	0.086548	-0.005310	0.999923	0.003082	-0.001796	-0.011890	
 9040	    0	18.687091	14.793971	-2.188990	0.663199	-0.191120	-2.141044	0.188461	0.145999	-0.021224	0.999936	0.003316	-0.000956	-0.010705	
 9041	    0	17.495642	10.171964	-1.485436	0.123026	-0.164034	-1.857785	0.175903	0.100098	-0.014648	0.999956	0.000615	-0.000820	-0.009289	
 9042	    0	19.954253	6.483292	-4.146616	0.174907	-0.112726	-2.045858	0.200215	0.062823	-0.041298	0.999947	0.000875	-0.000564	-0.010229	
 9043	    0	20.871756	6.926807	-4.732497	0.218397	-0.067903	-2.550576	0.209595	0.066650	-0.047180	0.999918	0.001092	-0.000340	-0.012753	
 9044	    0	21.520021	8.408331	-6.441360	0.061228	-0.040819	-2.903659	0.216404	0.080967	-0.064344	0.999894	0.000306	-0.000204	-0.014518	
 9045	    0	21.130759	8.323038	-6.578614	-0.485822	-0.061038	-3.108344	0.212585	0.079773	-0.065918	0.999876	-0.002429	-0.000305	-0.015541	
 9046	    0	21.158693	6.660155	-5.696331	-1.072938	-0.028421	-3.325059	0.212660	0.062765	-0.057277	0.999847	-0.005364	-0.000142	-0.016624	
 9047	    0	21.623728	2.524530	-4.380358	-1.467026	0.034334	-3.402142	0.216614	0.021240	-0.044006	0.999828	-0.007335	0.000172	-0.017010	
 9048	    0	21.641164	-0.015997	-2.437425	-1.556110	0.153932	-3.489516	0.216344	-0.004126	-0.024519	0.999817	-0.007780	0.000770	-0.017447	
 9049	    0	20.790644	-0.886205	-0.082780	-1.402941	0.337240	-3.565436	0.207703	-0.012573	-0.001099	0.999815	-0.007014	0.001686	-0.017826	
 9050	    0	19.082785	-0.616757	0.509388	-1.486489	0.442723	-3.539496	0.190690	-0.009507	0.004734	0.999813	-0.007432	0.002213	-0.017696	
 9051	    0	17.131820	-1.228347	0.414553	-2.033944	0.448639	-3.452535	0.171082	-0.015198	0.003906	0.999796	-0.010169	0.002243	-0.017262	
 9052	    0	15.408513	-2.203088	0.152253	-2.457601	0.437386	-3.263512	0.153702	-0.024523	0.001477	0.999788	-0.012287	0.002187	-0.016316	
 9053	    0	13.585506	-2.963017	-0.420881	-2.602371	0.419645	-3.031362	0.135376	-0.031738	-0.004089	0.999798	-0.013011	0.002098	-0.015156	
 9054	    0	11.760314	-4.636932	-1.333510	-2.686286	0.350020	-2.750568	0.116926	-0.048156	-0.012901	0.999813	-0.013431	0.001750	-0.013752	
 9055	    0	10.155927	-7.092826	-2.641474	-2.712210	0.267807	-2.438490	0.100647	-0.072510	-0.025574	0.999832	-0.013560	0.001339	-0.012192	
 9056	    0	8.503563	-9.206356	-3.525986	-2.629221	0.274481	-2.242964	0.083945	-0.093463	-0.034153	0.999849	-0.013145	0.001372	-0.011214	
 9057	    0	6.456053	-9.779294	-3.954075	-2.241603	0.431268	-2.030261	0.063477	-0.098877	-0.038574	0.999883	-0.011208	0.002156	-0.010151	
 9058	    0	4.694736	-10.063951	-4.196808	-1.728485	0.564209	-1.738976	0.045951	-0.101400	-0.041224	0.999921	-0.008642	0.002821	-0.008695	
 9059	    0	3.422717	-11.651407	-4.623363	-1.353478	0.533495	-1.438929	0.033264	-0.117065	-0.045532	0.999948	-0.006767	0.002667	-0.007195	
 9060	    0	2.534767	-14.100009	-4.559281	-1.155104	0.401120	-1.169409	0.024431	-0.141405	-0.044827	0.999964	-0.005775	0.002006	-0.005847	
 9061	    0	1.976055	-15.151699	-4.413802	-0.853735	0.287058	-0.943763	0.018982	-0.151794	-0.043518	0.999978	-0.004269	0.001435	-0.004719	
 9062	    0	1.253385	-14.660499	-4.014162	-0.328256	0.296975	-0.733950	0.011936	-0.146715	-0.039919	0.999990	-0.001641	0.001485	-0.003670	
 9063	    0	0.137771	-13.971645	-1.811028	0.109291	0.332642	-0.531007	0.000977	-0.139709	-0.018188	0.999994	0.000546	0.001663	-0.002655	
 9064	    0	0.090122	-13.665003	0.222569	0.267601	0.264359	-0.270653	0.000719	-0.136654	0.002042	0.999997	0.001338	0.001322	-0.001353	
 9065	    0	1.446700	-12.535439	0.592943	0.387574	0.141335	-0.009155	0.014465	-0.125366	0.005676	0.999997	0.001938	0.000707	-0.000046	
 9066	    0	2.675462	-10.410534	0.675468	0.608636	0.118065	0.186348	0.026855	-0.104100	0.006422	0.999994	0.003043	0.000590	0.000932	
 9067	    0	3.063680	-8.550829	0.233077	0.692751	0.133706	0.431825	0.030823	-0.085449	0.002014	0.999991	0.003464	0.000669	0.002159	
 9068	    0	3.243351	-7.449933	-0.157499	0.597002	0.155449	0.723842	0.032701	-0.074376	-0.001822	0.999989	0.002985	0.000777	0.003619	
 9069	    0	3.952892	-6.710791	-0.695891	0.459483	0.142670	0.991826	0.039856	-0.066895	-0.007141	0.999985	0.002297	0.000713	0.004959	
 9070	    0	5.106640	-5.323884	-1.546696	0.389102	0.177003	1.235780	0.051380	-0.052892	-0.015615	0.999978	0.001945	0.000885	0.006179	
 9071	    0	6.383285	-3.735817	-1.426551	0.312808	0.252726	1.470199	0.064087	-0.036865	-0.014404	0.999970	0.001564	0.001264	0.007351	
 9072	    0	8.117246	-2.305902	-2.124993	0.416952	0.240520	1.702331	0.081339	-0.022323	-0.021395	0.999960	0.002085	0.001203	0.008512	
 9073	    0	10.660029	-1.267338	-3.720225	0.576982	0.104524	1.817349	0.106689	-0.011597	-0.037292	0.999954	0.002885	0.000523	0.009087	
 9074	    0	14.979048	-0.591189	-4.583412	0.640688	-0.004005	1.750590	0.149835	-0.004454	-0.045847	0.999956	0.003203	-0.000020	0.008753	
 9075	    0	22.032625	0.603028	-4.014417	0.598151	-0.020409	1.509111	0.220276	0.007812	-0.040100	0.999967	0.002991	-0.000102	0.007545	
 9076	    0	28.349555	3.798054	-2.448778	0.426487	-0.117303	1.446166	0.283225	0.040081	-0.024238	0.999971	0.002132	-0.000587	0.007231	
 9077	    0	25.802433	8.477235	-1.439862	0.309758	-0.176051	1.931031	0.257202	0.087280	-0.014038	0.999951	0.001549	-0.000880	0.009655	
 9078	    0	22.212172	7.488485	-2.292621	0.061418	-0.320443	2.429069	0.221227	0.077582	-0.022548	0.999925	0.000307	-0.001602	0.012145	
 9079	    0	24.249050	5.695224	-3.456135	0.071146	-0.499739	2.556682	0.241821	0.060059	-0.033936	0.999914	0.000356	-0.002499	0.012783	
 9080	    0	26.232383	6.190126	-4.759641	0.178152	-0.685712	2.577477	0.261658	0.065318	-0.046641	0.999910	0.000891	-0.003428	0.012887	
 9081	    0	26.333318	8.280729	-5.759136	0.148778	-0.907737	2.675718	0.262451	0.086365	-0.056335	0.999900	0.000744	-0.004539	0.013378	
 9082	    0	25.609426	10.381885	-5.713540	0.102047	-1.136251	2.821650	0.254914	0.107450	-0.055631	0.999884	0.000510	-0.005681	0.014108	
 9083	    0	24.592438	11.018676	-5.506735	0.293172	-1.271111	2.909211	0.244629	0.113831	-0.053345	0.999872	0.001466	-0.006355	0.014545	
 9084	    0	22.852520	10.712258	-5.565419	0.688965	-1.132825	2.983416	0.227201	0.110706	-0.053988	0.999866	0.003445	-0.005664	0.014916	
 9085	    0	21.206060	10.197295	-5.356746	1.169068	-0.789679	3.019854	0.210693	0.105469	-0.052124	0.999861	0.005845	-0.003948	0.015099	
 9086	    0	18.493502	9.751265	-4.801657	1.512980	-0.394077	2.959771	0.183555	0.100594	-0.046901	0.999860	0.007565	-0.001970	0.014798	
 9087	    0	15.114253	9.763291	-3.801485	1.657368	-0.110631	2.787140	0.149780	0.100037	-0.037109	0.999868	0.008286	-0.000553	0.013935	
 9088	    0	11.814849	9.989865	-2.441222	1.712674	0.143057	2.499485	0.116869	0.101569	-0.023631	0.999885	0.008563	0.000715	0.012497	
 9089	    0	9.128900	10.728696	-1.518068	1.717433	0.334369	2.178263	0.090088	0.108398	-0.014404	0.999902	0.008587	0.001672	0.010891	
 9090	    0	6.907099	10.981096	-1.224450	1.633306	0.505652	1.864102	0.068013	0.110544	-0.011517	0.999920	0.008166	0.002528	0.009320	
 9091	    0	5.213097	11.407294	-0.274463	1.436073	0.589001	1.601443	0.051208	0.114502	-0.002075	0.999937	0.007180	0.002945	0.008007	
 9092	    0	3.901982	8.547171	1.253183	1.390862	0.516710	1.372933	0.038465	0.085648	0.013027	0.999949	0.006954	0.002584	0.006865	
 9093	    0	2.848482	8.110620	-0.250957	0.914202	0.419621	1.294723	0.027954	0.081299	-0.002197	0.999966	0.004571	0.002098	0.006474	
 9094	    0	1.793965	8.091568	0.846189	0.893601	0.380901	1.150714	0.017490	0.080978	0.008790	0.999971	0.004468	0.001904	0.005754	
 9095	    0	0.612649	8.435724	1.197247	0.577739	0.310518	0.967413	0.005737	0.084351	0.012207	0.999983	0.002889	0.001553	0.004837	
 9096	    0	-0.412567	8.692151	1.387677	-0.270272	0.231172	0.929646	-0.004514	0.086920	0.013764	0.999988	-0.001351	0.001156	0.004648	
 9097	    0	-0.476020	6.704778	3.493891	-0.632289	0.091553	0.776676	-0.005005	0.067139	0.034729	0.999987	-0.003161	0.000458	0.003883	
 9098	    0	-0.822071	3.188727	3.403738	-0.531198	-0.134468	0.525667	-0.008327	0.031956	0.033947	0.999992	-0.002656	-0.000672	0.002628	
 9099	    0	-0.979470	1.402830	0.944732	-0.405884	-0.395775	0.189972	-0.009827	0.014038	0.009399	0.999995	-0.002029	-0.001979	0.000950	
 9100	    0	-0.895593	0.899056	0.873046	-0.397684	-0.781634	-0.161171	-0.008983	0.009015	0.008677	0.999990	-0.001988	-0.003908	-0.000806	
 9101	    0	0.092272	0.700349	0.369002	-0.964939	-1.292435	-0.471502	0.000916	0.007019	0.003662	0.999964	-0.004825	-0.006462	-0.002357	
 9102	    0	2.104317	-0.322230	-0.492071	-2.054471	-1.767597	-0.613423	0.021075	-0.003336	-0.004701	0.999903	-0.010272	-0.008838	-0.003067	
 9103	    0	3.781756	-2.916773	-1.081597	-2.826648	-2.069963	-0.560027	0.037842	-0.029419	-0.010010	0.999842	-0.014132	-0.010349	-0.002800	
 9104	    0	4.520249	-5.860000	-2.026594	-2.783917	-2.092468	-0.308434	0.045315	-0.058940	-0.018973	0.999846	-0.013919	-0.010462	-0.001542	
 9105	    0	5.019197	-8.443089	-4.030720	-1.835678	-1.612703	0.062563	0.050537	-0.084778	-0.039124	0.999925	-0.009178	-0.008063	0.000313	
 9106	    0	5.003826	-9.923512	-6.964593	-0.710300	-0.659946	0.426867	0.050479	-0.099374	-0.069127	0.999986	-0.003551	-0.003300	0.002134	
 9107	    0	4.534930	-10.122932	-7.544350	0.205231	0.331307	0.609590	0.045532	-0.101013	-0.075623	0.999993	0.001026	0.001657	0.003048	
 9108	    0	3.200664	-8.661706	-4.430433	0.720220	0.905044	0.667005	0.032093	-0.086349	-0.044761	0.999977	0.003601	0.004525	0.003335	
 9109	    0	2.365663	-5.498155	-1.896335	0.970659	0.999461	0.663764	0.023743	-0.054810	-0.019348	0.999969	0.004853	0.004997	0.003319	
 9110	    0	2.894164	-3.556948	-0.736893	1.276985	0.918399	0.640495	0.029020	-0.035428	-0.007729	0.999964	0.006385	0.004592	0.003202	
 9111	    0	3.392170	-5.386425	-0.501276	1.891364	0.911921	0.598156	0.034058	-0.053711	-0.005676	0.999940	0.009457	0.004560	0.002991	
 9112	    0	3.960302	-6.643705	-2.043466	3.155092	0.869028	0.657684	0.039728	-0.065971	-0.021650	0.999860	0.015775	0.004345	0.003288	
 9113	    0	7.866454	-7.537638	7.328554	2.895477	0.730355	1.100205	0.079346	-0.075989	0.071899	0.999873	0.014477	0.003652	0.005501	
 9114	    0	14.378873	-4.845197	-7.428619	1.877629	-0.784316	0.565349	0.144215	-0.047348	-0.074169	0.999944	0.009388	-0.003922	0.002827	
 9115	    0	19.203796	-1.592515	-16.856845	0.571637	-1.237499	0.510411	0.193115	-0.014954	-0.167419	0.999973	0.002858	-0.006187	0.002552	
 9116	    0	10.813251	16.913545	-2.065976	0.791747	-0.777060	0.896080	0.107450	0.169697	-0.019570	0.999974	0.003959	-0.003885	0.004480	
 9117	    0	11.034554	23.361934	-0.199100	0.314522	-0.509644	0.259400	0.110046	0.233765	-0.001343	0.999994	0.001573	-0.002548	0.001297	
 9118	    0	12.821964	25.414734	-3.552366	-0.479129	-0.579074	-0.837140	0.129385	0.253522	-0.035758	0.999984	-0.002396	-0.002895	-0.004186	
 9119	    0	13.779472	16.030469	-1.604360	-0.654613	-0.563631	-1.808960	0.139282	0.158997	-0.016174	0.999949	-0.003273	-0.002818	-0.009045	
 9120	    0	18.275235	12.369622	-2.799972	0.106242	-0.357827	-2.390729	0.184263	0.121514	-0.027606	0.999927	0.000531	-0.001789	-0.011953	
 9121	    0	21.201811	12.411772	-1.554259	0.396165	-0.210576	-2.294974	0.213440	0.121704	-0.015076	0.999931	0.001981	-0.001053	-0.011475	
 9122	    0	20.420594	8.371961	-1.373100	0.521288	-0.070764	-2.065316	0.205061	0.081640	-0.013444	0.999943	0.002606	-0.000354	-0.010326	
 9123	    0	21.048162	5.895309	-3.051272	0.708024	0.023842	-2.236990	0.211121	0.056702	-0.030334	0.999930	0.003540	0.000119	-0.011185	
 9124	    0	21.772083	8.103432	-4.862851	0.466170	0.014687	-2.661786	0.218771	0.078240	-0.048460	0.999908	0.002331	0.000073	-0.013309	
 9125	    0	20.854788	11.208412	-6.946415	-0.038721	0.032045	-2.921399	0.210144	0.109009	-0.069519	0.999893	-0.000194	0.000160	-0.014606	
 9126	    0	22.143309	8.596035	-6.364653	-0.658446	0.057223	-3.203916	0.222752	0.082189	-0.063985	0.999866	-0.003292	0.000286	-0.016019	
 9127	    0	21.413381	6.429440	-6.174415	-1.243658	0.062755	-3.357113	0.215149	0.060303	-0.062195	0.999839	-0.006218	0.000314	-0.016785	
 9128	    0	21.611890	3.165482	-4.340944	-1.687724	0.153932	-3.399863	0.216578	0.027607	-0.043820	0.999819	-0.008438	0.000770	-0.016998	
 9129	    0	21.962205	-0.007283	-1.647436	-1.641187	0.358795	-3.533398	0.219543	-0.004089	-0.016846	0.999808	-0.008205	0.001794	-0.017666	
 9130	    0	20.953351	-0.081659	-0.162882	-1.446816	0.503763	-3.586043	0.209469	-0.004587	-0.002132	0.999809	-0.007234	0.002519	-0.017929	
 9131	    0	19.202559	-0.196700	0.227488	-1.683728	0.563086	-3.563163	0.191956	-0.005371	0.001770	0.999802	-0.008418	0.002815	-0.017815	
 9132	    0	17.459563	-1.256865	-0.256786	-2.145539	0.534668	-3.507484	0.174332	-0.015657	-0.002877	0.999784	-0.010727	0.002673	-0.017536	
 9133	    0	15.675668	-2.737108	-0.630326	-2.572827	0.458752	-3.373211	0.156250	-0.030090	-0.006287	0.999772	-0.012863	0.002294	-0.016865	
 9134	    0	13.409949	-3.614405	-1.774596	-2.743348	0.367001	-3.125227	0.133478	-0.038474	-0.017474	0.999782	-0.013716	0.001835	-0.015625	
 9135	    0	11.362321	-6.243659	-2.947251	-2.762787	0.276393	-2.860449	0.112671	-0.064453	-0.028748	0.999801	-0.013813	0.001382	-0.014301	
 9136	    0	9.327517	-10.485204	-3.657267	-2.715270	0.174342	-2.583655	0.091875	-0.106529	-0.035214	0.999824	-0.013576	0.000872	-0.012918	
 9137	    0	7.145235	-11.872645	-3.843657	-2.382771	0.276388	-2.330126	0.070007	-0.119995	-0.037109	0.999860	-0.011913	0.001382	-0.011650	
 9138	    0	5.510914	-10.358381	-3.842583	-1.756342	0.505082	-2.040927	0.053950	-0.104471	-0.037648	0.999906	-0.008781	0.002525	-0.010204	
 9139	    0	4.292670	-9.946589	-3.995972	-1.328306	0.626578	-1.744880	0.041931	-0.100098	-0.039429	0.999934	-0.006641	0.003133	-0.008724	
 9140	    0	3.395541	-11.877470	-4.339355	-1.370454	0.455483	-1.451136	0.032993	-0.119310	-0.042653	0.999948	-0.006852	0.002277	-0.007256	
 9141	    0	2.750482	-13.556089	-5.283726	-1.271073	0.210002	-1.144423	0.026672	-0.136047	-0.052002	0.999963	-0.006355	0.001050	-0.005722	
