// Start Time: Unknown
// Update Rate: 100.0Hz
// Filter Profile: human (34.3)
// Firmware Version: 2.1.4
PacketCounter	SampleTimeFine	Acc_X	Acc_Y	Acc_Z	Gyr_X	Gyr_Y	Gyr_Z	VelInc_X	VelInc_Y	VelInc_Z	OriInc_q0	OriInc_q1	OriInc_q2	OriInc_q3	
38180	    0	9.939030	-1.546610	-1.526914	0.255968	0.658613	-1.259052	0.099239	-0.016071	-0.015616	0.999973	0.001280	0.003293	-0.006295	
38181	    0	8.456338	-1.219733	-2.391884	0.538637	0.515939	-0.465395	0.084473	-0.012329	-0.024170	0.999990	0.002693	0.002580	-0.002327	
38182	    0	7.191941	-0.582615	-3.478408	0.732806	0.375367	0.292207	0.071862	-0.005593	-0.034940	0.999990	0.003664	0.001877	0.001461	
38183	    0	6.300240	0.663921	-3.829795	0.862319	0.197603	1.069650	0.062927	0.007141	-0.038330	0.999975	0.004312	0.000988	0.005348	
38184	    0	5.127668	1.088825	-3.869506	1.055738	0.011444	1.869428	0.051168	0.011571	-0.038638	0.999942	0.005279	0.000057	0.009347	
38185	    0	4.575974	1.888550	-3.823632	1.193279	-0.150877	2.636811	0.045532	0.019714	-0.038086	0.999894	0.005966	-0.000754	0.013184	
38186	    0	4.230365	2.707877	-4.043200	1.165835	-0.325030	3.401560	0.041898	0.028028	-0.040202	0.999837	0.005829	-0.001625	0.017007	
38187	    0	4.211491	2.479881	-4.058330	1.065908	-0.492706	4.133924	0.041687	0.025879	-0.040344	0.999768	0.005329	-0.002463	0.020668	
38188	    0	4.666947	2.151424	-3.922129	1.084820	-0.711514	4.786791	0.046272	0.022837	-0.038935	0.999692	0.005424	-0.003557	0.023932	
38189	    0	5.558375	2.231394	-3.583438	1.079125	-0.891990	5.358046	0.055115	0.023987	-0.035461	0.999617	0.005395	-0.004459	0.026787	
38190	    0	6.538808	2.385095	-3.101008	1.025162	-1.058737	5.807219	0.064818	0.025896	-0.030537	0.999551	0.005125	-0.005293	0.029032	
38191	    0	7.744664	1.894521	-2.515887	0.899083	-1.216328	6.136580	0.076965	0.021423	-0.024597	0.999500	0.004495	-0.006081	0.030678	
38192	    0	8.408381	1.338899	-2.136133	0.946792	-1.369729	6.444976	0.083735	0.016191	-0.020715	0.999446	0.004733	-0.006847	0.032219	
38193	    0	9.139658	1.004102	-1.815491	1.038760	-1.527711	6.688506	0.091125	0.013184	-0.017395	0.999397	0.005193	-0.007637	0.033436	
38194	    0	10.068055	0.983748	-1.366707	1.175945	-1.683029	6.926517	0.100368	0.013394	-0.012750	0.999347	0.005878	-0.008413	0.034625	
38195	    0	11.181228	1.364535	-1.190554	1.259906	-1.792371	7.146592	0.111328	0.017700	-0.010803	0.999301	0.006298	-0.008960	0.035725	
38196	    0	12.580912	1.948727	-0.835761	1.382787	-1.850394	7.337090	0.125050	0.024137	-0.007042	0.999260	0.006912	-0.009250	0.036676	
38197	    0	13.949269	2.903585	-0.398029	1.574349	-1.849650	7.470335	0.138306	0.034241	-0.002441	0.999228	0.007870	-0.009246	0.037342	
38198	    0	15.043826	4.757006	-0.189433	1.741483	-1.817797	7.509859	0.148518	0.053178	-0.000092	0.999215	0.008705	-0.009087	0.037539	
38199	    0	15.853170	8.519765	-0.326391	1.750063	-1.694163	7.484079	0.155212	0.091064	-0.001160	0.999226	0.008748	-0.008469	0.037411	
38200	    0	16.943962	11.776599	0.744079	1.183604	-1.440205	7.375397	0.164884	0.123852	0.009360	0.999275	0.005917	-0.007199	0.036868	
38201	    0	17.278223	13.980929	1.337017	0.809850	-1.254552	7.161020	0.167542	0.145813	0.015015	0.999331	0.004048	-0.006271	0.035797	
38202	    0	18.864101	15.954232	2.219896	0.666750	-1.069279	6.756777	0.182987	0.165711	0.023733	0.999409	0.003333	-0.005345	0.033777	
38203	    0	20.021394	18.263870	2.365369	0.816668	-0.930937	6.111372	0.194397	0.188538	0.025330	0.999514	0.004083	-0.004654	0.030552	
38204	    0	18.606778	21.755814	0.912987	1.101436	-0.844867	5.200060	0.180285	0.222239	0.011115	0.999638	0.005507	-0.004224	0.025997	
38205	    0	15.230568	26.563032	-0.754706	1.182838	-0.797333	4.048468	0.146912	0.268677	-0.005371	0.999769	0.005914	-0.003986	0.020241	
38206	    0	11.007267	31.161812	1.134158	0.920331	-0.751715	2.799523	0.105650	0.313060	0.013183	0.999884	0.004601	-0.003758	0.013997	
38207	    0	8.349049	32.315752	5.327677	0.694284	-0.555237	1.564047	0.080811	0.323608	0.054626	0.999959	0.003471	-0.002776	0.007820	
38208	    0	8.770681	31.044708	7.546943	0.783732	-0.217057	0.389863	0.087019	0.310318	0.076780	0.999990	0.003919	-0.001085	0.001949	
38209	    0	9.607577	29.286096	5.614501	1.137551	0.016213	-0.743872	0.097168	0.292175	0.057800	0.999976	0.005688	0.000081	-0.003719	
38210	    0	10.683870	31.320654	-3.105862	1.813182	-0.059893	-2.047603	0.110048	0.312355	-0.028192	0.999906	0.009066	-0.000299	-0.010238	
38211	    0	15.624469	55.862768	-11.426936	1.649799	-0.290703	-4.063743	0.167725	0.556213	-0.109436	0.999758	0.008248	-0.001453	-0.020317	
38212	    0	27.593426	39.270166	-5.888218	-2.043383	0.173016	-4.789894	0.285169	0.385315	-0.063088	0.999660	-0.010216	0.000865	-0.023947	
38213	    0	25.983965	-21.397481	-2.453295	-3.646600	0.438180	-4.500450	0.254883	-0.220154	-0.021118	0.999578	-0.018230	0.002191	-0.022499	
38214	    0	22.205845	-20.468286	-10.615919	0.519633	-0.084316	-5.693257	0.216164	-0.210616	-0.106609	0.999591	0.002598	-0.000422	-0.028462	
38215	    0	21.251093	17.528908	-11.923600	2.607520	-0.277578	-6.657304	0.218384	0.169617	-0.116699	0.999360	0.013035	-0.001388	-0.033279	
38216	    0	18.847157	27.845130	9.585826	-0.865701	0.411103	-6.293215	0.197309	0.272745	0.094270	0.999493	-0.004328	0.002055	-0.031461	
38217	    0	-1.029706	4.778906	7.413741	0.358053	-0.092327	-5.422878	-0.009033	0.047913	0.074219	0.999630	0.001790	-0.000462	-0.027111	
38218	    0	5.772627	13.456573	2.020657	1.097033	-0.053984	-4.940751	0.061019	0.132972	0.020955	0.999680	0.005485	-0.000270	-0.024701	
38219	    0	6.357424	8.063920	-2.143717	0.347927	-0.179877	-4.299498	0.065308	0.079285	-0.021240	0.999766	0.001740	-0.000899	-0.021496	
38220	    0	9.783957	5.416739	-1.784851	0.402477	-0.108154	-3.917757	0.098886	0.052273	-0.017689	0.999805	0.002012	-0.000541	-0.019588	
38221	    0	11.911682	7.204639	-0.804867	0.236523	-0.050929	-3.517333	0.120361	0.069946	-0.007935	0.999845	0.001183	-0.000255	-0.017586	
38222	    0	14.037569	7.929291	0.513774	-0.067714	-0.013924	-3.164233	0.141606	0.077061	0.005121	0.999874	-0.000339	-0.000070	-0.015821	
38223	    0	13.600757	5.928065	-0.795456	-0.166327	-0.010491	-2.873329	0.136841	0.057312	-0.007996	0.999896	-0.000832	-0.000052	-0.014366	
38224	    0	12.879043	9.142507	-2.863113	-0.376521	-0.003243	-2.496213	0.129918	0.089754	-0.028799	0.999920	-0.001883	-0.000016	-0.012481	
38225	    0	11.761541	7.646900	-2.086954	-0.421723	-0.055696	-2.081338	0.118408	0.075195	-0.020996	0.999943	-0.002109	-0.000278	-0.010406	
38226	    0	11.703247	7.747633	-1.416519	-0.456053	-0.006294	-1.709197	0.117689	0.076440	-0.014337	0.999960	-0.002280	-0.000031	-0.008546	
38227	    0	12.849829	6.379201	-2.983057	-0.543217	0.042153	-1.311504	0.128906	0.062866	-0.030029	0.999974	-0.002716	0.000211	-0.006557	
38228	    0	16.828836	8.182738	-2.645960	-0.591282	0.094414	-1.057441	0.168705	0.080857	-0.026779	0.999981	-0.002956	0.000472	-0.005287	
38229	    0	20.019070	6.903603	-0.218514	-0.658420	0.152779	-0.910955	0.200500	0.068115	-0.002563	0.999984	-0.003292	0.000764	-0.004555	
38230	    0	20.562412	4.096543	1.267315	-0.811963	0.211908	-0.804906	0.205800	0.040188	0.012291	0.999983	-0.004060	0.001060	-0.004025	
38231	    0	20.014363	4.522735	1.158666	-0.969511	0.199891	-0.725560	0.200317	0.044556	0.011169	0.999981	-0.004848	0.000999	-0.003628	
38232	    0	19.394081	4.169831	0.980354	-1.274883	0.158884	-0.662046	0.194085	0.041117	0.009386	0.999973	-0.006374	0.000794	-0.003310	
38233	    0	17.991055	2.622009	0.437970	-1.781490	0.066567	-0.624094	0.179993	0.025696	0.004089	0.999955	-0.008907	0.000333	-0.003120	
38234	    0	16.414829	0.456772	0.466188	-2.447764	-0.027276	-0.469601	0.164158	0.004239	0.004631	0.999922	-0.012239	-0.000136	-0.002348	
38235	    0	15.107470	-0.635935	-0.014749	-2.917395	-0.068667	-0.387587	0.151062	-0.006653	0.000000	0.999891	-0.014586	-0.000343	-0.001938	
38236	    0	14.901043	-1.402252	-0.408507	-2.990455	0.024606	-0.417725	0.148980	-0.014393	-0.003890	0.999886	-0.014952	0.000123	-0.002089	
38237	    0	14.261962	-3.838001	-1.797910	-2.760405	0.187880	-0.443282	0.142517	-0.038940	-0.017578	0.999902	-0.013802	0.000939	-0.002216	
38238	    0	13.028291	-6.231465	-3.013384	-2.383482	0.312813	-0.445949	0.130096	-0.062960	-0.029590	0.999925	-0.011917	0.001564	-0.002230	
38239	    0	11.537401	-6.856212	-4.564718	-1.857787	0.383955	-0.505837	0.115112	-0.069275	-0.045227	0.999951	-0.009289	0.001920	-0.002529	
38240	    0	9.303423	-6.919960	-4.331735	-1.118288	0.432590	-0.741393	0.092683	-0.069785	-0.043129	0.999974	-0.005591	0.002163	-0.003707	
38241	    0	6.558455	-5.785022	-4.619116	-0.379946	0.376322	-1.073462	0.065186	-0.058289	-0.046204	0.999982	-0.001900	0.001882	-0.005367	
38242	    0	4.442049	-3.045739	-3.927589	0.119592	0.396923	-1.439680	0.044122	-0.030752	-0.039382	0.999971	0.000598	0.001985	-0.007198	
38243	    0	6.051445	0.412435	-2.376185	0.032998	0.543985	-1.944766	0.060486	0.003540	-0.023926	0.999949	0.000165	0.002720	-0.009724	
38244	    0	7.611816	0.753457	-2.871110	-0.463690	0.738165	-2.449295	0.076096	0.006536	-0.029008	0.999915	-0.002318	0.003691	-0.012246	
38245	    0	7.418936	-2.085636	-6.483806	-0.923763	0.882754	-2.707773	0.073608	-0.022156	-0.065063	0.999887	-0.004619	0.004414	-0.013538	
38246	    0	9.626077	-3.049696	-8.786734	-1.178796	0.886958	-3.001162	0.095393	-0.032452	-0.088104	0.999860	-0.005894	0.004435	-0.015005	
38247	    0	13.297390	-3.645074	-8.338736	-1.417431	0.759168	-3.328894	0.132019	-0.039246	-0.083618	0.999828	-0.007087	0.003796	-0.016644	
38248	    0	12.143703	-5.663641	-5.189657	-1.901944	0.740482	-3.444329	0.120240	-0.059207	-0.051788	0.999799	-0.009509	0.003702	-0.017220	
38249	    0	13.662989	-7.015813	-3.342330	-2.507980	0.736485	-3.482331	0.135254	-0.072937	-0.033020	0.999763	-0.012539	0.003682	-0.017410	
38250	    0	14.733235	-9.126874	-3.109240	-2.903816	0.782274	-3.522425	0.145570	-0.094287	-0.030310	0.999731	-0.014518	0.003911	-0.017611	
38251	    0	15.792962	-10.502417	-3.482244	-2.877303	0.915037	-3.524334	0.155884	-0.108276	-0.033997	0.999730	-0.014385	0.004575	-0.017620	
38252	    0	17.731763	-10.827819	-3.483568	-2.428249	1.019559	-3.495877	0.175208	-0.111773	-0.034389	0.999760	-0.012140	0.005097	-0.017478	
38253	    0	19.813461	-9.121691	-3.470825	-1.632795	1.107287	-3.398351	0.196350	-0.094849	-0.035034	0.999806	-0.008163	0.005536	-0.016991	
38254	    0	21.812597	-5.585187	-3.375935	-0.807805	1.213329	-3.259069	0.216967	-0.059533	-0.034842	0.999840	-0.004039	0.006066	-0.016294	
38255	    0	22.289844	-3.581826	-3.189238	-0.289930	1.228580	-3.094626	0.222107	-0.039307	-0.033203	0.999860	-0.001450	0.006143	-0.015472	
38256	    0	20.342953	-3.837967	-2.679298	-0.163275	1.205679	-2.711587	0.202718	-0.041154	-0.027984	0.999889	-0.000816	0.006028	-0.013557	
38257	    0	16.264640	-3.577462	-1.814635	-0.060846	1.118494	-2.013442	0.162170	-0.037415	-0.019043	0.999933	-0.000304	0.005592	-0.010067	
38258	    0	11.944847	-2.850612	-1.074566	0.524718	0.944339	-1.240554	0.119216	-0.029217	-0.011385	0.999966	0.002624	0.004722	-0.006203	
38259	    0	10.029352	-1.830019	-1.945602	1.030931	0.813300	-0.589757	0.100159	-0.018494	-0.019958	0.999973	0.005155	0.004066	-0.002949	
38260	    0	8.763206	0.422592	-3.176714	1.183901	0.703436	0.088120	0.087518	0.004454	-0.032049	0.999976	0.005919	0.003517	0.000441	
38261	    0	7.569852	0.740268	-3.663461	1.221479	0.573927	0.813302	0.075562	0.007935	-0.036804	0.999969	0.006107	0.002870	0.004066	
38262	    0	6.493661	0.789522	-3.672572	1.472693	0.388916	1.542312	0.064800	0.008666	-0.036790	0.999941	0.007363	0.001945	0.007711	
38263	    0	5.741948	2.138781	-3.686050	1.650483	0.225075	2.262953	0.057129	0.022339	-0.036743	0.999901	0.008252	0.001125	0.011314	
38264	    0	5.307292	3.418485	-3.932519	1.618654	0.046732	2.989722	0.052542	0.035290	-0.039055	0.999855	0.008093	0.000234	0.014948	
38265	    0	4.944484	3.798312	-4.291612	1.428315	-0.149355	3.659293	0.048767	0.039185	-0.042603	0.999806	0.007141	-0.000747	0.018295	
38266	    0	4.810642	3.663130	-4.502484	1.262581	-0.383219	4.303723	0.047385	0.037939	-0.044697	0.999746	0.006312	-0.001916	0.021517	
38267	    0	5.100026	3.589870	-4.161854	1.081199	-0.631590	4.876461	0.050232	0.037354	-0.041260	0.999682	0.005405	-0.003158	0.024380	
38268	    0	5.730243	3.648102	-3.677903	0.881496	-0.876727	5.345062	0.056458	0.038158	-0.036365	0.999623	0.004407	-0.004383	0.026722	
38269	    0	6.583264	3.202632	-3.330508	0.636382	-1.108518	5.710654	0.065063	0.033997	-0.032837	0.999572	0.003181	-0.005542	0.028549	
38270	    0	7.038425	2.298444	-2.907391	0.572295	-1.355958	5.988688	0.069847	0.025164	-0.028529	0.999524	0.002861	-0.006779	0.029939	
38271	    0	7.720641	1.809583	-2.453722	0.624384	-1.587953	6.233537	0.076782	0.020569	-0.023865	0.999477	0.003121	-0.007938	0.031162	
38272	    0	8.432206	1.530347	-1.759286	0.695360	-1.803548	6.452636	0.083922	0.018075	-0.016775	0.999433	0.003476	-0.009016	0.032257	
38273	    0	9.370080	1.856336	-1.352877	0.811934	-1.998357	6.670220	0.093140	0.021729	-0.012512	0.999385	0.004059	-0.009990	0.033344	
38274	    0	10.707830	2.475277	-0.544754	0.896840	-2.126202	6.844864	0.106196	0.028419	-0.004193	0.999348	0.004483	-0.010629	0.034217	
38275	    0	11.789879	3.392616	-0.278935	1.218122	-2.193954	6.983261	0.116638	0.038025	-0.001282	0.999311	0.006089	-0.010967	0.034908	
38276	    0	13.075588	5.056869	0.137963	1.515747	-2.195115	7.047031	0.128839	0.055112	0.003207	0.999290	0.007577	-0.010973	0.035227	
38277	    0	13.875568	8.241412	-0.113298	1.725414	-2.093811	7.030625	0.135742	0.087219	0.001038	0.999290	0.008625	-0.010467	0.035145	
38278	    0	14.994140	11.946524	0.547146	1.208192	-1.843480	6.954018	0.145606	0.124537	0.007569	0.999334	0.006040	-0.009215	0.034762	
38279	    0	15.107027	13.572536	1.352952	0.689838	-1.607651	6.777812	0.146240	0.140686	0.015198	0.999387	0.003448	-0.008037	0.033882	
38280	    0	16.931108	15.794773	2.501137	0.358075	-1.382698	6.454499	0.163919	0.163250	0.026446	0.999454	0.001790	-0.006912	0.032267	
38281	    0	18.762385	17.811940	3.936643	0.204499	-1.126842	5.931993	0.182007	0.183533	0.040588	0.999543	0.001022	-0.005633	0.029655	
38282	    0	18.931236	19.813379	4.045131	0.350039	-0.900945	5.180386	0.183912	0.202872	0.041640	0.999653	0.001750	-0.004504	0.025899	
38283	    0	16.696480	22.958928	1.990255	0.707301	-0.781884	4.223203	0.161987	0.232971	0.021362	0.999763	0.003536	-0.003909	0.021114	
38284	    0	12.461734	27.696812	0.696429	0.887911	-0.743137	3.087374	0.120293	0.278811	0.008652	0.999864	0.004439	-0.003716	0.015436	
38285	    0	8.585827	30.842638	2.852834	0.949879	-0.663580	1.900521	0.082825	0.309082	0.030273	0.999938	0.004749	-0.003318	0.009502	
38286	    0	9.292532	30.176080	6.130399	0.897223	-0.494007	0.800520	0.091563	0.301849	0.062885	0.999978	0.004486	-0.002470	0.004003	
38287	    0	9.515874	29.281408	8.044303	1.052862	-0.230218	-0.311281	0.095520	0.292236	0.082092	0.999984	0.005264	-0.001151	-0.001556	
38288	    0	10.724397	30.595496	2.653258	1.622805	-0.112727	-1.471549	0.109474	0.304926	0.029071	0.999939	0.008114	-0.000564	-0.007358	
38289	    0	14.107486	50.719004	-4.899956	1.393200	-0.173006	-3.257159	0.149353	0.505127	-0.045349	0.999843	0.006966	-0.000865	-0.016285	
38290	    0	20.520186	46.930224	-3.531168	-1.265259	0.156226	-4.491260	0.215637	0.464301	-0.038425	0.999727	-0.006326	0.000781	-0.022454	
38291	    0	24.495458	-6.764081	-2.646918	-3.521425	0.497692	-4.317274	0.243347	-0.073364	-0.025818	0.999608	-0.017605	0.002488	-0.021584	
38292	    0	24.269895	-22.049221	-7.906399	-0.248557	0.254471	-5.348655	0.236586	-0.226973	-0.079088	0.999640	-0.001243	0.001272	-0.026740	
38293	    0	22.673335	6.249870	-9.930392	2.617424	0.135259	-6.542034	0.228577	0.056335	-0.098694	0.999379	0.013084	0.000676	-0.032703	
38294	    0	19.572795	21.401108	7.362697	0.084128	0.538917	-6.344723	0.202580	0.207625	0.073175	0.999493	0.000421	0.002694	-0.031718	
38295	    0	1.034868	8.603699	6.963762	0.722028	0.009156	-5.614458	0.012756	0.085449	0.069946	0.999599	0.003610	0.000046	-0.028069	
38296	    0	2.656566	15.038089	2.958274	0.958930	-0.013734	-5.064953	0.030357	0.149500	0.030303	0.999667	0.004794	-0.000069	-0.025322	
38297	    0	6.223644	9.152617	-0.553623	0.113115	-0.166334	-4.343757	0.064209	0.090149	-0.005432	0.999763	0.000566	-0.000832	-0.021717	
38298	    0	8.492603	4.694123	-3.605102	0.114639	-0.008202	-3.898486	0.085821	0.045295	-0.036021	0.999809	0.000573	-0.000041	-0.019491	
38299	    0	10.443847	5.668681	-3.445569	0.364895	0.131996	-3.576090	0.105408	0.054871	-0.034424	0.999838	0.001824	0.000660	-0.017879	
38300	    0	12.847747	7.779424	-0.419377	0.129896	0.157172	-3.220316	0.129704	0.075715	-0.004246	0.999869	0.000649	0.000786	-0.016101	
38301	    0	12.959870	5.421551	-0.564318	0.075724	0.175482	-2.936660	0.130371	0.052307	-0.005737	0.999891	0.000379	0.000877	-0.014683	
38302	    0	13.183511	9.625774	-2.392267	-0.041009	0.185209	-2.636033	0.133066	0.094504	-0.024065	0.999912	-0.000205	0.000926	-0.013180	
38303	    0	12.591651	8.431827	-1.940247	-0.251585	0.134280	-2.225541	0.126831	0.082886	-0.019592	0.999937	-0.001258	0.000671	-0.011127	
38304	    0	12.938047	7.326220	-2.184479	-0.359541	0.111009	-1.887160	0.130052	0.071998	-0.022047	0.999953	-0.001798	0.000555	-0.009436	
38305	    0	14.120077	7.112332	-1.601666	-0.504881	0.144197	-1.519029	0.141724	0.070007	-0.016296	0.999968	-0.002524	0.000721	-0.007595	
38306	    0	18.506029	8.371457	-0.225799	-0.447658	0.189020	-1.310741	0.185601	0.082494	-0.002619	0.999975	-0.002238	0.000945	-0.006554	
38307	    0	20.479478	6.843822	0.999972	-0.509456	0.179292	-1.172646	0.205200	0.067261	0.009644	0.999979	-0.002547	0.000896	-0.005863	
38308	    0	20.625946	5.077670	2.117519	-0.584797	0.201608	-1.059157	0.206546	0.049745	0.020821	0.999981	-0.002924	0.001008	-0.005296	
38309	    0	20.875661	4.709618	1.511876	-0.858885	0.200654	-0.915534	0.208984	0.046204	0.014709	0.999979	-0.004294	0.001003	-0.004578	
38310	    0	19.960956	4.044134	0.555025	-1.186381	0.123597	-0.782020	0.199769	0.039692	0.005190	0.999974	-0.005932	0.000618	-0.003910	
38311	    0	19.204987	2.760917	-0.020106	-1.821737	0.041199	-0.653849	0.192139	0.026978	-0.000488	0.999952	-0.009109	0.000206	-0.003269	
38312	    0	17.332846	-0.471610	-0.287250	-2.531694	-0.032426	-0.477041	0.173317	-0.005165	-0.002781	0.999917	-0.012658	-0.000162	-0.002385	
38313	    0	16.975200	-0.595025	-0.656554	-3.026699	-0.001335	-0.424211	0.169739	-0.006409	-0.006470	0.999883	-0.015133	-0.000007	-0.002121	
38314	    0	16.073241	-3.001949	-0.975519	-2.979583	0.153547	-0.473994	0.160653	-0.030542	-0.009426	0.999886	-0.014897	0.000768	-0.002370	
38315	    0	14.288204	-5.783829	-2.536191	-2.713100	0.293169	-0.498215	0.142700	-0.058533	-0.024780	0.999904	-0.013565	0.001466	-0.002491	
38316	    0	12.927463	-7.495593	-3.882830	-2.079815	0.430879	-0.587094	0.128970	-0.075735	-0.038321	0.999939	-0.010399	0.002154	-0.002935	
38317	    0	11.446827	-8.777701	-5.524809	-1.401345	0.529486	-0.699623	0.114014	-0.088562	-0.054932	0.999966	-0.007007	0.002647	-0.003498	
38318	    0	8.882140	-8.068951	-5.859680	-0.631337	0.604634	-1.037415	0.088223	-0.081333	-0.058608	0.999976	-0.003157	0.003023	-0.005187	
38319	    0	6.172159	-6.316749	-5.393196	0.112916	0.555615	-1.306163	0.061157	-0.063538	-0.054138	0.999974	0.000565	0.002778	-0.006531	
38320	    0	4.344209	-1.808303	-4.424833	0.445754	0.602349	-1.694513	0.043154	-0.018351	-0.044419	0.999957	0.002229	0.003012	-0.008472	
38321	    0	6.322822	0.989467	-2.588730	0.258833	0.784321	-2.252251	0.063232	0.009216	-0.026123	0.999928	0.001294	0.003922	-0.011261	
38322	    0	8.547591	1.395743	-4.272148	-0.014687	0.937879	-2.850067	0.085462	0.012736	-0.043123	0.999887	-0.000073	0.004689	-0.014250	
38323	    0	9.682693	0.778595	-8.635554	-0.349443	1.005792	-3.169398	0.096497	0.006104	-0.086853	0.999860	-0.001747	0.005029	-0.015846	
38324	    0	15.217738	-2.289349	-8.321351	-0.949339	0.998742	-3.336134	0.151345	-0.025820	-0.083853	0.999837	-0.004746	0.004993	-0.016680	
38325	    0	12.700960	-6.108589	-4.990614	-1.424499	0.935614	-3.516612	0.125671	-0.063660	-0.050049	0.999808	-0.007122	0.004678	-0.017582	
38326	    0	14.597510	-8.771668	-3.298047	-1.879828	0.795994	-3.632808	0.144216	-0.090655	-0.032714	0.999783	-0.009398	0.003980	-0.018163	
38327	    0	14.965225	-9.821725	-3.732880	-2.161580	0.754798	-3.724967	0.147644	-0.101379	-0.036804	0.999761	-0.010807	0.003774	-0.018623	
38328	    0	16.220661	-9.276048	-4.172743	-2.425781	0.832056	-3.713351	0.160269	-0.096251	-0.041244	0.999745	-0.012128	0.004160	-0.018565	
38329	    0	17.404178	-8.659388	-3.618416	-2.461261	0.925524	-3.671577	0.172241	-0.090210	-0.035889	0.999744	-0.012305	0.004627	-0.018356	
38330	    0	18.228142	-7.908001	-3.271239	-2.359581	0.977786	-3.592973	0.180657	-0.082721	-0.032637	0.999757	-0.011797	0.004889	-0.017963	
38331	    0	19.435133	-7.968715	-3.218069	-2.006476	1.025460	-3.352584	0.192810	-0.083252	-0.032349	0.999796	-0.010032	0.005127	-0.016762	
38332	    0	19.838121	-7.677393	-2.768544	-1.574026	1.123677	-2.954637	0.197059	-0.079912	-0.028174	0.999844	-0.007870	0.005618	-0.014772	
38333	    0	18.204021	-6.025624	-1.666162	-0.952751	1.065098	-2.382737	0.181213	-0.062500	-0.017334	0.999903	-0.004764	0.005325	-0.011913	
38334	    0	15.624690	-4.295324	-0.895707	-0.412185	0.929086	-1.781876	0.155812	-0.044362	-0.009591	0.999947	-0.002061	0.004645	-0.008909	
38335	    0	12.732844	-2.927339	-0.359507	0.004578	0.776107	-1.188670	0.127136	-0.030029	-0.004089	0.999974	0.000023	0.003881	-0.005943	
38336	    0	10.237429	-1.411649	-0.953832	0.407220	0.627901	-0.495149	0.102308	-0.014350	-0.009889	0.999990	0.002036	0.003139	-0.002476	
38337	    0	8.518137	-0.834458	-1.830867	0.695040	0.510599	0.238801	0.085144	-0.008179	-0.018555	0.999990	0.003475	0.002553	0.001194	
38338	    0	7.230386	-0.194495	-2.475379	1.042376	0.358776	1.022921	0.072268	-0.001446	-0.024892	0.999971	0.005212	0.001794	0.005115	
38339	    0	6.590894	0.897043	-2.783610	1.429780	0.193982	1.811259	0.065796	0.009766	-0.027832	0.999932	0.007149	0.000970	0.009056	
38340	    0	5.955376	2.147475	-3.225963	1.692459	0.025941	2.608786	0.059260	0.022521	-0.032080	0.999879	0.008462	0.000130	0.013043	
38341	    0	5.482798	3.429392	-3.725636	1.681618	-0.127991	3.368577	0.054260	0.035522	-0.036926	0.999822	0.008408	-0.000640	0.016842	
38342	    0	5.057926	3.711915	-4.046185	1.530959	-0.294136	4.061256	0.049867	0.038445	-0.040097	0.999763	0.007654	-0.001471	0.020305	
38343	    0	5.104554	3.555131	-4.281139	1.447444	-0.504164	4.704765	0.050293	0.037048	-0.042419	0.999694	0.007236	-0.002521	0.023521	
38344	    0	5.571702	4.100542	-4.045076	1.354579	-0.690166	5.287456	0.054741	0.042733	-0.039975	0.999621	0.006772	-0.003450	0.026434	
38345	    0	6.079116	4.002544	-3.737639	1.210393	-0.868355	5.798443	0.059753	0.041992	-0.036865	0.999552	0.006051	-0.004341	0.028988	
38346	    0	6.811684	2.975587	-3.251852	1.069440	-1.049219	6.183523	0.067319	0.032018	-0.031997	0.999494	0.005346	-0.005245	0.030912	
38347	    0	7.894081	1.938340	-2.886779	1.072322	-1.259087	6.509860	0.078430	0.022095	-0.028259	0.999435	0.005361	-0.006294	0.032543	
38348	    0	8.901115	1.765543	-2.557081	1.109544	-1.490139	6.801870	0.088526	0.020811	-0.024800	0.999378	0.005547	-0.007449	0.034002	
38349	    0	9.755675	2.049360	-2.099197	1.153063	-1.730548	7.075578	0.096924	0.024048	-0.020020	0.999320	0.005764	-0.008651	0.035370	
38350	    0	11.039647	3.122891	-1.784844	1.183224	-1.898271	7.280965	0.109322	0.035323	-0.016606	0.999274	0.005915	-0.009489	0.036396	
38351	    0	12.153778	4.119133	-1.724100	1.218915	-2.030698	7.441313	0.120056	0.045776	-0.015747	0.999237	0.006093	-0.010151	0.037197	
38352	    0	13.567602	5.312374	-1.910133	1.358581	-2.108939	7.544406	0.133730	0.058315	-0.017300	0.999209	0.006791	-0.010542	0.037712	
38353	    0	15.003341	7.350967	-2.339532	1.509688	-2.119248	7.566563	0.147339	0.079285	-0.021240	0.999199	0.007546	-0.010593	0.037823	
38354	    0	15.915203	10.102875	-2.947955	1.481062	-2.074022	7.505856	0.155497	0.107118	-0.027076	0.999214	0.007403	-0.010367	0.037519	
38355	    0	16.584370	13.369853	-2.331371	1.071619	-1.942155	7.322953	0.161011	0.139771	-0.020996	0.999268	0.005357	-0.009708	0.036606	
38356	    0	17.354339	15.136895	-0.587025	0.423716	-1.829551	7.030894	0.168123	0.157353	-0.003986	0.999337	0.002118	-0.009146	0.035147	
38357	    0	18.575257	17.633226	1.585527	-0.131823	-1.690998	6.568642	0.179688	0.182312	0.017273	0.999424	-0.000659	-0.008453	0.032837	
38358	    0	19.592757	19.630472	3.969872	-0.582978	-1.467746	5.946907	0.189679	0.202125	0.040523	0.999526	-0.002914	-0.007338	0.029730	
38359	    0	18.415340	20.982257	3.622248	-0.485095	-1.217794	5.130604	0.178467	0.214539	0.036804	0.999649	-0.002425	-0.006088	0.025650	
38360	    0	15.513865	24.167819	2.055344	-0.045208	-1.067050	4.091377	0.150040	0.244787	0.021308	0.999776	-0.000226	-0.005335	0.020455	
38361	    0	11.184245	28.309399	2.563584	0.315106	-0.968016	2.850451	0.107666	0.284607	0.026611	0.999885	0.001575	-0.004840	0.014252	
38362	    0	8.049176	30.328447	5.834550	0.667582	-0.791561	1.570725	0.077873	0.303705	0.059670	0.999955	0.003338	-0.003958	0.007854	
38363	    0	7.468319	30.514243	9.577504	0.955968	-0.484278	0.350954	0.073914	0.304810	0.097412	0.999984	0.004780	-0.002421	0.001755	
38364	    0	7.855318	28.548880	10.703656	1.248561	-0.063515	-0.713164	0.079535	0.284531	0.108840	0.999973	0.006243	-0.000318	-0.003566	
38365	    0	9.786504	25.643069	7.664508	1.561199	0.175480	-1.646459	0.100037	0.255005	0.078552	0.999935	0.007806	0.000877	-0.008232	
38366	    0	9.271788	23.737280	-1.666999	1.830179	-0.024224	-2.614895	0.095814	0.236273	-0.014493	0.999872	0.009151	-0.000121	-0.013074	
38367	    0	13.670461	38.800898	-10.929240	1.729921	-0.330381	-4.146164	0.144897	0.385986	-0.105713	0.999746	0.008649	-0.001652	-0.020729	
38368	    0	19.714180	16.717657	-7.744736	-1.615652	-0.092132	-4.037222	0.200490	0.162519	-0.078681	0.999763	-0.008078	-0.000461	-0.020185	
38369	    0	23.606236	-21.345033	-2.441081	-2.945229	0.226043	-3.788359	0.231934	-0.218201	-0.021484	0.999711	-0.014725	0.001130	-0.018940	
38370	    0	26.721361	-8.730273	-5.916408	0.118841	0.152033	-5.190670	0.264784	-0.094161	-0.059421	0.999662	0.000594	0.000760	-0.025950	
38371	    0	28.610309	18.252172	-9.653628	2.268103	-0.032813	-6.570995	0.291931	0.174072	-0.094482	0.999395	0.011338	-0.000164	-0.032848	
38372	    0	24.048730	19.411874	8.275150	-0.431520	0.513360	-6.536897	0.246873	0.186296	0.081716	0.999460	-0.002157	0.002566	-0.032679	
38373	    0	4.782091	-0.106447	9.645453	0.296255	0.066385	-5.928910	0.047791	-0.002625	0.096436	0.999559	0.001481	0.000332	-0.029640	
38374	    0	3.296235	13.572942	2.804824	1.207322	-0.026516	-5.528806	0.036690	0.134577	0.028868	0.999599	0.006036	-0.000133	-0.027640	
38375	    0	0.592419	13.012334	-0.782788	0.289372	-0.259424	-4.767300	0.009033	0.129944	-0.007629	0.999714	0.001447	-0.001297	-0.023834	
38376	    0	4.821606	7.096510	-2.131124	0.162518	-0.192084	-4.179688	0.049706	0.069954	-0.021207	0.999781	0.000813	-0.000960	-0.020897	
38377	    0	9.888825	5.855692	-2.029993	0.165758	-0.099951	-3.758462	0.099976	0.056702	-0.020203	0.999823	0.000829	-0.000500	-0.018791	
38378	    0	12.743358	6.739745	-0.759919	0.068286	-0.027849	-3.389712	0.128552	0.065228	-0.007559	0.999856	0.000341	-0.000139	-0.016948	
38379	    0	13.909457	7.284295	-1.896779	-0.045587	-0.003052	-3.089265	0.140198	0.070679	-0.018982	0.999880	-0.000228	-0.000015	-0.015446	
38380	    0	13.254236	8.856624	-2.933424	-0.258072	-0.001907	-2.734461	0.133737	0.086705	-0.029446	0.999906	-0.001290	-0.000010	-0.013672	
38381	    0	12.407810	8.432416	-1.928855	-0.334938	-0.030328	-2.352198	0.125061	0.082825	-0.019409	0.999928	-0.001675	-0.000152	-0.011761	
38382	    0	12.020355	7.403433	-1.530653	-0.316816	0.002098	-2.002369	0.120936	0.072802	-0.015424	0.999949	-0.001584	0.000010	-0.010012	
38383	    0	13.510356	7.208813	-2.606026	-0.385098	0.070191	-1.645680	0.135681	0.070923	-0.026245	0.999964	-0.001925	0.000351	-0.008228	
38384	    0	17.566673	8.960212	-1.867228	-0.414089	0.107194	-1.350605	0.176256	0.088374	-0.018950	0.999974	-0.002070	0.000536	-0.006753	
38385	    0	19.412327	7.939438	-0.380443	-0.510219	0.149537	-1.169594	0.194580	0.078247	-0.004150	0.999979	-0.002551	0.000748	-0.005848	
38386	    0	20.814683	6.098283	1.006683	-0.656704	0.215341	-1.022345	0.208466	0.059950	0.009645	0.999981	-0.003284	0.001077	-0.005112	
38387	    0	21.501191	5.818720	1.070792	-0.916106	0.233461	-0.857550	0.215271	0.057312	0.010193	0.999979	-0.004580	0.001167	-0.004288	
38388	    0	21.183864	3.966518	1.075386	-1.240169	0.194742	-0.727088	0.211991	0.038960	0.010304	0.999973	-0.006201	0.000974	-0.003635	
38389	    0	20.810417	2.702883	1.007781	-1.721025	0.138094	-0.599679	0.208191	0.026489	0.009705	0.999958	-0.008605	0.000690	-0.002998	
38390	    0	19.117511	-0.259869	0.775548	-2.383672	0.081446	-0.466549	0.191172	-0.002953	0.007711	0.999926	-0.011918	0.000407	-0.002333	
38391	    0	17.861586	-1.381107	0.446696	-2.951159	0.039102	-0.398269	0.178589	-0.014099	0.004639	0.999888	-0.014755	0.000196	-0.001991	
38392	    0	16.416845	-4.491153	-0.710378	-2.949061	0.122456	-0.446145	0.164063	-0.045377	-0.006537	0.999888	-0.014745	0.000612	-0.002231	
38393	    0	14.214145	-5.614654	-2.371792	-2.619250	0.219161	-0.523392	0.141968	-0.056824	-0.023132	0.999909	-0.013096	0.001096	-0.002617	
38394	    0	12.174205	-7.694884	-3.415117	-2.119299	0.323684	-0.604833	0.121453	-0.077674	-0.033527	0.999937	-0.010596	0.001618	-0.003024	
38395	    0	10.497067	-7.982754	-3.967942	-1.581403	0.383764	-0.699625	0.104614	-0.080505	-0.039246	0.999960	-0.007907	0.001919	-0.003498	
38396	    0	8.768005	-7.664656	-3.834365	-0.923164	0.464062	-0.921447	0.087236	-0.077226	-0.038191	0.999975	-0.004616	0.002320	-0.004607	
38397	    0	7.004415	-6.444413	-4.122098	-0.202180	0.473979	-1.131446	0.069580	-0.064880	-0.041321	0.999980	-0.001011	0.002370	-0.005657	
38398	    0	4.937528	-2.814628	-3.491391	0.374607	0.564200	-1.420799	0.049075	-0.028430	-0.035106	0.999969	0.001873	0.002821	-0.007104	
38399	    0	6.752228	0.425227	-1.458333	0.340468	0.754562	-2.003518	0.067505	0.003601	-0.014832	0.999941	0.001702	0.003773	-0.010017	
38400	    0	8.289974	0.871013	-2.581819	0.006294	0.904113	-2.650920	0.082888	0.007612	-0.026193	0.999902	0.000031	0.004520	-0.013254	
38401	    0	7.598617	-2.854128	-6.783624	-0.403421	1.058241	-2.932860	0.075195	-0.029785	-0.068176	0.999876	-0.002017	0.005291	-0.014664	
38402	    0	13.382032	-2.594521	-8.791183	-0.466942	0.992251	-3.225673	0.132938	-0.028300	-0.088509	0.999854	-0.002335	0.004961	-0.016128	
38403	    0	13.776034	-6.763071	-7.256108	-0.581392	0.844812	-3.523452	0.136230	-0.070251	-0.072937	0.999831	-0.002907	0.004224	-0.017616	
38404	    0	12.548680	-8.416325	-3.800987	-0.901466	0.800561	-3.544633	0.123815	-0.086539	-0.038121	0.999825	-0.004507	0.004003	-0.017722	
38405	    0	13.605241	-9.618216	-2.253097	-1.343431	0.690504	-3.592909	0.134216	-0.098755	-0.022339	0.999809	-0.006717	0.003452	-0.017963	
38406	    0	14.260290	-10.112726	-2.421734	-1.707380	0.636524	-3.535695	0.140707	-0.103830	-0.023788	0.999802	-0.008536	0.003182	-0.017677	
38407	    0	15.660910	-9.191347	-3.389380	-1.776807	0.655406	-3.390716	0.154907	-0.094849	-0.033569	0.999811	-0.008883	0.003277	-0.016953	
38408	    0	17.132463	-7.557378	-4.235369	-1.663303	0.676194	-3.239626	0.169924	-0.078686	-0.042284	0.999828	-0.008316	0.003381	-0.016197	
38409	    0	18.858711	-5.983741	-4.349333	-1.453280	0.700413	-3.016810	0.187500	-0.062988	-0.043701	0.999853	-0.007266	0.003502	-0.015083	
38410	    0	20.799250	-4.140967	-4.004763	-1.218655	0.703268	-2.810022	0.207239	-0.044571	-0.040512	0.999876	-0.006093	0.003516	-0.014050	
38411	    0	20.722112	-3.801525	-3.193728	-1.149026	0.678467	-2.545254	0.206604	-0.040833	-0.032410	0.999896	-0.005745	0.003392	-0.012726	
38412	    0	18.631268	-3.866813	-2.778354	-1.218637	0.615327	-2.106150	0.185804	-0.040797	-0.028111	0.999921	-0.006093	0.003077	-0.010530	
38413	    0	14.294831	-2.744767	-2.103229	-1.069656	0.587662	-1.319903	0.142700	-0.028503	-0.021301	0.999959	-0.005348	0.002938	-0.006599	
38414	    0	11.432093	-1.733053	-1.649823	-0.444223	0.491144	-0.513841	0.114235	-0.017661	-0.016740	0.999990	-0.002221	0.002456	-0.002569	
38415	    0	9.195526	-0.607350	-2.044063	0.202942	0.398446	0.154877	0.091919	-0.005981	-0.020630	0.999997	0.001015	0.001992	0.000774	
38416	    0	7.996042	1.059347	-2.188411	0.571444	0.325586	0.862126	0.079878	0.011001	-0.021983	0.999985	0.002857	0.001628	0.004311	
38417	    0	6.908817	1.026557	-2.381817	0.872052	0.270275	1.610588	0.068970	0.010925	-0.023865	0.999957	0.004360	0.001351	0.008053	
38418	    0	6.148698	1.147678	-2.817075	1.306573	0.178915	2.342676	0.061320	0.012380	-0.028147	0.999909	0.006533	0.000895	0.011713	
38419	    0	5.565327	2.542109	-3.558352	1.574022	0.082592	3.070221	0.055237	0.026550	-0.035400	0.999850	0.007870	0.000413	0.015350	
38420	    0	5.026039	3.637296	-4.164500	1.610869	-0.017549	3.769566	0.049562	0.037645	-0.041341	0.999789	0.008054	-0.000088	0.018847	
38421	    0	4.708315	3.803249	-4.722210	1.600220	-0.151839	4.384248	0.046265	0.039429	-0.046875	0.999727	0.008000	-0.000759	0.021919	
38422	    0	4.922703	4.045852	-5.060231	1.528149	-0.320661	4.956231	0.048279	0.042048	-0.050207	0.999662	0.007640	-0.001603	0.024778	
38423	    0	5.685376	4.466475	-4.920279	1.305561	-0.485102	5.435131	0.055725	0.046509	-0.048767	0.999606	0.006527	-0.002425	0.027172	
38424	    0	6.049152	4.540934	-4.689079	0.994449	-0.670724	5.860058	0.059278	0.047390	-0.046458	0.999553	0.004972	-0.003353	0.029296	
38425	    0	6.647403	3.628173	-4.113069	0.651658	-0.903278	6.189985	0.065491	0.038452	-0.040710	0.999505	0.003258	-0.004516	0.030945	
38426	    0	7.392435	2.691803	-3.370742	0.519082	-1.153198	6.420709	0.073200	0.029363	-0.033210	0.999464	0.002595	-0.005765	0.032098	
38427	    0	8.326552	2.659808	-2.915074	0.482462	-1.397975	6.648013	0.082520	0.029419	-0.028503	0.999420	0.002412	-0.006989	0.033234	
38428	    0	9.165256	2.663050	-2.405764	0.386127	-1.613760	6.852616	0.090858	0.029799	-0.023267	0.999378	0.001930	-0.008067	0.034256	
38429	    0	9.990375	3.112043	-2.405126	0.455003	-1.820776	7.039673	0.098938	0.034668	-0.023071	0.999336	0.002275	-0.009102	0.035191	
38430	    0	11.217113	4.543994	-2.352982	0.476566	-1.989062	7.166995	0.110672	0.049479	-0.022309	0.999305	0.002382	-0.009943	0.035827	
38431	    0	12.327643	6.220079	-2.314387	0.410559	-2.102968	7.226747	0.121155	0.066650	-0.021729	0.999290	0.002052	-0.010512	0.036125	
38432	    0	13.349090	7.655983	-2.483396	0.495646	-2.197213	7.187253	0.130885	0.081354	-0.023189	0.999290	0.002478	-0.010983	0.035928	
38433	    0	14.368345	9.948166	-2.579635	0.602098	-2.206737	7.065680	0.140320	0.104553	-0.023926	0.999310	0.003010	-0.011031	0.035320	
38434	    0	15.285936	13.530002	-0.674618	0.255258	-2.080219	6.859151	0.148159	0.140443	-0.005012	0.999356	0.001276	-0.010399	0.034288	
38435	    0	16.057793	14.481180	2.398300	-0.254109	-1.875482	6.592326	0.155457	0.150024	0.025269	0.999412	-0.001270	-0.009376	0.032955	
38436	    0	17.908423	16.205969	5.030821	-0.406333	-1.600343	6.125333	0.173600	0.167537	0.051375	0.999496	-0.002031	-0.008000	0.030622	
38437	    0	19.324305	17.667073	6.758893	-0.187708	-1.248144	5.494655	0.187866	0.181946	0.068604	0.999602	-0.000938	-0.006240	0.027470	
38438	    0	18.406509	18.656580	4.740794	0.547462	-0.961015	4.688526	0.179395	0.190676	0.048796	0.999709	0.002737	-0.004805	0.023440	
38439	    0	14.617424	23.013731	1.176291	1.474096	-0.875721	3.579184	0.141968	0.232605	0.014099	0.999803	0.007370	-0.004378	0.017895	
38440	    0	9.252700	29.379694	0.919604	1.922874	-0.864445	2.254003	0.089160	0.294705	0.012417	0.999881	0.009614	-0.004322	0.011270	
38441	    0	7.265460	32.291603	5.242166	1.879160	-0.756661	0.982687	0.070862	0.322754	0.055725	0.999936	0.009396	-0.003783	0.004913	
38442	    0	9.812771	30.305673	9.326875	1.635952	-0.433546	-0.061608	0.098015	0.302249	0.095956	0.999964	0.008180	-0.002168	-0.000308	
38443	    0	11.213362	27.860920	7.643233	1.719886	-0.172427	-1.050586	0.113525	0.277344	0.078918	0.999949	0.008599	-0.000862	-0.005253	
38444	    0	11.532256	33.486477	-1.534849	2.321357	-0.176438	-2.514962	0.119534	0.333527	-0.011368	0.999853	0.011606	-0.000882	-0.012574	
38445	    0	17.349157	52.322771	-8.945610	1.477180	-0.309590	-4.317851	0.184875	0.519958	-0.085327	0.999738	0.007385	-0.001548	-0.021587	
38446	    0	24.358907	15.992385	-4.199377	-1.833508	0.066763	-4.265215	0.246905	0.154287	-0.043508	0.999730	-0.009167	0.000334	-0.021324	
38447	    0	26.318638	-29.684571	2.443097	-2.653020	0.308451	-4.256887	0.256836	-0.302002	0.028015	0.999684	-0.013264	0.001542	-0.021282	
38448	    0	24.928783	-10.279575	-5.616589	1.100317	0.051315	-5.763881	0.246180	-0.109610	-0.056820	0.999569	0.005501	0.000257	-0.028815	
38449	    0	23.613809	18.618965	-9.977707	2.322298	-0.111412	-6.667950	0.242249	0.179321	-0.097534	0.999376	0.011609	-0.000557	-0.033333	
38450	    0	18.775790	22.306232	9.868476	-0.232927	0.314957	-6.380405	0.194901	0.217034	0.098126	0.999489	-0.001164	0.001575	-0.031897	
38451	    0	-0.821158	6.925467	5.101507	0.929389	-0.179888	-5.693845	-0.006287	0.069214	0.051331	0.999583	0.004646	-0.000899	-0.028465	
38452	    0	4.935097	16.634169	2.201050	0.904757	-0.127044	-5.101393	0.053555	0.164909	0.022792	0.999663	0.004523	-0.000635	-0.025504	
38453	    0	2.816471	7.513411	-1.337951	0.258847	-0.260945	-4.290340	0.029785	0.074524	-0.013245	0.999767	0.001294	-0.001305	-0.021450	
38454	    0	9.439198	5.645901	-1.898546	0.316640	-0.032046	-3.900205	0.095472	0.054634	-0.018883	0.999808	0.001583	-0.000160	-0.019500	
38455	    0	11.349659	7.285327	-2.479706	0.254263	0.129707	-3.538699	0.114746	0.070862	-0.024780	0.999842	0.001271	0.000648	-0.017693	
38456	    0	12.952089	6.941885	-0.510642	-0.011445	0.111966	-3.111774	0.130577	0.067392	-0.005183	0.999878	-0.000057	0.000560	-0.015558	
38457	    0	13.668074	6.998414	-2.048876	-0.036432	0.098422	-2.805420	0.137634	0.068054	-0.020569	0.999901	-0.000182	0.000492	-0.014027	
38458	    0	13.022151	9.709807	-3.086019	-0.249487	0.068666	-2.427543	0.131376	0.095469	-0.031025	0.999925	-0.001247	0.000343	-0.012137	
38459	    0	11.916791	7.171788	-1.541559	-0.347716	0.041962	-1.998173	0.119873	0.070496	-0.015564	0.999949	-0.001739	0.000210	-0.009991	
38460	    0	12.345784	6.144053	-1.526403	-0.369839	0.084306	-1.629085	0.123946	0.060404	-0.015429	0.999965	-0.001849	0.000422	-0.008145	
38461	    0	13.989349	7.854090	-2.450283	-0.418094	0.163461	-1.303111	0.140381	0.077576	-0.024780	0.999976	-0.002090	0.000817	-0.006516	
38462	    0	18.105785	7.578584	-1.244572	-0.454524	0.227929	-1.041418	0.181435	0.074813	-0.012823	0.999983	-0.002273	0.001140	-0.005207	
38463	    0	19.455629	6.088271	-0.264229	-0.537684	0.254060	-0.901036	0.194824	0.059998	-0.003052	0.999985	-0.002688	0.001270	-0.004505	
38464	    0	20.466689	5.252602	1.395720	-0.707630	0.276758	-0.789837	0.204891	0.051765	0.013490	0.999985	-0.003538	0.001384	-0.003949	
38465	    0	20.272001	4.459123	0.959611	-0.951391	0.227548	-0.680546	0.202881	0.043945	0.009155	0.999982	-0.004757	0.001138	-0.003403	
38466	    0	19.758920	3.489204	0.506131	-1.373876	0.150110	-0.607496	0.197698	0.034325	0.004676	0.999971	-0.006869	0.000751	-0.003037	
38467	    0	18.307423	1.175243	0.290501	-1.950679	0.051118	-0.533304	0.183105	0.011292	0.002747	0.999949	-0.009753	0.000256	-0.002666	
38468	    0	17.530383	-0.459484	-0.176265	-2.568890	0.010109	-0.442517	0.175293	-0.005005	-0.001709	0.999914	-0.012844	0.000051	-0.002213	
38469	    0	16.776561	-1.908744	-1.114486	-2.844718	0.057795	-0.457589	0.167718	-0.019628	-0.010917	0.999894	-0.014223	0.000289	-0.002288	
38470	    0	16.262429	-5.019430	-2.327989	-2.727406	0.182158	-0.541895	0.162466	-0.050947	-0.022737	0.999903	-0.013637	0.000911	-0.002709	
38471	    0	13.891995	-6.132035	-4.092465	-2.369559	0.221258	-0.656145	0.138672	-0.062256	-0.040344	0.999924	-0.011847	0.001106	-0.003281	
38472	    0	12.319236	-7.803035	-4.716408	-1.943434	0.238042	-0.812736	0.122817	-0.078984	-0.046546	0.999944	-0.009717	0.001190	-0.004064	
38473	    0	10.136462	-7.890873	-4.465949	-1.527999	0.271610	-1.039902	0.100891	-0.079773	-0.044189	0.999956	-0.007640	0.001358	-0.005199	
38474	    0	8.107535	-8.511600	-4.554581	-1.020826	0.314716	-1.342790	0.080429	-0.085889	-0.045236	0.999963	-0.005104	0.001574	-0.006714	
38475	    0	6.239619	-6.233666	-3.094359	-0.531776	0.345044	-1.639578	0.061829	-0.062927	-0.030884	0.999961	-0.002659	0.001725	-0.008198	
38476	    0	5.614015	-3.367987	-2.054001	-0.312620	0.491723	-1.960216	0.055756	-0.034260	-0.020624	0.999948	-0.001563	0.002459	-0.009801	
38477	    0	6.863157	-2.652106	-2.182034	-0.254828	0.725001	-2.324735	0.068237	-0.027344	-0.022034	0.999925	-0.001274	0.003625	-0.011623	
38478	    0	9.229719	-2.650634	-3.103687	-0.285540	0.863869	-2.771667	0.091783	-0.027825	-0.031395	0.999893	-0.001428	0.004319	-0.013858	
38479	    0	9.740400	-2.391775	-5.007741	-0.301375	0.773848	-3.257905	0.096802	-0.025574	-0.050415	0.999858	-0.001507	0.003869	-0.016289	
38480	    0	9.030462	-5.439616	-6.336319	-0.382253	0.722733	-3.505896	0.089102	-0.056087	-0.063581	0.999838	-0.001911	0.003613	-0.017529	
38481	    0	14.770665	-8.027361	-4.572438	-0.287644	0.564797	-3.555491	0.146118	-0.082947	-0.046021	0.999837	-0.001438	0.002824	-0.017776	
38482	    0	9.906867	-11.098924	-3.451682	-0.308053	0.491168	-3.467548	0.097039	-0.112737	-0.034584	0.999846	-0.001540	0.002456	-0.017337	
38483	    0	11.953226	-11.218388	-2.162713	-0.622397	0.459311	-3.290715	0.117615	-0.114197	-0.021545	0.999857	-0.003112	0.002296	-0.016453	
38484	    0	12.216550	-9.860319	-2.610914	-0.858920	0.384158	-3.226814	0.120502	-0.100668	-0.025912	0.999858	-0.004294	0.001921	-0.016133	
38485	    0	13.827691	-7.434112	-3.885457	-0.983473	0.401515	-3.096910	0.137024	-0.076660	-0.038757	0.999866	-0.004917	0.002007	-0.015484	
38486	    0	16.101113	-4.927972	-4.752361	-1.012652	0.527403	-2.905010	0.160145	-0.051851	-0.047688	0.999878	-0.005063	0.002637	-0.014524	
38487	    0	18.482802	-3.913746	-4.423824	-0.892669	0.674652	-2.616208	0.184143	-0.041748	-0.044678	0.999898	-0.004463	0.003373	-0.013081	
38488	    0	21.194457	-3.994655	-3.222584	-0.790428	0.813889	-2.380059	0.211315	-0.042593	-0.032922	0.999912	-0.003952	0.004069	-0.011900	
38489	    0	21.419288	-4.061708	-2.357348	-0.934435	0.856804	-2.208769	0.213623	-0.043091	-0.024292	0.999918	-0.004672	0.004284	-0.011044	
38490	    0	17.689511	-3.104033	-2.494642	-1.082250	0.947588	-1.552420	0.176526	-0.032549	-0.025610	0.999944	-0.005411	0.004738	-0.007762	
38491	    0	14.742951	-1.921813	-1.434457	-0.996219	0.959788	-0.822458	0.147278	-0.019897	-0.014954	0.999968	-0.004981	0.004799	-0.004112	
38492	    0	12.584167	-1.580424	-1.386215	-0.481607	0.821308	-0.209618	0.125767	-0.015970	-0.014340	0.999988	-0.002408	0.004107	-0.001048	
38493	    0	10.676202	0.720823	-1.495781	-0.166321	0.781443	0.355531	0.106689	0.007385	-0.015381	0.999990	-0.000832	0.003907	0.001778	
38494	    0	9.429880	1.602377	-1.428741	-0.120164	0.682835	0.975805	0.094170	0.016475	-0.014619	0.999982	-0.000601	0.003414	0.004879	
38495	    0	8.425352	1.081767	-1.782921	0.165751	0.585945	1.670859	0.084106	0.011536	-0.018066	0.999960	0.000829	0.002930	0.008354	
38496	    0	7.662249	1.085547	-2.105413	0.659768	0.431072	2.318822	0.076444	0.011812	-0.021181	0.999925	0.003299	0.002155	0.011594	
38497	    0	6.869782	2.417288	-2.386733	1.222281	0.259601	2.954991	0.068298	0.025330	-0.023804	0.999871	0.006111	0.001298	0.014774	
38498	    0	6.232029	4.033397	-2.718602	1.506708	0.126084	3.549224	0.061572	0.041635	-0.026915	0.999813	0.007533	0.000630	0.017745	
38499	    0	5.777350	4.561930	-3.045181	1.728202	-0.070006	4.123268	0.056824	0.047058	-0.030029	0.999749	0.008640	-0.000350	0.020615	
38500	    0	5.839170	4.555085	-3.178297	1.850515	-0.262097	4.679030	0.057342	0.047192	-0.031276	0.999682	0.009252	-0.001310	0.023393	
38501	    0	6.063954	4.780307	-3.277706	1.734566	-0.418905	5.137504	0.059448	0.049622	-0.032227	0.999630	0.008672	-0.002094	0.025684	
38502	    0	6.538887	4.686399	-3.627902	1.390646	-0.592884	5.497914	0.064170	0.048889	-0.035752	0.999593	0.006952	-0.002964	0.027486	
38503	    0	7.093527	4.208874	-3.779590	1.032408	-0.793382	5.781638	0.069824	0.044312	-0.037292	0.999560	0.005161	-0.003966	0.028904	
38504	    0	7.407162	3.577183	-3.348284	0.739213	-1.014487	5.999169	0.073120	0.038097	-0.032972	0.999530	0.003695	-0.005072	0.029991	
38505	    0	7.979334	2.944650	-2.547870	0.582984	-1.225297	6.214427	0.078979	0.031982	-0.024902	0.999494	0.002914	-0.006125	0.031067	
38506	    0	8.414566	3.130161	-1.985989	0.545028	-1.445077	6.398211	0.083226	0.034027	-0.019166	0.999458	0.002725	-0.007224	0.031985	
38507	    0	9.079184	3.570200	-1.388850	0.541219	-1.610111	6.570169	0.089661	0.038696	-0.013062	0.999424	0.002706	-0.008049	0.032845	
38508	    0	10.110950	4.470945	-0.982043	0.585673	-1.733936	6.681634	0.099620	0.048081	-0.008815	0.999399	0.002928	-0.008668	0.033401	
38509	    0	11.501511	5.234841	-0.733059	0.675531	-1.829905	6.751878	0.113220	0.056213	-0.006104	0.999382	0.003377	-0.009148	0.033752	
38510	    0	12.475901	7.036120	-0.994502	0.763861	-1.855091	6.766388	0.122367	0.074563	-0.008523	0.999377	0.003819	-0.009274	0.033825	
38511	    0	13.757716	10.064007	0.058677	0.518330	-1.713142	6.693844	0.134094	0.105164	0.002014	0.999399	0.002591	-0.008564	0.033463	
38512	    0	14.207163	12.991994	1.337277	0.297793	-1.541045	6.523402	0.137626	0.134437	0.014643	0.999436	0.001489	-0.007704	0.032611	
38513	    0	15.173652	15.935815	3.548758	-0.003815	-1.286339	6.180836	0.146484	0.163940	0.036438	0.999501	-0.000019	-0.006431	0.030899	
38514	    0	16.423624	16.989824	5.672369	-0.102248	-0.979368	5.673811	0.159049	0.174489	0.057423	0.999585	-0.000511	-0.004896	0.028365	
38515	    0	17.240912	18.139548	5.292665	0.188657	-0.649329	4.964966	0.167664	0.185547	0.053650	0.999685	0.000943	-0.003246	0.024822	
38516	    0	15.928498	21.791933	2.202584	0.610014	-0.493848	4.075152	0.154746	0.221034	0.023083	0.999784	0.003050	-0.002469	0.020374	
38517	    0	12.406535	26.985075	-0.527518	0.755531	-0.467701	2.965664	0.120056	0.271667	-0.003967	0.999880	0.003778	-0.002338	0.014828	
38518	    0	10.172601	30.008682	-0.007208	0.661098	-0.516137	1.807433	0.099007	0.300987	0.001180	0.999949	0.003305	-0.002581	0.009037	
38519	    0	8.437628	31.241720	3.717014	0.617983	-0.464441	0.624087	0.083313	0.312561	0.038330	0.999988	0.003090	-0.002322	0.003120	
38520	    0	10.138298	30.132671	5.333423	0.727465	-0.247002	-0.407602	0.101930	0.300922	0.054555	0.999990	0.003637	-0.001235	-0.002038	
38521	    0	11.145775	37.305850	1.733170	1.494633	-0.156215	-1.807445	0.114807	0.371887	0.020203	0.999930	0.007473	-0.000781	-0.009037	
38522	    0	15.114414	53.843976	-2.335033	0.835653	-0.054744	-3.453436	0.160418	0.535814	-0.021065	0.999842	0.004178	-0.000274	-0.017266	
38523	    0	22.885249	39.262556	-4.061804	-1.838113	0.362625	-4.639919	0.237793	0.386780	-0.044617	0.999686	-0.009190	0.001813	-0.023197	
38524	    0	23.285492	-14.212405	-6.320292	-2.824361	0.334399	-4.564263	0.229414	-0.148263	-0.061523	0.999638	-0.014120	0.001672	-0.022819	
38525	    0	24.755104	-17.203795	-6.911267	0.723554	0.109878	-5.620564	0.242554	-0.178650	-0.069885	0.999598	0.003617	0.000549	-0.028099	
38526	    0	24.704724	12.019661	-4.629503	2.005782	0.261358	-6.578409	0.250772	0.112447	-0.045467	0.999408	0.010027	0.001307	-0.032886	
38527	    0	12.720928	15.384487	5.788998	0.713645	0.309799	-5.922053	0.131775	0.149780	0.058228	0.999554	0.003568	0.001549	-0.029606	
38528	    0	-0.797383	7.683737	0.512157	1.410482	-0.008966	-5.479781	-0.005866	0.076979	0.005664	0.999599	0.007051	-0.000045	-0.027395	
38529	    0	0.577181	13.556495	-1.279058	0.947853	-0.062567	-4.718473	0.008972	0.135437	-0.012146	0.999710	0.004739	-0.000313	-0.023590	
38530	    0	7.398944	12.494434	0.298624	-0.053981	0.013162	-3.916228	0.076417	0.123465	0.002948	0.999807	-0.000270	0.000066	-0.019580	
38531	    0	10.242585	5.401278	0.122059	0.045016	0.141341	-3.428818	0.103333	0.052246	0.001160	0.999852	0.000225	0.000707	-0.017143	
38532	    0	12.716227	7.405783	-0.858356	0.174339	0.184830	-3.131423	0.128293	0.072062	-0.008638	0.999876	0.000872	0.000924	-0.015656	
38533	    0	15.223720	6.541365	-1.334321	-0.164800	0.121502	-2.839757	0.153137	0.063232	-0.013489	0.999898	-0.000824	0.000607	-0.014198	
38534	    0	15.130897	6.290511	-1.271157	-0.293740	0.050355	-2.558970	0.152094	0.060944	-0.012840	0.999917	-0.001469	0.000252	-0.012794	
38535	    0	15.581094	7.498446	-1.568126	-0.355347	-0.005341	-2.348383	0.156677	0.073120	-0.015808	0.999929	-0.001777	-0.000027	-0.011742	
38536	    0	14.863214	6.730879	-2.916290	-0.534640	-0.023270	-2.051201	0.149315	0.065701	-0.029323	0.999944	-0.002673	-0.000116	-0.010256	
38537	    0	16.111395	6.183624	-1.685054	-0.707064	0.029755	-1.673912	0.161621	0.060425	-0.017090	0.999958	-0.003535	0.000149	-0.008369	
38538	    0	16.844012	5.377396	-0.297263	-0.764283	0.090219	-1.448838	0.168822	0.052540	-0.003251	0.999966	-0.003821	0.000451	-0.007244	
38539	    0	17.874706	6.681109	0.480427	-0.711639	0.195314	-1.356520	0.179199	0.065613	0.004395	0.999969	-0.003558	0.000977	-0.006783	
38540	    0	18.122089	4.089829	0.473361	-0.688940	0.267603	-1.238834	0.181476	0.039790	0.004353	0.999973	-0.003445	0.001338	-0.006194	
38541	    0	18.046841	3.556997	-0.069134	-0.778777	0.300601	-1.129923	0.180664	0.034546	-0.001099	0.999975	-0.003894	0.001503	-0.005650	
38542	    0	17.002090	2.732140	-0.624002	-1.064692	0.273135	-0.980386	0.170143	0.026453	-0.006615	0.999972	-0.005323	0.001366	-0.004902	
38543	    0	16.725219	2.848699	-1.444832	-1.449603	0.216105	-0.874339	0.167358	0.027649	-0.014832	0.999963	-0.007248	0.001081	-0.004372	
38544	    0	16.147114	0.663088	-1.311789	-2.016870	0.163081	-0.764099	0.161484	0.005880	-0.013311	0.999941	-0.010084	0.000815	-0.003820	
38545	    0	14.904110	-1.327752	-0.886410	-2.389398	0.119022	-0.715656	0.148987	-0.013916	-0.008789	0.999922	-0.011947	0.000595	-0.003578	
38546	    0	14.524354	-1.938627	-0.312562	-2.422398	0.160985	-0.726910	0.145169	-0.019951	-0.003003	0.999919	-0.012112	0.000805	-0.003634	
38547	    0	14.252521	-3.128896	-0.746920	-2.265794	0.215154	-0.771350	0.142395	-0.031921	-0.007263	0.999928	-0.011329	0.001076	-0.003857	
38548	    0	13.453930	-5.917579	-1.348484	-1.935423	0.296789	-0.796905	0.134282	-0.059839	-0.013107	0.999944	-0.009677	0.001484	-0.003984	
38549	    0	12.126046	-5.790676	-2.160173	-1.483936	0.319866	-0.872051	0.120972	-0.058594	-0.021362	0.999961	-0.007420	0.001599	-0.004360	
38550	    0	10.361574	-6.470559	-3.519824	-1.083385	0.330737	-1.018725	0.103226	-0.065422	-0.035016	0.999970	-0.005417	0.001654	-0.005094	
38551	    0	8.204518	-6.947527	-2.656550	-0.536923	0.421909	-1.277172	0.081543	-0.070068	-0.026550	0.999973	-0.002685	0.002110	-0.006386	
38552	    0	6.614891	-4.510298	-3.213119	-0.036049	0.415807	-1.560800	0.065727	-0.045623	-0.032260	0.999967	-0.000180	0.002079	-0.007804	
38553	    0	6.252208	-1.275183	-2.947614	0.273137	0.541887	-1.905092	0.062317	-0.013306	-0.029663	0.999949	0.001366	0.002709	-0.009525	
38554	    0	7.171549	1.799098	-1.748098	0.168423	0.712414	-2.439374	0.071865	0.017130	-0.017722	0.999918	0.000842	0.003562	-0.012197	
38555	    0	9.173431	2.448762	-3.565424	-0.034143	0.900304	-2.937432	0.091919	0.023132	-0.036072	0.999882	-0.000171	0.004501	-0.014687	
38556	    0	8.775403	-1.504336	-6.875382	-0.311294	1.018763	-3.175312	0.087148	-0.016538	-0.069174	0.999859	-0.001556	0.005094	-0.015876	
38557	    0	15.056419	-5.463409	-7.174373	-0.180063	0.927971	-3.327345	0.149292	-0.057190	-0.072388	0.999850	-0.000900	0.004640	-0.016636	
38558	    0	11.082204	-8.433188	-5.131452	-0.285736	0.840041	-3.450385	0.109128	-0.086298	-0.051653	0.999841	-0.001429	0.004200	-0.017251	
38559	    0	13.255995	-8.807360	-2.773177	-0.700419	0.723499	-3.566946	0.130859	-0.090515	-0.027893	0.999827	-0.003502	0.003617	-0.017834	
38560	    0	14.226645	-8.613382	-3.264343	-1.195981	0.591124	-3.606446	0.140584	-0.088874	-0.032535	0.999815	-0.005980	0.002955	-0.018031	
38561	    0	16.291297	-8.009571	-4.675056	-1.744768	0.588265	-3.548668	0.161316	-0.083374	-0.046509	0.999800	-0.008723	0.002941	-0.017742	
38562	    0	18.429645	-7.253625	-5.330679	-1.888972	0.639195	-3.447951	0.182834	-0.076200	-0.053185	0.999802	-0.009444	0.003196	-0.017239	
38563	    0	21.015672	-6.429884	-4.960935	-1.518146	0.788162	-3.285405	0.208862	-0.068115	-0.049927	0.999828	-0.007590	0.003941	-0.016426	
38564	    0	22.756202	-4.736893	-3.333016	-0.715670	0.935979	-3.111983	0.226628	-0.051022	-0.034214	0.999861	-0.003578	0.004680	-0.015559	
38565	    0	21.017632	-2.039091	-2.864140	-0.088504	0.924909	-2.890889	0.209717	-0.023438	-0.029602	0.999885	-0.000443	0.004624	-0.014454	
38566	    0	18.389078	-1.511219	-2.045663	-0.041009	0.893238	-2.541047	0.183585	-0.017450	-0.021274	0.999908	-0.000205	0.004466	-0.012705	
38567	    0	15.008597	-1.366874	-2.305465	-0.479136	0.802057	-2.046247	0.149841	-0.015259	-0.023621	0.999936	-0.002396	0.004010	-0.010231	
38568	    0	10.735150	-1.486729	-1.924151	-0.766762	0.680359	-1.227773	0.107191	-0.015600	-0.019547	0.999968	-0.003834	0.003402	-0.006139	
38569	    0	7.749343	-2.432300	-1.816851	-0.490381	0.521852	-0.434877	0.077393	-0.024536	-0.018311	0.999990	-0.002452	0.002609	-0.002174	
38570	    0	6.821516	-1.448972	-2.628964	-0.021172	0.296211	0.253105	0.068194	-0.014406	-0.026389	0.999998	-0.000106	0.001481	0.001266	
38571	    0	6.313711	1.537725	-3.440273	0.127602	0.098420	0.909427	0.063049	0.015686	-0.034424	0.999989	0.000638	0.000492	0.004547	
38572	    0	5.355479	2.096790	-3.529622	0.168039	-0.089265	1.664753	0.053393	0.021442	-0.035254	0.999965	0.000840	-0.000446	0.008324	
38573	    0	4.327411	1.839052	-3.287343	0.415050	-0.271423	2.425446	0.043091	0.018982	-0.032776	0.999923	0.002075	-0.001357	0.012127	
38574	    0	3.877868	2.031208	-3.106450	0.719103	-0.494407	3.179122	0.038525	0.021037	-0.030894	0.999864	0.003595	-0.002472	0.015895	
38575	    0	4.264222	1.947344	-3.106663	0.923984	-0.710918	3.912625	0.042358	0.020447	-0.030823	0.999791	0.004620	-0.003554	0.019562	
38576	    0	4.767381	1.624947	-3.244273	1.077183	-0.951858	4.580556	0.047436	0.017511	-0.032125	0.999711	0.005385	-0.004759	0.022901	
38577	    0	5.698812	1.649910	-2.857436	1.173735	-1.175833	5.148943	0.056702	0.018127	-0.028137	0.999634	0.005868	-0.005878	0.025742	
38578	    0	7.021636	1.867304	-2.352425	1.127977	-1.366812	5.597919	0.069813	0.020761	-0.022933	0.999569	0.005639	-0.006833	0.027986	
38579	    0	8.256752	1.713314	-1.902904	0.985302	-1.520780	5.902274	0.082153	0.019653	-0.018311	0.999523	0.004926	-0.007603	0.029507	
38580	    0	8.925225	1.292214	-1.664081	0.949834	-1.705849	6.166579	0.088933	0.015744	-0.015811	0.999476	0.004748	-0.008528	0.030828	
38581	    0	9.772179	1.115944	-1.300280	0.934778	-1.880049	6.410670	0.097412	0.014343	-0.012024	0.999431	0.004673	-0.009398	0.032047	
38582	    0	10.452380	1.400140	-0.839307	0.779309	-2.036888	6.612015	0.104062	0.017477	-0.007268	0.999393	0.003896	-0.010182	0.033053	
38583	    0	11.563198	1.141971	-0.304652	0.549435	-2.146422	6.858021	0.115173	0.015381	-0.001770	0.999351	0.002747	-0.010730	0.034283	
38584	    0	12.952609	0.980946	0.450955	0.464165	-2.248520	7.080759	0.129009	0.014371	0.005992	0.999307	0.002320	-0.011240	0.035396	
38585	    0	14.347438	1.775378	1.573210	0.477143	-2.257319	7.244329	0.142517	0.022888	0.017395	0.999277	0.002385	-0.011284	0.036213	
38586	    0	15.363945	3.546578	2.414769	0.567574	-2.195702	7.300247	0.151933	0.040961	0.025933	0.999269	0.002837	-0.010976	0.036492	
38587	    0	16.382875	6.639577	3.090975	0.487825	-2.017693	7.271019	0.160950	0.072205	0.032715	0.999285	0.002439	-0.010086	0.036346	
38588	    0	17.226702	8.718400	3.676381	0.393003	-1.748483	7.168302	0.168667	0.093199	0.038428	0.999317	0.001965	-0.008740	0.035833	
38589	    0	17.778187	11.837658	4.464245	0.630511	-1.484991	6.906813	0.173218	0.124268	0.046326	0.999371	0.003152	-0.007423	0.034527	
38590	    0	18.426941	15.668312	5.346461	1.001735	-1.251263	6.490581	0.178720	0.162270	0.055398	0.999441	0.005008	-0.006255	0.032447	
38591	    0	18.711339	19.850842	4.645138	1.480528	-1.030895	5.901510	0.180908	0.203552	0.048889	0.999523	0.007401	-0.005154	0.029503	
38592	    0	17.795556	23.987799	2.151612	1.858943	-0.872912	5.070174	0.171700	0.244065	0.024530	0.999625	0.009294	-0.004364	0.025348	
38593	    0	14.951169	28.937854	0.260711	2.007657	-0.785895	3.992805	0.143677	0.292236	0.006104	0.999743	0.010037	-0.003929	0.019962	
38594	    0	10.794173	33.684871	0.989851	1.795470	-0.686486	2.719433	0.103308	0.338165	0.013290	0.999861	0.008977	-0.003432	0.013597	
38595	    0	8.026393	34.733887	3.393834	1.363396	-0.487336	1.426721	0.077698	0.347656	0.036499	0.999948	0.006817	-0.002437	0.007133	
38596	    0	6.908434	32.954226	4.604579	1.210983	-0.180436	0.227167	0.068667	0.329333	0.048102	0.999980	0.006055	-0.000902	0.001136	
38597	    0	9.488557	30.898840	2.827557	1.303113	0.026894	-0.804146	0.096130	0.308411	0.030273	0.999970	0.006516	0.000134	-0.004021	
38598	    0	9.095905	31.318823	-2.624164	1.514663	0.016594	-1.901483	0.093930	0.312491	-0.023881	0.999926	0.007573	0.000083	-0.009507	
38599	    0	10.601971	43.099522	-11.657744	2.257699	-0.369861	-3.445680	0.113647	0.430359	-0.111511	0.999785	0.011288	-0.001849	-0.017227	
38600	    0	19.180308	36.637861	-5.728045	-1.109796	0.043301	-4.532653	0.200022	0.361582	-0.059339	0.999727	-0.005548	0.000216	-0.022661	
38601	    0	22.919725	-11.615740	0.233049	-2.717125	0.470213	-4.322525	0.226624	-0.121033	0.003418	0.999671	-0.013584	0.002351	-0.021610	
38602	    0	23.914811	-10.775224	-12.246524	1.670101	-0.068864	-5.337266	0.236220	-0.113055	-0.123313	0.999609	0.008349	-0.000344	-0.026683	
38603	    0	34.202173	26.384989	-3.640657	1.840020	0.250296	-6.815229	0.350708	0.252319	-0.034485	0.999376	0.009198	0.001251	-0.034069	
38604	    0	19.581476	12.453592	11.923893	-1.466417	0.571534	-6.041745	0.199812	0.119407	0.117784	0.999513	-0.007331	0.002857	-0.030204	
38605	    0	2.560903	-0.160941	4.261976	0.362632	0.104536	-5.422115	0.025574	-0.002380	0.042603	0.999630	0.001813	0.000523	-0.027107	
38606	    0	6.204877	13.604654	0.150857	0.426338	0.025370	-5.024870	0.065440	0.134427	0.001788	0.999681	0.002131	0.000127	-0.025122	
38607	    0	5.578267	7.290436	-2.302667	-0.089843	-0.171675	-4.358256	0.057373	0.071655	-0.023010	0.999762	-0.000449	-0.000858	-0.021790	
38608	    0	7.574648	4.274183	-2.595532	-0.006867	-0.266474	-3.929011	0.076601	0.041242	-0.025855	0.999805	-0.000034	-0.001332	-0.019644	
38609	    0	9.761686	5.726423	-1.570949	0.222981	-0.292984	-3.539463	0.098633	0.055542	-0.015503	0.999842	0.001115	-0.001465	-0.017696	
38610	    0	11.535616	8.396251	-0.145333	0.118070	-0.253879	-3.173390	0.116671	0.082119	-0.001257	0.999872	0.000590	-0.001269	-0.015866	
38611	    0	12.219215	5.697434	-0.330469	0.136762	-0.151067	-2.835178	0.122986	0.055237	-0.003174	0.999899	0.000684	-0.000755	-0.014175	
38612	    0	12.926152	8.351429	-2.851606	0.097850	-0.046922	-2.544281	0.130317	0.081875	-0.028445	0.999919	0.000489	-0.000235	-0.012721	
38613	    0	12.879038	9.090864	-3.849294	-0.200466	-0.013733	-2.151531	0.129761	0.089478	-0.038574	0.999941	-0.001002	-0.000069	-0.010757	
38614	    0	12.760617	7.134088	-3.268176	-0.402647	0.023461	-1.738953	0.128216	0.070162	-0.032839	0.999960	-0.002013	0.000117	-0.008695	
38615	    0	14.603024	6.664976	-2.336897	-0.531011	0.104714	-1.415266	0.146484	0.065552	-0.023621	0.999970	-0.002655	0.000524	-0.007076	
38616	    0	18.679561	8.073607	-0.895086	-0.571255	0.168992	-1.172646	0.187257	0.079613	-0.009337	0.999978	-0.002856	0.000845	-0.005863	
38617	    0	21.223587	7.430244	1.065521	-0.639920	0.213625	-1.086433	0.212646	0.073181	0.010193	0.999979	-0.003200	0.001068	-0.005432	
38618	    0	22.140312	4.108985	2.696092	-0.805860	0.232126	-0.950057	0.221626	0.040145	0.026541	0.999979	-0.004029	0.001161	-0.004750	
38619	    0	22.049698	4.285804	1.956482	-1.016243	0.222971	-0.873572	0.220703	0.041992	0.019104	0.999976	-0.005081	0.001115	-0.004368	
38620	    0	21.374518	3.253923	1.122218	-1.442735	0.178339	-0.772103	0.213879	0.031793	0.010800	0.999966	-0.007214	0.000892	-0.003860	
38621	    0	20.059050	0.993587	0.095366	-1.995887	0.126078	-0.664533	0.200623	0.009277	0.000732	0.999944	-0.009979	0.000630	-0.003323	
38622	    0	18.799850	-1.917650	-0.427587	-2.591209	0.057794	-0.531403	0.187945	-0.019730	-0.004077	0.999912	-0.012956	0.000289	-0.002657	
38623	    0	16.658555	-3.009735	-1.194729	-2.870089	0.031282	-0.523395	0.166504	-0.030701	-0.011536	0.999893	-0.014350	0.000156	-0.002617	
38624	    0	15.534893	-4.428056	-1.481298	-2.807714	0.095561	-0.588247	0.155210	-0.044940	-0.014259	0.999897	-0.014038	0.000478	-0.002941	
38625	    0	12.517719	-6.756250	-2.299342	-2.409998	0.166325	-0.645464	0.124939	-0.068237	-0.022278	0.999922	-0.012050	0.000832	-0.003227	
38626	    0	10.861665	-7.501185	-2.317857	-1.882204	0.230030	-0.729192	0.108315	-0.075622	-0.022593	0.999948	-0.009411	0.001150	-0.003646	
38627	    0	8.984840	-7.979101	-2.720205	-1.227390	0.324252	-0.816353	0.089478	-0.080322	-0.026855	0.999971	-0.006137	0.001621	-0.004082	
38628	    0	8.273437	-6.068577	-2.354794	-0.502017	0.406459	-1.050574	0.082366	-0.061178	-0.023562	0.999981	-0.002510	0.002032	-0.005253	
38629	    0	5.640177	-3.923142	-3.091053	0.214578	0.405887	-1.255045	0.056091	-0.039551	-0.031067	0.999977	0.001073	0.002029	-0.006275	
38630	    0	4.934698	-0.100832	-2.762113	0.513656	0.514037	-1.614782	0.049266	-0.001335	-0.027751	0.999960	0.002568	0.002570	-0.008074	
38631	    0	6.803089	2.773107	-1.102665	0.219732	0.685326	-2.245383	0.068298	0.026978	-0.011230	0.999930	0.001099	0.003427	-0.011227	
38632	    0	7.139469	1.853379	-4.273309	-0.304614	0.853377	-2.708718	0.071453	0.017501	-0.043065	0.999898	-0.001523	0.004267	-0.013543	
38633	    0	6.799184	-3.210634	-6.770558	-0.641466	0.984229	-2.787124	0.067200	-0.033264	-0.067932	0.999886	-0.003207	0.004921	-0.013935	
38634	    0	14.376008	-4.070267	-8.343751	-0.728066	0.802456	-3.031480	0.142782	-0.043177	-0.083858	0.999870	-0.003640	0.004012	-0.015157	
38635	    0	10.200415	-8.174042	-5.316736	-0.993205	0.804941	-3.196111	0.100464	-0.083618	-0.053162	0.999851	-0.004966	0.004025	-0.015980	
38636	    0	11.805850	-9.851157	-2.333026	-1.358489	0.779958	-3.305619	0.116317	-0.100601	-0.023108	0.999832	-0.006792	0.003900	-0.016527	
38637	    0	12.270271	-11.012763	-2.135216	-1.624207	0.705762	-3.405971	0.120728	-0.112366	-0.020874	0.999815	-0.008121	0.003529	-0.017029	
38638	    0	12.975482	-10.199121	-3.099717	-1.915671	0.689550	-3.310030	0.127934	-0.104412	-0.030448	0.999811	-0.009578	0.003448	-0.016549	
38639	    0	15.055823	-8.952422	-3.554631	-1.938744	0.744101	-3.153416	0.148987	-0.092224	-0.035217	0.999822	-0.009693	0.003720	-0.015766	
38640	    0	16.951522	-6.961328	-4.006578	-1.679128	0.800366	-3.037041	0.168268	-0.072512	-0.040140	0.999841	-0.008395	0.004002	-0.015184	
38641	    0	18.425926	-5.180998	-4.323670	-1.303159	0.887529	-2.891671	0.183289	-0.054749	-0.043701	0.999864	-0.006516	0.004437	-0.014458	
38642	    0	20.411989	-4.070339	-4.188711	-0.971068	1.000824	-2.672106	0.203338	-0.043630	-0.042699	0.999886	-0.004855	0.005004	-0.013360	
38643	    0	21.734788	-4.519463	-3.064472	-0.726151	0.997193	-2.458268	0.216614	-0.047974	-0.031555	0.999905	-0.003631	0.004986	-0.012291	
38644	    0	20.064972	-4.915736	-2.407697	-0.550664	0.955985	-2.084971	0.200005	-0.051312	-0.024895	0.999930	-0.002753	0.004780	-0.010425	
38645	    0	16.272629	-2.745215	-2.269561	-0.508887	0.926412	-1.446553	0.162415	-0.028687	-0.023376	0.999959	-0.002544	0.004632	-0.007233	
38646	    0	12.603102	-1.560645	-1.738416	-0.182534	0.848965	-0.650409	0.125904	-0.016032	-0.017904	0.999985	-0.000913	0.004245	-0.003252	
38647	    0	10.561338	-1.324349	-2.389403	0.282479	0.718691	0.048828	0.105530	-0.013184	-0.024292	0.999992	0.001412	0.003593	0.000244	
38648	    0	8.988808	0.598412	-3.090841	0.565150	0.630191	0.724415	0.089767	0.006397	-0.031174	0.999984	0.002826	0.003151	0.003622	
38649	    0	7.829886	1.835149	-3.696511	0.681504	0.533301	1.446550	0.078064	0.019043	-0.037109	0.999964	0.003407	0.002666	0.007233	
38650	    0	7.089658	1.923017	-4.175860	0.846883	0.413141	2.188353	0.070593	0.020181	-0.041821	0.999928	0.004234	0.002066	0.010942	
38651	    0	6.439365	1.999619	-4.439503	1.113937	0.290883	2.917600	0.064026	0.021179	-0.044373	0.999877	0.005569	0.001454	0.014587	
38652	    0	5.986987	2.664710	-4.734810	1.297077	0.145540	3.618463	0.059337	0.028030	-0.047213	0.999815	0.006485	0.000728	0.018091	
38653	    0	5.919944	3.321262	-4.845214	1.352232	-0.009156	4.260609	0.058472	0.034790	-0.048218	0.999750	0.006761	-0.000046	0.021301	
38654	    0	6.157123	3.626181	-5.084369	1.352645	-0.195906	4.870362	0.060708	0.038090	-0.050530	0.999680	0.006763	-0.000979	0.024349	
38655	    0	6.586382	3.855504	-4.983276	1.333792	-0.392011	5.409181	0.064880	0.040649	-0.049438	0.999610	0.006668	-0.001960	0.027042	
38656	    0	7.223877	3.886361	-4.917717	1.260568	-0.601097	5.884877	0.071195	0.041277	-0.048707	0.999542	0.006302	-0.003005	0.029420	
38657	    0	8.116647	3.731961	-4.779452	1.124002	-0.827740	6.246489	0.080139	0.040100	-0.047241	0.999488	0.005619	-0.004138	0.031227	
38658	    0	8.910677	3.386792	-4.594752	0.960336	-1.074417	6.494957	0.088184	0.036961	-0.045300	0.999446	0.004801	-0.005371	0.032469	
38659	    0	9.613242	3.034387	-4.503952	0.916663	-1.337698	6.702988	0.095337	0.033752	-0.044250	0.999405	0.004582	-0.006687	0.033508	
38660	    0	10.568139	2.696667	-4.197833	0.936517	-1.565122	6.913704	0.104984	0.030798	-0.041017	0.999360	0.004682	-0.007824	0.034561	
38661	    0	11.224864	3.560934	-4.361495	1.079041	-1.770994	7.086265	0.111267	0.039795	-0.042419	0.999318	0.005394	-0.008853	0.035423	
38662	    0	12.345488	5.324187	-4.706833	1.096985	-1.915813	7.207479	0.121865	0.057906	-0.045587	0.999290	0.005484	-0.009577	0.036029	
38663	    0	13.233636	7.432055	-5.477927	1.030408	-2.047461	7.258832	0.130066	0.079346	-0.053040	0.999275	0.005151	-0.010235	0.036285	
38664	    0	14.057114	9.125413	-5.954604	1.075052	-2.187496	7.227551	0.137781	0.096581	-0.057519	0.999272	0.005374	-0.010935	0.036129	
38665	    0	14.362915	12.420258	-6.495246	1.345386	-2.343360	7.100859	0.139832	0.129639	-0.062439	0.999278	0.006725	-0.011714	0.035496	
38666	    0	15.357055	19.461896	-3.488967	0.499453	-2.162643	6.889894	0.147107	0.199845	-0.032781	0.999345	0.002497	-0.010811	0.034442	
38667	    0	14.562119	19.083089	-0.053202	-0.653970	-1.995295	6.599219	0.139221	0.195496	0.000244	0.999400	-0.003269	-0.009974	0.032990	
38668	    0	16.365548	19.025903	3.231420	-1.338431	-1.763654	6.112412	0.157451	0.195352	0.032425	0.999472	-0.006691	-0.008817	0.030557	
38669	    0	18.013166	18.606635	6.054746	-1.497865	-1.470967	5.471822	0.174500	0.191345	0.060425	0.999570	-0.007488	-0.007354	0.027355	
38670	    0	16.879072	19.061521	5.543386	-0.764732	-1.232078	4.652102	0.163951	0.194679	0.055715	0.999702	-0.003823	-0.006160	0.023258	
38671	    0	13.449709	24.032249	2.755456	0.203907	-1.160498	3.528798	0.130066	0.242615	0.028564	0.999826	0.001019	-0.005802	0.017643	
38672	    0	9.534722	29.574788	3.140272	0.637263	-1.135668	2.279347	0.091785	0.296704	0.032875	0.999913	0.003186	-0.005678	0.011396	
38673	    0	8.424087	31.548484	7.915216	0.600630	-0.978098	1.036082	0.082214	0.315674	0.080505	0.999969	0.003003	-0.004890	0.005180	
38674	    0	8.683022	29.667317	12.174876	0.628664	-0.608065	-0.069237	0.086560	0.296258	0.122944	0.999990	0.003143	-0.003040	-0.000346	
38675	    0	11.032127	27.323396	11.082291	0.827032	-0.198938	-0.999458	0.111572	0.272217	0.112061	0.999978	0.004135	-0.000995	-0.004997	
38676	    0	10.960776	23.541593	2.718707	1.241712	-0.151256	-1.939435	0.111861	0.234163	0.028728	0.999933	0.006208	-0.000756	-0.009697	
38677	    0	14.101714	40.334859	-3.828635	1.765568	-0.265331	-3.731040	0.148560	0.400940	-0.034546	0.999785	0.008827	-0.001327	-0.018654	
38678	    0	21.345850	23.053751	1.834354	-0.978926	0.120172	-4.170546	0.218215	0.226106	0.017099	0.999770	-0.004894	0.000601	-0.020851	
38679	    0	23.955422	-22.463626	6.490291	-2.208706	0.489086	-3.895135	0.235291	-0.228516	0.066833	0.999746	-0.011043	0.002445	-0.019474	
38680	    0	26.340978	-14.586982	0.576120	0.069816	0.371400	-5.032692	0.259639	-0.152437	0.005224	0.999681	0.000349	0.001857	-0.025161	
38681	    0	28.081508	15.902652	-7.797253	2.514366	0.007059	-6.286296	0.285645	0.151062	-0.076050	0.999427	0.012569	0.000035	-0.031425	
38682	    0	26.832567	22.308833	3.195179	0.291306	0.300463	-6.638415	0.275578	0.213974	0.031857	0.999447	0.001456	0.001502	-0.033186	
38683	    0	3.369114	2.281941	5.605613	0.174737	-0.092901	-5.752595	0.034302	0.021790	0.056091	0.999585	0.000874	-0.000464	-0.028759	
38684	    0	2.747567	14.980474	-1.212610	1.092663	-0.206973	-5.304795	0.031448	0.149069	-0.011279	0.999632	0.005463	-0.001035	-0.026521	
38685	    0	1.295222	12.470924	-1.312461	0.155080	-0.372345	-4.450596	0.015747	0.124390	-0.013000	0.999750	0.000775	-0.001862	-0.022251	
38686	    0	5.208880	6.443968	-2.602931	0.124748	-0.201810	-3.862622	0.053347	0.063434	-0.025936	0.999812	0.000624	-0.001009	-0.019312	
38687	    0	10.283588	4.999822	-2.402271	0.342578	-0.025751	-3.522675	0.103699	0.048218	-0.023926	0.999843	0.001713	-0.000129	-0.017612	
38688	    0	14.007387	7.675834	-1.752950	0.145346	0.116925	-3.166141	0.141255	0.074541	-0.017557	0.999874	0.000727	0.000585	-0.015830	
38689	    0	14.099754	5.737738	-2.091488	0.022317	0.123600	-2.855780	0.141785	0.055359	-0.020996	0.999897	0.000112	0.000618	-0.014278	
38690	    0	14.090672	8.798039	-2.762146	-0.157742	0.150875	-2.520056	0.141979	0.086174	-0.027797	0.999920	-0.000789	0.000754	-0.012600	
38691	    0	13.166526	7.944401	-0.995742	-0.269323	0.103953	-2.159161	0.132507	0.078003	-0.010132	0.999940	-0.001347	0.000520	-0.010796	
38692	    0	12.928626	6.815887	-0.928527	-0.262264	0.123598	-1.779390	0.129880	0.066993	-0.009454	0.999959	-0.001311	0.000618	-0.008897	
38693	    0	13.964000	6.622148	-2.517882	-0.436405	0.185587	-1.401533	0.140076	0.065186	-0.025452	0.999972	-0.002182	0.000928	-0.007008	
38694	    0	17.542077	7.358439	-2.468244	-0.519565	0.212862	-1.130112	0.175806	0.072527	-0.025059	0.999980	-0.002598	0.001064	-0.005651	
38695	    0	20.174059	6.164337	-0.398942	-0.577548	0.226785	-0.952917	0.202026	0.060669	-0.004395	0.999984	-0.002888	0.001134	-0.004765	
38696	    0	21.041648	4.551288	1.180131	-0.738148	0.213433	-0.841908	0.210618	0.044669	0.011411	0.999983	-0.003691	0.001067	-0.004210	
38697	    0	20.879750	4.722605	1.395253	-1.013763	0.158692	-0.753026	0.208984	0.046509	0.013550	0.999979	-0.005069	0.000793	-0.003765	
38698	    0	19.763271	3.253662	1.195882	-1.467149	0.045777	-0.677879	0.197744	0.031953	0.011678	0.999967	-0.007336	0.000229	-0.003389	
38699	    0	18.323386	1.968447	0.903886	-2.066843	-0.079156	-0.601208	0.183289	0.019226	0.008911	0.999942	-0.010334	-0.000396	-0.003006	
38700	    0	17.341378	0.036378	0.679337	-2.746862	-0.163656	-0.479142	0.173409	0.000043	0.006933	0.999902	-0.013734	-0.000818	-0.002396	
38701	    0	15.946548	-1.802904	0.069845	-3.131044	-0.143439	-0.448627	0.159424	-0.018372	0.001099	0.999874	-0.015655	-0.000717	-0.002243	
38702	    0	15.756973	-3.221094	-0.768422	-3.077250	0.003243	-0.502225	0.157488	-0.032720	-0.007186	0.999878	-0.015386	0.000016	-0.002511	
38703	    0	13.524663	-5.935985	-2.455382	-2.766510	0.114635	-0.541705	0.135071	-0.060059	-0.023804	0.999900	-0.013832	0.000573	-0.002708	
38704	    0	12.404229	-6.277672	-3.897420	-2.290971	0.220495	-0.614944	0.123805	-0.063600	-0.038385	0.999928	-0.011455	0.001102	-0.003075	
38705	    0	10.533271	-7.679576	-5.241838	-1.796751	0.297742	-0.710308	0.104980	-0.077637	-0.051880	0.999951	-0.008984	0.001489	-0.003551	
38706	    0	8.255224	-6.736388	-5.250571	-1.130497	0.342754	-0.996027	0.082125	-0.068069	-0.052263	0.999969	-0.005652	0.001714	-0.004980	
38707	    0	6.452849	-5.679576	-4.726521	-0.461391	0.335696	-1.268016	0.064087	-0.057312	-0.047241	0.999975	-0.002307	0.001678	-0.006340	
38708	    0	4.722681	-1.504135	-2.545676	-0.177958	0.457388	-1.689360	0.047039	-0.015462	-0.025551	0.999961	-0.000890	0.002287	-0.008447	
38709	    0	6.397419	0.653399	-0.464611	-0.342377	0.707262	-2.272851	0.064026	0.005798	-0.004883	0.999928	-0.001712	0.003536	-0.011364	
38710	    0	6.648199	-0.711897	-3.348561	-0.531214	0.840978	-2.653020	0.066237	-0.008088	-0.033744	0.999899	-0.002656	0.004205	-0.013265	
38711	    0	6.815270	-4.096374	-6.028314	-0.597215	0.968972	-2.871818	0.067261	-0.042114	-0.060486	0.999880	-0.002986	0.004845	-0.014359	
38712	    0	11.198092	-3.899697	-7.982068	-0.432608	0.919196	-3.247418	0.110958	-0.040977	-0.080245	0.999855	-0.002163	0.004596	-0.016236	
38713	    0	11.232189	-7.061812	-4.964626	-0.285927	0.907947	-3.489112	0.110840	-0.072632	-0.050049	0.999836	-0.001430	0.004539	-0.017445	
38714	    0	11.198407	-9.052383	-1.658921	-0.293176	0.848628	-3.589644	0.110264	-0.092538	-0.016925	0.999828	-0.001466	0.004243	-0.017947	
38715	    0	11.379690	-9.607213	-0.239599	-0.525506	0.752303	-3.669195	0.112000	-0.098145	-0.002563	0.999821	-0.002627	0.003761	-0.018345	
38716	    0	12.498816	-9.646508	-0.579756	-0.848058	0.746390	-3.614642	0.123196	-0.098727	-0.005844	0.999821	-0.004240	0.003732	-0.018072	
38717	    0	14.037942	-8.860445	-1.686643	-0.987873	0.785873	-3.499805	0.138733	-0.091125	-0.016968	0.999826	-0.004939	0.003929	-0.017498	
38718	    0	16.206380	-7.264299	-2.776857	-1.011713	0.865221	-3.380198	0.160683	-0.075508	-0.028089	0.999835	-0.005058	0.004326	-0.016900	
38719	    0	19.159441	-5.422741	-3.860316	-0.804178	1.038603	-3.195349	0.190491	-0.057434	-0.039368	0.999850	-0.004021	0.005193	-0.015976	
38720	    0	22.568365	-4.509999	-3.792100	-0.422115	1.256616	-2.946982	0.224742	-0.048498	-0.039235	0.999869	-0.002110	0.006283	-0.014734	
38721	    0	24.618924	-4.523232	-3.574473	-0.047113	1.319173	-2.722272	0.245300	-0.048584	-0.037354	0.999886	-0.000236	0.006596	-0.013611	
38722	    0	23.881809	-4.529817	-2.644510	0.000572	1.324696	-2.450259	0.238057	-0.048218	-0.028024	0.999903	0.000003	0.006623	-0.012251	
38723	    0	19.189078	-3.251525	-2.523872	-0.042535	1.313047	-1.859324	0.191406	-0.034302	-0.026489	0.999935	-0.000213	0.006565	-0.009296	
38724	    0	14.308825	-1.807616	-1.897276	-0.188067	1.274315	-1.108183	0.142860	-0.018887	-0.019866	0.999964	-0.000940	0.006371	-0.005541	
38725	    0	11.555416	-0.874957	-2.007963	-0.005913	1.165016	-0.384524	0.115417	-0.008972	-0.020752	0.999981	-0.000030	0.005825	-0.001923	
38726	    0	9.760398	0.571727	-2.904038	0.051880	1.084906	0.295450	0.097436	0.005869	-0.029568	0.999984	0.000259	0.005424	0.001477	
38727	    0	8.533461	1.464736	-3.559169	-0.037384	0.977524	1.021584	0.085083	0.015076	-0.036011	0.999974	-0.000187	0.004888	0.005108	
38728	    0	7.081225	1.152854	-4.077520	0.048447	0.805105	1.804000	0.070539	0.012176	-0.041057	0.999950	0.000242	0.004025	0.009020	
38729	    0	5.822992	1.340358	-4.153230	0.336657	0.614185	2.576523	0.057922	0.014221	-0.041687	0.999910	0.001683	0.003071	0.012882	
38730	    0	5.127263	2.312724	-4.509705	0.660547	0.414487	3.328485	0.050783	0.024124	-0.045124	0.999853	0.003303	0.002072	0.016642	
38731	    0	4.899920	2.991702	-4.688366	0.757651	0.191702	4.004947	0.048340	0.031067	-0.046814	0.999791	0.003788	0.000958	0.020023	
38732	    0	5.165207	2.791560	-4.769080	0.817375	-0.051503	4.649022	0.050994	0.029301	-0.047560	0.999721	0.004086	-0.000257	0.023243	
38733	    0	5.842053	2.777458	-4.671951	0.844100	-0.305974	5.205378	0.057739	0.029480	-0.046509	0.999651	0.004220	-0.001530	0.026024	
38734	    0	6.600732	3.014329	-4.394035	0.792040	-0.547484	5.651676	0.065237	0.032167	-0.043636	0.999589	0.003960	-0.002737	0.028255	
38735	    0	7.113960	3.092066	-4.018727	0.744937	-0.769164	6.044956	0.070312	0.033203	-0.039795	0.999529	0.003724	-0.003845	0.030220	
38736	    0	7.738373	2.614618	-3.693126	0.683140	-0.975588	6.346661	0.076678	0.028712	-0.036461	0.999478	0.003415	-0.004877	0.031728	
38737	    0	8.336384	2.242779	-3.390103	0.642707	-1.199567	6.587698	0.082764	0.025269	-0.033325	0.999434	0.003213	-0.005997	0.032932	
38738	    0	9.260250	2.431458	-3.221911	0.528062	-1.402951	6.838860	0.091920	0.027550	-0.031503	0.999387	0.002640	-0.007013	0.034187	
38739	    0	10.250147	2.539166	-2.936483	0.370107	-1.587835	7.073239	0.101746	0.029053	-0.028503	0.999341	0.001850	-0.007937	0.035358	
38740	    0	11.113719	3.824683	-2.859993	0.250493	-1.736470	7.236054	0.109899	0.042274	-0.027591	0.999307	0.001252	-0.008680	0.036172	
38741	    0	12.228807	5.321853	-2.885197	0.089476	-1.844465	7.344284	0.120483	0.057678	-0.027710	0.999283	0.000447	-0.009220	0.036713	
38742	    0	13.176711	6.672161	-3.022220	0.028617	-1.920782	7.360707	0.129476	0.071520	-0.028961	0.999276	0.000143	-0.009602	0.036795	
38743	    0	14.501680	8.247806	-3.328676	0.168840	-1.976480	7.267191	0.142212	0.087708	-0.031799	0.999290	0.000844	-0.009880	0.036327	
38744	    0	15.636441	11.170021	-3.394496	0.237328	-2.017099	7.106300	0.152596	0.117207	-0.032256	0.999317	0.001186	-0.010083	0.035523	
38745	    0	16.308843	14.628370	-1.279531	-0.179138	-1.974141	6.835091	0.158081	0.151733	-0.011353	0.999367	-0.000896	-0.009869	0.034168	
38746	    0	16.724844	16.092577	1.447660	-0.561630	-1.866886	6.467523	0.161787	0.166260	0.015542	0.999429	-0.002808	-0.009333	0.032331	
38747	    0	18.333319	17.601531	4.318501	-0.651463	-1.634475	5.902269	0.177673	0.181458	0.044067	0.999525	-0.003257	-0.008171	0.029507	
38748	    0	18.593838	19.154963	5.450216	-0.239782	-1.321186	5.160943	0.180549	0.196321	0.055473	0.999644	-0.001199	-0.006605	0.025802	
38749	    0	16.871216	21.045107	3.690129	0.593614	-1.036726	4.187343	0.164062	0.213806	0.038391	0.999763	0.002968	-0.005183	0.020935	
38750	    0	12.604907	25.036901	1.612586	1.513937	-0.888678	2.957108	0.122252	0.252061	0.018579	0.999851	0.007569	-0.004443	0.014785	
38751	    0	8.169263	29.836466	1.610686	1.960049	-0.784897	1.605272	0.079224	0.298828	0.019348	0.999911	0.009800	-0.003924	0.008026	
38752	    0	6.546421	32.560107	4.473972	1.924549	-0.610172	0.376899	0.064708	0.325272	0.048069	0.999947	0.009623	-0.003051	0.001884	
38753	    0	9.885544	30.586703	6.773576	1.688599	-0.366979	-0.577553	0.099609	0.304993	0.070496	0.999958	0.008443	-0.001835	-0.002888	
38754	    0	10.143199	28.726881	4.621875	1.824233	-0.206762	-1.578751	0.103643	0.286018	0.048938	0.999927	0.009121	-0.001034	-0.007894	
38755	    0	11.702506	36.060247	-2.919941	2.558308	-0.307295	-3.089350	0.122620	0.359070	-0.024414	0.999797	0.012791	-0.001536	-0.015446	
38756	    0	18.196867	47.846679	-7.205839	1.050090	-0.296047	-4.531889	0.192856	0.474547	-0.069280	0.999728	0.005250	-0.001480	-0.022657	
38757	    0	25.072062	1.324675	-1.118420	-1.948711	0.058179	-4.050024	0.250916	0.008057	-0.011353	0.999747	-0.009743	0.000291	-0.020248	
38758	    0	24.343321	-24.047605	-0.594867	-1.059819	0.131238	-4.548105	0.237878	-0.245955	-0.004812	0.999726	-0.005299	0.000656	-0.022738	
38759	    0	24.750110	3.828570	-8.730502	2.590073	-0.156431	-6.033647	0.248596	0.031921	-0.086670	0.999460	0.012948	-0.000782	-0.030163	
38760	    0	29.750617	28.769262	-1.535349	1.374895	0.162156	-6.704304	0.306914	0.277606	-0.013668	0.999413	0.006873	0.000811	-0.033515	
38761	    0	12.765156	6.214430	10.616608	0.020602	0.049789	-5.967072	0.129456	0.058289	0.106140	0.999555	0.000103	0.000249	-0.029831	
38762	    0	0.922681	6.861071	3.578666	1.490036	-0.252377	-5.564125	0.011080	0.068050	0.036308	0.999584	0.007449	-0.001262	-0.027817	
38763	    0	5.796772	13.998706	0.792628	0.763208	-0.292999	-4.870337	0.061340	0.138489	0.008545	0.999695	0.003816	-0.001465	-0.024349	
38764	    0	3.666561	6.830205	-2.565296	0.209824	-0.286314	-4.185984	0.038121	0.067541	-0.025528	0.999779	0.001049	-0.001431	-0.020928	
38765	    0	10.069740	5.346688	-0.887313	0.234427	-0.165568	-3.753884	0.101685	0.051575	-0.008728	0.999823	0.001172	-0.000828	-0.018768	
38766	    0	11.287960	7.429522	-1.294536	0.232517	-0.092511	-3.326380	0.114100	0.072419	-0.012808	0.999861	0.001163	-0.000463	-0.016631	
38767	    0	12.713136	6.328595	-0.814031	0.083163	-0.090602	-2.955735	0.128052	0.061401	-0.008057	0.999890	0.000416	-0.000453	-0.014778	
38768	    0	13.796589	7.849833	-1.569407	0.091174	-0.127224	-2.693067	0.139016	0.076638	-0.015571	0.999908	0.000456	-0.000636	-0.013465	
38769	    0	13.452883	8.838202	-2.729964	-0.145534	-0.119021	-2.322440	0.135559	0.086792	-0.027283	0.999931	-0.000728	-0.000595	-0.011612	
38770	    0	12.391600	7.273802	-3.002579	-0.363737	-0.127985	-1.902992	0.124619	0.071500	-0.030077	0.999952	-0.001819	-0.000640	-0.009515	
38771	    0	13.021644	5.949676	-3.247556	-0.542456	-0.064660	-1.528947	0.130676	0.058411	-0.032593	0.999967	-0.002712	-0.000323	-0.007645	
38772	    0	15.497910	7.135344	-2.067990	-0.607305	0.015450	-1.264201	0.155424	0.070309	-0.020906	0.999975	-0.003036	0.000077	-0.006321	
38773	    0	18.489351	6.283194	-0.563518	-0.561336	0.119782	-1.132210	0.185242	0.061768	-0.005920	0.999979	-0.002807	0.000599	-0.005661	
38774	    0	20.218789	4.691986	0.555375	-0.722508	0.190736	-1.020057	0.202429	0.045907	0.005194	0.999980	-0.003613	0.000954	-0.005100	
38775	    0	19.497555	3.009802	0.916194	-0.771337	0.203134	-0.981910	0.195129	0.029175	0.008850	0.999980	-0.003857	0.001016	-0.004910	
38776	    0	19.640601	3.546699	0.172232	-0.949867	0.169183	-0.913627	0.196567	0.034576	0.001390	0.999977	-0.004749	0.000846	-0.004568	
38777	    0	18.492280	1.875830	-0.416315	-1.422898	0.110055	-0.846873	0.184998	0.017944	-0.004395	0.999965	-0.007114	0.000550	-0.004234	
38778	    0	18.115763	0.199465	-0.979140	-1.884493	0.069047	-0.788893	0.181160	0.001187	-0.009868	0.999948	-0.009422	0.000345	-0.003944	
38779	    0	17.528011	-1.082014	-1.460111	-2.350676	0.067331	-0.760670	0.175232	-0.011658	-0.014526	0.999923	-0.011753	0.000337	-0.003803	
38780	    0	15.800942	-3.786797	-2.038132	-2.452918	0.101665	-0.799392	0.157845	-0.038746	-0.019990	0.999916	-0.012264	0.000508	-0.003997	
38781	    0	14.847033	-4.198143	-2.668710	-2.259883	0.135997	-0.928520	0.148254	-0.042969	-0.026306	0.999925	-0.011299	0.000680	-0.004642	
38782	    0	13.132799	-5.158047	-3.175798	-2.058075	0.131229	-1.053834	0.131032	-0.052595	-0.031306	0.999932	-0.010290	0.000656	-0.005269	
38783	    0	10.825783	-7.424719	-2.737552	-1.755366	0.140384	-1.204704	0.107788	-0.075134	-0.026794	0.999943	-0.008777	0.000702	-0.006023	
38784	    0	8.944424	-6.344008	-3.216587	-1.386093	0.132372	-1.438928	0.088963	-0.064302	-0.031781	0.999949	-0.006930	0.000662	-0.007195	
38785	    0	8.382475	-7.229499	-2.380545	-1.079577	0.206951	-1.673154	0.083191	-0.073120	-0.023499	0.999949	-0.005398	0.001035	-0.008366	
38786	    0	7.057690	-4.812407	-1.722772	-0.855653	0.273138	-1.955833	0.070078	-0.048884	-0.017116	0.999942	-0.004278	0.001366	-0.009779	
38787	    0	6.786756	-3.435103	-1.644645	-0.704782	0.461589	-2.211050	0.067444	-0.035156	-0.016479	0.999929	-0.003524	0.002308	-0.011055	
38788	    0	8.024236	-3.485382	-2.261772	-0.655957	0.706503	-2.504233	0.079717	-0.035929	-0.022783	0.999909	-0.003280	0.003532	-0.012521	
38789	    0	9.664655	-2.732393	-2.434570	-0.518057	0.801309	-2.951168	0.096130	-0.028809	-0.024658	0.999879	-0.002590	0.004006	-0.014755	
38790	    0	9.991656	-1.476616	-3.572761	-0.391980	0.696027	-3.419670	0.099519	-0.016541	-0.036043	0.999846	-0.001960	0.003480	-0.017097	
38791	    0	8.527012	-4.388788	-4.907236	-0.439288	0.666085	-3.631038	0.084290	-0.045532	-0.049255	0.999826	-0.002196	0.003330	-0.018154	
38792	    0	15.624736	-6.632297	-4.449020	-0.233091	0.536567	-3.612911	0.154895	-0.069181	-0.044827	0.999832	-0.001165	0.002683	-0.018064	
38793	    0	11.088948	-8.676173	-3.532062	-0.312059	0.506809	-3.511996	0.109253	-0.088745	-0.035461	0.999841	-0.001560	0.002534	-0.017559	
38794	    0	14.242496	-8.871910	-1.953290	-0.615151	0.498797	-3.398686	0.140841	-0.091182	-0.019608	0.999847	-0.003076	0.002494	-0.016993	
38795	    0	14.786947	-8.099769	-2.554368	-0.726927	0.450157	-3.357865	0.146423	-0.083557	-0.025574	0.999849	-0.003634	0.002251	-0.016788	
38796	    0	16.831230	-5.737011	-4.401900	-0.819054	0.514818	-3.235971	0.167239	-0.060263	-0.044208	0.999857	-0.004095	0.002574	-0.016179	
38797	    0	19.395916	-4.302008	-5.083689	-0.756867	0.686864	-2.965667	0.193115	-0.046082	-0.051331	0.999877	-0.003784	0.003434	-0.014828	
38798	    0	21.121120	-3.354171	-4.156855	-0.509850	0.853184	-2.571950	0.210576	-0.036360	-0.042377	0.999905	-0.002549	0.004266	-0.012859	
38799	    0	20.831802	-2.337499	-3.049630	-0.516333	0.904108	-2.330080	0.207886	-0.025879	-0.031372	0.999918	-0.002582	0.004520	-0.011650	
38800	    0	18.029389	-2.610570	-1.732054	-0.698868	0.864620	-1.976628	0.179947	-0.027947	-0.018003	0.999935	-0.003494	0.004323	-0.009883	
38801	    0	14.570244	-2.615183	-1.380210	-0.896277	0.825513	-1.467155	0.145447	-0.027283	-0.014282	0.999954	-0.004481	0.004128	-0.007336	
38802	    0	11.896467	-1.623929	-1.309238	-1.134122	0.780496	-0.836763	0.118843	-0.016812	-0.013462	0.999967	-0.005671	0.003902	-0.004184	
38803	    0	9.649061	-1.311357	-1.291009	-1.001555	0.704198	-0.135804	0.096436	-0.013245	-0.013184	0.999981	-0.005008	0.003521	-0.000679	
38804	    0	8.098527	-0.548300	-1.800889	-0.632098	0.572779	0.543024	0.080948	-0.005321	-0.018224	0.999987	-0.003160	0.002864	0.002715	
38805	    0	7.306885	1.426326	-2.252716	-0.345423	0.418857	1.162728	0.072937	0.014648	-0.022705	0.999979	-0.001727	0.002094	0.005814	
38806	    0	6.191457	1.686959	-2.595830	-0.111772	0.261311	1.896124	0.061717	0.017441	-0.026049	0.999953	-0.000559	0.001307	0.009480	
38807	    0	5.490705	1.064770	-2.556822	0.276955	0.076487	2.665790	0.054749	0.011414	-0.025574	0.999909	0.001385	0.000382	0.013329	
38808	    0	5.056247	1.613747	-2.714541	0.737036	-0.133330	3.361296	0.050299	0.017084	-0.027050	0.999851	0.003685	-0.000667	0.016806	
38809	    0	5.127929	2.685669	-2.897767	1.003336	-0.359179	3.979774	0.050781	0.028015	-0.028748	0.999787	0.005016	-0.001796	0.019897	
38810	    0	5.545997	3.015304	-3.121120	1.208228	-0.596674	4.542013	0.054846	0.031590	-0.030859	0.999719	0.006041	-0.002983	0.022708	
38811	    0	6.363509	2.928427	-3.005381	1.298672	-0.803277	5.029113	0.062988	0.031067	-0.029602	0.999654	0.006493	-0.004016	0.025143	
38812	    0	7.286473	3.276454	-2.773601	1.206367	-0.981079	5.412245	0.072074	0.034887	-0.027175	0.999603	0.006031	-0.004905	0.027058	
38813	    0	8.067103	3.066474	-2.576919	1.019626	-1.143050	5.706091	0.079895	0.033081	-0.025146	0.999563	0.005097	-0.005714	0.028526	
38814	    0	8.628177	2.601668	-2.475099	0.850239	-1.345083	5.939275	0.085620	0.028669	-0.024055	0.999527	0.004251	-0.006724	0.029692	
38815	    0	9.034256	2.322302	-2.048884	0.702214	-1.526138	6.157203	0.089722	0.026062	-0.019714	0.999491	0.003510	-0.007629	0.030781	
38816	    0	9.571268	2.102608	-1.720869	0.503632	-1.698040	6.371896	0.095119	0.024105	-0.016341	0.999453	0.002518	-0.008489	0.031854	
38817	    0	10.637082	1.699718	-1.163125	0.303137	-1.852016	6.590798	0.105835	0.020508	-0.010620	0.999413	0.001515	-0.009258	0.032948	
38818	    0	11.477881	2.403517	-1.128830	0.213477	-1.986154	6.781464	0.113980	0.027921	-0.010125	0.999374	0.001067	-0.009929	0.033900	
38819	    0	12.400238	3.327648	-0.556175	0.084705	-2.067824	6.911441	0.122803	0.037537	-0.004272	0.999349	0.000423	-0.010337	0.034550	
38820	    0	13.303402	3.951753	0.209516	0.027281	-2.117627	6.987598	0.131514	0.044130	0.003499	0.999333	0.000136	-0.010586	0.034930	
38821	    0	14.128842	5.799909	0.997215	0.107598	-2.102172	6.970992	0.139038	0.062866	0.011475	0.999337	0.000538	-0.010509	0.034847	
38822	    0	15.329171	8.826641	2.367415	-0.041780	-1.964798	6.885283	0.149891	0.093472	0.025139	0.999359	-0.000209	-0.009822	0.034419	
38823	    0	15.786325	11.385959	4.076094	-0.086802	-1.732982	6.711396	0.153564	0.119080	0.042053	0.999399	-0.000434	-0.008663	0.033550	
38824	    0	16.497732	13.191250	6.456459	0.018505	-1.434582	6.379692	0.160191	0.137068	0.065738	0.999465	0.000093	-0.007172	0.031893	
38825	    0	17.454000	14.784694	7.512435	0.469278	-1.094029	5.885436	0.169678	0.152710	0.076416	0.999549	0.002346	-0.005469	0.029423	
38826	    0	17.598781	17.961855	5.781163	1.087698	-0.808430	5.139956	0.171062	0.183737	0.059502	0.999646	0.005438	-0.004042	0.025697	
38827	    0	15.572020	23.298154	2.270801	1.551377	-0.647790	4.157605	0.150757	0.235962	0.025024	0.999748	0.007756	-0.003239	0.020786	
38828	    0	11.778698	29.014589	0.818725	1.607210	-0.574331	2.963210	0.113443	0.291768	0.010858	0.999853	0.008036	-0.002872	0.014815	
38829	    0	8.640268	32.251445	2.623920	1.319149	-0.462923	1.722753	0.083557	0.323059	0.028564	0.999938	0.006596	-0.002315	0.008614	
38830	    0	9.495490	31.632700	4.434149	1.034171	-0.297930	0.637440	0.093879	0.316392	0.046118	0.999980	0.005171	-0.001490	0.003187	
38831	    0	9.875761	32.637289	3.619877	0.946812	-0.076866	-0.418856	0.099426	0.325989	0.037781	0.999986	0.004734	-0.000384	-0.002094	
38832	    0	9.839388	38.861999	-2.505752	1.453433	-0.106242	-1.819080	0.101936	0.387872	-0.022183	0.999931	0.007267	-0.000531	-0.009095	
38833	    0	16.375920	58.579175	-8.287774	0.418876	-0.131042	-3.534885	0.174133	0.582947	-0.081543	0.999841	0.002094	-0.000655	-0.017673	
38834	    0	24.633954	36.058512	-3.636332	-2.871467	0.338975	-4.434913	0.254177	0.354431	-0.041908	0.999649	-0.014356	0.001695	-0.022172	
38835	    0	25.044374	-20.501562	-5.995488	-3.188520	0.412037	-4.335548	0.245789	-0.211304	-0.057129	0.999636	-0.015941	0.002060	-0.021675	
38836	    0	25.870300	-17.541251	-10.232705	1.427672	0.116556	-5.797866	0.253428	-0.182074	-0.103760	0.999554	0.007137	0.000583	-0.028985	
38837	    0	25.873015	17.486180	-3.909191	2.142785	0.289406	-6.770987	0.264404	0.166382	-0.037659	0.999368	0.010712	0.001447	-0.033848	
38838	    0	17.037095	16.919015	12.009840	-0.218998	0.571149	-6.076040	0.175749	0.164036	0.119420	0.999534	-0.001095	0.002855	-0.030375	
38839	    0	-0.632528	7.089567	3.702887	1.262077	-0.012018	-5.629748	-0.004333	0.070801	0.037476	0.999583	0.006310	-0.000060	-0.028145	
38840	    0	4.049245	13.654003	0.598871	0.715711	-0.025370	-4.932151	0.043841	0.135464	0.006480	0.999689	0.003578	-0.000127	-0.024658	
38841	    0	5.397581	6.762774	-2.205248	0.130473	-0.131808	-4.276602	0.055420	0.066467	-0.021973	0.999770	0.000652	-0.000659	-0.021381	
38842	    0	9.246776	5.242905	-2.581616	0.222411	0.007248	-3.903065	0.093467	0.050640	-0.025763	0.999808	0.001112	0.000036	-0.019514	
38843	    0	9.811528	5.571648	-2.083610	0.290695	0.113875	-3.505125	0.099060	0.054016	-0.020813	0.999845	0.001453	0.000569	-0.017525	
38844	    0	12.438948	6.617369	-0.571953	0.057032	0.117497	-3.109485	0.125395	0.064231	-0.005774	0.999879	0.000285	0.000587	-0.015547	
38845	    0	13.311319	7.158263	-1.261475	0.000191	0.120548	-2.811525	0.134094	0.069702	-0.012695	0.999901	0.000001	0.000603	-0.014057	
38846	    0	13.649885	9.240826	-2.371151	-0.157933	0.141910	-2.468744	0.137609	0.090695	-0.023881	0.999923	-0.000790	0.000710	-0.012343	
38847	    0	12.352583	7.345885	-2.193707	-0.249295	0.108339	-2.076759	0.124268	0.072144	-0.022095	0.999945	-0.001246	0.000542	-0.010384	
38848	    0	12.301957	6.672727	-2.447837	-0.354962	0.118639	-1.707862	0.123569	0.065630	-0.024669	0.999961	-0.001775	0.000593	-0.008539	
38849	    0	13.778613	7.801981	-1.976439	-0.398067	0.146486	-1.380932	0.138306	0.077026	-0.020020	0.999973	-0.001990	0.000732	-0.006905	
38850	    0	17.355140	8.152437	0.082070	-0.371363	0.184442	-1.140601	0.174013	0.080534	0.000510	0.999981	-0.001857	0.000922	-0.005703	
38851	    0	18.660051	5.725518	0.641184	-0.419428	0.202943	-0.998693	0.186890	0.056335	0.006104	0.999985	-0.002097	0.001015	-0.004993	
38852	    0	19.353597	5.377808	1.500320	-0.436022	0.245477	-0.873569	0.193787	0.052964	0.014649	0.999987	-0.002180	0.001227	-0.004368	
38853	    0	19.456785	4.772377	0.908729	-0.684360	0.265695	-0.777439	0.194763	0.046997	0.008667	0.999986	-0.003422	0.001328	-0.003887	
38854	    0	18.795767	3.594624	-0.085693	-1.293576	0.269702	-0.757034	0.188090	0.035227	-0.001340	0.999970	-0.006468	0.001348	-0.003785	
38855	    0	18.222802	0.866325	-0.587211	-1.927983	0.234417	-0.735487	0.182251	0.007935	-0.006165	0.999946	-0.009640	0.001172	-0.003677	
38856	    0	18.010156	-0.071930	-0.747501	-2.385965	0.241477	-0.715465	0.180088	-0.001454	-0.007678	0.999921	-0.011930	0.001207	-0.003577	
38857	    0	17.035785	-2.911032	-1.383103	-2.546577	0.328074	-0.730155	0.170227	-0.029907	-0.013733	0.999910	-0.012733	0.001640	-0.003651	
38858	    0	15.323834	-3.960278	-2.146713	-2.337518	0.401126	-0.877976	0.153019	-0.040524	-0.021304	0.999920	-0.011687	0.002006	-0.004390	
38859	    0	13.798030	-5.456858	-2.629479	-1.983686	0.457201	-1.036857	0.137634	-0.055542	-0.026062	0.999934	-0.009918	0.002286	-0.005184	
38860	    0	11.887511	-7.052373	-2.358518	-1.499391	0.510033	-1.150722	0.118406	-0.071382	-0.023355	0.999951	-0.007497	0.002550	-0.005754	
38861	    0	10.533655	-7.159565	-2.547222	-0.883494	0.567824	-1.294723	0.104797	-0.072388	-0.025452	0.999965	-0.004417	0.002839	-0.006474	
38862	    0	9.888319	-5.300258	-1.906467	-0.405889	0.644692	-1.534290	0.098411	-0.053798	-0.019274	0.999963	-0.002029	0.003223	-0.007671	
38863	    0	8.978750	-6.311867	-1.654640	-0.051881	0.706683	-1.747157	0.089172	-0.063904	-0.016846	0.999955	-0.000259	0.003533	-0.008736	
38864	    0	7.515216	-5.558053	-1.400447	0.411042	0.748840	-2.050251	0.074524	-0.056317	-0.014400	0.999938	0.002055	0.003744	-0.010251	
38865	    0	6.988567	-4.195065	-1.245845	0.652331	0.809692	-2.346103	0.069336	-0.042725	-0.012878	0.999917	0.003262	0.004048	-0.011730	
38866	    0	8.833919	-3.534660	-1.344072	0.681520	0.859291	-2.726653	0.087788	-0.036499	-0.013942	0.999891	0.003407	0.004296	-0.013633	
38867	    0	10.888236	-3.259626	-1.376339	0.508333	0.910993	-3.210602	0.108276	-0.034302	-0.014343	0.999857	0.002542	0.004555	-0.016052	
38868	    0	11.193698	-4.358884	-2.652212	0.524551	0.896314	-3.549587	0.111020	-0.045494	-0.027139	0.999828	0.002623	0.004481	-0.017747	
38869	    0	13.245599	-8.348691	-3.058571	0.930270	0.874381	-3.580690	0.130798	-0.085693	-0.031555	0.999819	0.004651	0.004372	-0.017902	
38870	    0	12.895745	-7.201768	-3.368497	1.327024	0.617065	-3.552465	0.127548	-0.074064	-0.034567	0.999815	0.006635	0.003085	-0.017761	
38871	    0	13.155576	-6.435765	-2.366690	0.519016	0.508143	-3.415090	0.130371	-0.066528	-0.024170	0.999847	0.002595	0.002541	-0.017075	
38872	    0	15.351559	-6.504572	-2.789177	-0.332086	0.424215	-3.392959	0.152323	-0.067683	-0.028105	0.999852	-0.001660	0.002121	-0.016964	
38873	    0	17.197880	-6.507572	-4.310848	-1.118335	0.489069	-3.269361	0.170776	-0.068115	-0.043152	0.999847	-0.005591	0.002445	-0.016346	
38874	    0	21.202282	-5.977094	-5.264181	-1.542361	0.687062	-3.062786	0.210889	-0.063414	-0.052888	0.999846	-0.007711	0.003435	-0.015313	
38875	    0	23.361480	-5.829350	-5.917242	-1.332721	0.741609	-2.800106	0.232544	-0.061951	-0.059631	0.999872	-0.006663	0.003708	-0.014000	
38876	    0	21.288543	-3.681675	-6.352929	-1.380776	0.705361	-2.386174	0.212197	-0.039792	-0.064011	0.999898	-0.006904	0.003527	-0.011930	
38877	    0	17.591956	-1.559014	-4.616328	-1.995723	0.724816	-1.804410	0.175598	-0.017639	-0.046631	0.999903	-0.009978	0.003624	-0.009022	
38878	    0	13.689869	-1.898209	-2.646832	-2.350880	0.628109	-1.227226	0.136694	-0.020134	-0.026666	0.999907	-0.011754	0.003140	-0.006136	
38879	    0	10.579725	-2.656764	-2.029428	-2.245957	0.514997	-0.691240	0.105652	-0.027161	-0.020264	0.999928	-0.011230	0.002575	-0.003456	
38880	    0	9.472151	-1.698796	-2.319226	-1.850919	0.414473	-0.113870	0.094664	-0.017257	-0.023230	0.999954	-0.009254	0.002072	-0.000569	
38881	    0	8.773426	-0.673216	-2.700843	-1.518839	0.324253	0.510412	0.087708	-0.006714	-0.027100	0.999966	-0.007594	0.001621	0.002552	
38882	    0	7.910336	-0.458219	-2.600083	-1.099217	0.196268	1.128018	0.079103	-0.004279	-0.026054	0.999968	-0.005496	0.000981	0.005640	
38883	    0	6.792459	-0.154133	-2.581221	-0.374609	0.023079	1.805140	0.067932	-0.000977	-0.025818	0.999957	-0.001873	0.000115	0.009026	
38884	    0	6.112363	1.051315	-3.059697	0.450719	-0.168996	2.496214	0.061011	0.011344	-0.030520	0.999919	0.002254	-0.000845	0.012481	
38885	    0	6.037593	2.368661	-3.790107	1.062825	-0.373667	3.171689	0.060059	0.024841	-0.037659	0.999858	0.005314	-0.001868	0.015858	
38886	    0	5.873466	2.951148	-4.532214	1.462277	-0.577967	3.807337	0.058285	0.030953	-0.044930	0.999787	0.007311	-0.002890	0.019035	
38887	    0	5.871535	3.288320	-4.979422	1.798421	-0.797921	4.384272	0.058167	0.034607	-0.049255	0.999711	0.008991	-0.003989	0.021919	
38888	    0	6.220431	4.162526	-5.174689	1.870377	-0.975152	4.898270	0.061402	0.043615	-0.051044	0.999644	0.009351	-0.004875	0.024488	
38889	    0	6.661226	4.322642	-5.492738	1.587125	-1.131399	5.305424	0.065735	0.045410	-0.054199	0.999600	0.007935	-0.005656	0.026524	
38890	    0	7.687438	3.398963	-5.509317	1.143622	-1.306533	5.650389	0.076224	0.036462	-0.054390	0.999563	0.005717	-0.006532	0.028248	
38891	    0	8.314764	2.572533	-4.938463	0.808844	-1.516774	5.933561	0.082703	0.028381	-0.048645	0.999522	0.004044	-0.007583	0.029663	
38892	    0	8.675869	2.567403	-3.880653	0.508586	-1.728545	6.154734	0.086243	0.028431	-0.037990	0.999485	0.002542	-0.008641	0.030768	
38893	    0	9.375057	2.426954	-3.100594	0.175509	-1.911328	6.395384	0.093201	0.027283	-0.030090	0.999442	0.000877	-0.009555	0.031971	
38894	    0	10.338026	1.594404	-2.393884	-0.124575	-2.084960	6.618875	0.103020	0.019343	-0.022875	0.999397	-0.000623	-0.010423	0.033088	
38895	    0	11.367399	1.519871	-1.952079	-0.201459	-2.273095	6.811462	0.113281	0.019043	-0.018250	0.999354	-0.001007	-0.011363	0.034050	
38896	    0	12.762618	2.300164	-1.283597	-0.312876	-2.409332	6.931528	0.126870	0.027390	-0.011345	0.999325	-0.001564	-0.012044	0.034650	
38897	    0	14.154143	2.449161	-0.558761	-0.321272	-2.535644	7.001590	0.140625	0.029419	-0.003845	0.999305	-0.001606	-0.012675	0.035000	
38898	    0	15.232027	3.630462	-0.127107	-0.017361	-2.604326	6.993581	0.150927	0.041599	0.000697	0.999304	-0.000087	-0.013019	0.034960	
38899	    0	16.236712	8.235610	1.055005	0.160253	-2.514262	6.916845	0.159241	0.087891	0.012634	0.999322	0.000801	-0.012568	0.034576	
38900	    0	16.554871	12.198429	3.117856	0.049792	-2.245421	6.736645	0.160953	0.127450	0.033034	0.999370	0.000249	-0.011225	0.033676	
38901	    0	16.620332	14.325942	5.824134	-0.085274	-1.860392	6.408355	0.160950	0.148499	0.059692	0.999443	-0.000426	-0.009300	0.032036	
38902	    0	17.889466	14.454804	8.559432	-0.033575	-1.386096	5.957769	0.173885	0.149793	0.086786	0.999532	-0.000168	-0.006929	0.029784	
38903	    0	19.149339	15.136940	8.321230	0.522678	-0.973441	5.347344	0.186951	0.156189	0.084534	0.999627	0.002613	-0.004867	0.026733	
38904	    0	17.050440	20.210921	4.681183	1.363881	-0.781514	4.462849	0.165755	0.205515	0.048860	0.999720	0.006819	-0.003907	0.022312	
38905	    0	12.099737	28.077810	1.019590	1.885340	-0.765848	3.274739	0.116333	0.282593	0.013306	0.999814	0.009426	-0.003829	0.016373	
38906	    0	8.260275	33.040952	2.457396	1.943655	-0.749232	1.981613	0.079225	0.330944	0.028090	0.999896	0.009718	-0.003746	0.009908	
38907	    0	7.528741	33.204244	8.223120	1.854739	-0.546084	0.762953	0.073792	0.331543	0.085510	0.999946	0.009274	-0.002730	0.003815	
38908	    0	8.359476	31.177008	11.290024	1.917297	-0.129130	-0.312429	0.084006	0.310537	0.115935	0.999952	0.009586	-0.000646	-0.001562	
38909	    0	10.359491	28.744604	8.084164	2.131133	0.177006	-1.171904	0.105347	0.285950	0.083801	0.999926	0.010655	0.000885	-0.005859	
38910	    0	9.534642	28.178298	-3.822951	2.653067	-0.003624	-2.290843	0.098570	0.281140	-0.034495	0.999846	0.013265	-0.000018	-0.011454	
38911	    0	15.122244	49.163472	-14.364296	2.624021	-0.383608	-4.229413	0.161865	0.490112	-0.136902	0.999688	0.013119	-0.001918	-0.021145	
38912	    0	20.341603	23.322713	-9.049632	-0.912354	-0.156796	-4.162913	0.208277	0.228510	-0.091384	0.999772	-0.004561	-0.000784	-0.020813	
38913	    0	24.807167	-26.572517	-4.462696	-2.185031	0.148784	-3.624996	0.243164	-0.270630	-0.041870	0.999775	-0.010924	0.000744	-0.018124	
38914	    0	23.009391	-13.336144	-7.473185	0.527247	0.037770	-5.026780	0.226635	-0.138889	-0.075136	0.999681	0.002636	0.000189	-0.025131	
38915	    0	27.651730	22.948719	-7.489807	2.089485	-0.119039	-6.141214	0.283447	0.221619	-0.072388	0.999474	0.010446	-0.000595	-0.030701	
38916	    0	27.710540	27.785767	11.933243	-1.098619	0.484926	-6.102210	0.285707	0.269875	0.117149	0.999516	-0.005492	0.002424	-0.030506	
38917	    0	7.933379	-0.680322	12.946664	-0.430923	0.071725	-5.409141	0.079163	-0.008667	0.129456	0.999632	-0.002154	0.000359	-0.027042	
38918	    0	6.447166	10.796253	3.446522	0.758824	0.023654	-4.996641	0.067143	0.106175	0.034863	0.999681	0.003794	0.000118	-0.024981	
38919	    0	3.415882	11.559096	-3.366318	0.328853	-0.148594	-4.340706	0.036682	0.114868	-0.033447	0.999763	0.001644	-0.000743	-0.021702	
38920	    0	4.512727	4.047939	-2.988431	0.366997	-0.317975	-3.854613	0.045944	0.039654	-0.029738	0.999811	0.001835	-0.001590	-0.019272	
38921	    0	10.134011	7.598466	-1.268527	0.247396	-0.276961	-3.485286	0.102661	0.074219	-0.012451	0.999846	0.001237	-0.001385	-0.017426	
38922	    0	12.288516	7.836867	0.350052	0.094418	-0.231752	-3.082398	0.124069	0.076461	0.003680	0.999880	0.000472	-0.001159	-0.015411	
38923	    0	13.914674	5.899119	-1.343419	-0.018120	-0.191504	-2.752010	0.139954	0.057068	-0.013306	0.999905	-0.000091	-0.000957	-0.013760	
38924	    0	13.531295	8.380279	-3.565392	-0.319107	-0.111010	-2.423347	0.136334	0.082098	-0.035710	0.999925	-0.001595	-0.000555	-0.012116	
38925	    0	12.136017	7.050474	-2.672933	-0.518045	-0.089075	-2.005041	0.122070	0.069214	-0.026855	0.999946	-0.002590	-0.000445	-0.010025	
38926	    0	11.948534	6.423958	-1.940890	-0.482375	0.000954	-1.673910	0.120017	0.063190	-0.019563	0.999962	-0.002412	0.000005	-0.008369	
38927	    0	12.522779	6.764835	-2.726760	-0.543218	0.123025	-1.374067	0.125671	0.066711	-0.027527	0.999972	-0.002716	0.000615	-0.006870	
38928	    0	15.103082	5.844456	-3.939486	-0.626950	0.203706	-1.115425	0.151313	0.057477	-0.039730	0.999978	-0.003135	0.001019	-0.005577	
38929	    0	19.190277	6.725290	-1.488920	-0.721554	0.261690	-0.951391	0.192200	0.066284	-0.015381	0.999981	-0.003608	0.001308	-0.004757	
38930	    0	20.506579	4.906848	0.752386	-0.967796	0.299456	-0.848013	0.205282	0.048233	0.006982	0.999978	-0.004839	0.001497	-0.004240	
38931	    0	19.662874	3.351365	1.528932	-1.224529	0.259593	-0.781257	0.196777	0.032837	0.014832	0.999972	-0.006123	0.001298	-0.003906	
38932	    0	19.570609	3.139292	1.304852	-1.506633	0.225833	-0.765238	0.195839	0.030740	0.012594	0.999963	-0.007533	0.001129	-0.003826	
38933	    0	19.269377	1.253719	1.220757	-1.872857	0.199131	-0.712597	0.192749	0.011963	0.011902	0.999949	-0.009364	0.000996	-0.003563	
38934	    0	18.290568	-0.396298	0.241338	-2.217533	0.197224	-0.654426	0.182894	-0.004536	0.002281	0.999932	-0.011087	0.000986	-0.003272	
38935	    0	16.711116	-3.494769	-0.920177	-2.487251	0.178723	-0.627154	0.166992	-0.035583	-0.008911	0.999917	-0.012436	0.000894	-0.003136	
38936	    0	15.763121	-4.408504	-2.752285	-2.369751	0.218397	-0.725956	0.157439	-0.044980	-0.027165	0.999922	-0.011848	0.001092	-0.003630	
38937	    0	15.205505	-4.769616	-3.858856	-2.114724	0.253301	-0.875874	0.151794	-0.048767	-0.038269	0.999933	-0.010573	0.001266	-0.004379	
38938	    0	12.013449	-5.505235	-3.986873	-1.908912	0.234227	-1.035520	0.119800	-0.056051	-0.039477	0.999940	-0.009544	0.001171	-0.005177	
38939	    0	9.646796	-7.035019	-3.632961	-1.693756	0.205425	-1.191733	0.096008	-0.071228	-0.035828	0.999946	-0.008469	0.001027	-0.005959	
38940	    0	8.031447	-6.351454	-3.360181	-1.278897	0.239185	-1.414702	0.079822	-0.064294	-0.033288	0.999953	-0.006394	0.001196	-0.007073	
38941	    0	7.752093	-4.522298	-2.696734	-1.042765	0.328070	-1.702147	0.077087	-0.046021	-0.026855	0.999949	-0.005214	0.001640	-0.008511	
38942	    0	6.156051	-4.851037	-1.819296	-0.796907	0.476465	-2.007907	0.061026	-0.049197	-0.018144	0.999938	-0.003984	0.002382	-0.010039	
38943	    0	7.112269	-4.801668	-1.494683	-0.486768	0.699062	-2.364412	0.070496	-0.048889	-0.015076	0.999921	-0.002434	0.003495	-0.011822	
38944	    0	8.589965	-4.294983	-1.998005	-0.147253	0.871118	-2.811343	0.085196	-0.044166	-0.020320	0.999891	-0.000736	0.004355	-0.014056	
38945	    0	9.963497	-3.597227	-3.429783	0.085453	0.837939	-3.309029	0.098877	-0.037598	-0.034729	0.999854	0.000427	0.004189	-0.016544	
38946	    0	10.148964	-4.771985	-4.714494	0.042918	0.734181	-3.648396	0.100423	-0.049548	-0.047525	0.999826	0.000215	0.003671	-0.018241	
38947	    0	9.567063	-6.712557	-3.205069	-0.162516	0.746393	-3.838593	0.094238	-0.068970	-0.032349	0.999808	-0.000813	0.003732	-0.019192	
38948	    0	15.707931	-5.550936	-2.972141	-0.176060	0.673720	-3.911276	0.155852	-0.058592	-0.030197	0.999803	-0.000880	0.003368	-0.019555	
38949	    0	12.916869	-6.751375	-3.013205	-0.353072	0.696608	-3.805781	0.127747	-0.070007	-0.030457	0.999811	-0.001765	0.003483	-0.019028	
38950	    0	15.785902	-7.192843	-2.945863	-0.604664	0.766416	-3.558361	0.156431	-0.074810	-0.029837	0.999829	-0.003023	0.003832	-0.017791	
38951	    0	17.156626	-7.543544	-2.905240	-0.711099	0.824211	-3.460120	0.170105	-0.078491	-0.029480	0.999835	-0.003555	0.004121	-0.017300	
38952	    0	20.082183	-5.890787	-3.750245	-0.648341	1.020102	-3.287102	0.199622	-0.062319	-0.038324	0.999846	-0.003242	0.005100	-0.016435	
38953	    0	23.412420	-4.185544	-4.600872	-0.455305	1.246701	-3.058003	0.233154	-0.045532	-0.047363	0.999861	-0.002276	0.006233	-0.015289	
38954	    0	24.265141	-3.059326	-5.018539	-0.230798	1.310399	-2.727613	0.241868	-0.033955	-0.051734	0.999885	-0.001154	0.006552	-0.013638	
38955	    0	22.331330	-2.063839	-4.123184	-0.291261	1.258889	-2.401045	0.222778	-0.023376	-0.042603	0.999907	-0.001456	0.006294	-0.012005	
38956	    0	17.898885	-0.863545	-3.421401	-0.665681	1.216727	-1.962137	0.178679	-0.010506	-0.035269	0.999928	-0.003328	0.006083	-0.009810	
38957	    0	14.220835	-0.260087	-2.698947	-1.261165	1.130127	-1.421385	0.142029	-0.003784	-0.027771	0.999938	-0.006306	0.005651	-0.007107	
38958	    0	10.984144	0.400964	-2.631489	-1.665528	1.066228	-0.761237	0.109713	0.003369	-0.026930	0.999944	-0.008327	0.005331	-0.003806	
38959	    0	8.411456	-0.140316	-2.738914	-1.636529	0.939383	-0.044251	0.083984	-0.001648	-0.027771	0.999955	-0.008183	0.004697	-0.000221	
38960	    0	7.037526	0.349275	-2.702289	-1.283659	0.731857	0.617797	0.070265	0.003535	-0.027303	0.999968	-0.006418	0.003659	0.003089	
38961	    0	5.981230	1.690975	-2.931413	-0.932132	0.493627	1.268020	0.059631	0.017151	-0.029541	0.999966	-0.004661	0.002468	0.006340	
38962	    0	4.706465	1.912474	-2.778773	-0.572596	0.273519	1.967465	0.046836	0.019506	-0.027907	0.999946	-0.002863	0.001368	0.009837	
38963	    0	4.054179	1.429023	-2.618208	0.006294	0.012207	2.674945	0.040344	0.014832	-0.026184	0.999910	0.000031	0.000061	0.013374	
38964	    0	3.919559	1.684851	-2.701210	0.617629	-0.230228	3.312650	0.038939	0.017578	-0.026914	0.999857	0.003088	-0.001151	0.016562	
38965	    0	3.602771	1.986146	-3.134198	1.199426	-0.510252	3.927893	0.035706	0.020752	-0.031128	0.999785	0.005997	-0.002551	0.019638	
38966	    0	3.664211	2.642117	-3.383156	1.546627	-0.766065	4.483845	0.036162	0.027495	-0.033483	0.999711	0.007732	-0.003830	0.022417	
38967	    0	3.797723	2.628864	-3.521058	1.745050	-0.977251	4.958934	0.037476	0.027527	-0.034790	0.999642	0.008724	-0.004886	0.024792	
38968	    0	4.215409	1.981249	-3.559243	1.865456	-1.124348	5.358871	0.041796	0.021265	-0.035163	0.999581	0.009326	-0.005621	0.026791	
38969	    0	4.850916	1.465106	-3.524230	1.895629	-1.251416	5.687076	0.048279	0.016357	-0.034790	0.999531	0.009477	-0.006256	0.028431	
38970	    0	5.316415	1.768548	-3.655959	1.746096	-1.350444	6.025776	0.052837	0.019597	-0.036036	0.999485	0.008729	-0.006751	0.030124	
38971	    0	5.962328	1.588278	-3.479441	1.439167	-1.444318	6.309139	0.059326	0.018005	-0.034241	0.999450	0.007195	-0.007220	0.031540	
38972	    0	6.984602	1.254385	-3.208581	1.116400	-1.552314	6.592710	0.069624	0.015018	-0.031466	0.999411	0.005581	-0.007760	0.032957	
38973	    0	8.320932	1.340498	-2.575789	0.775310	-1.623686	6.877822	0.082886	0.016357	-0.025024	0.999368	0.003876	-0.008117	0.034382	
38974	    0	9.711682	2.363227	-2.221005	0.543145	-1.697352	7.149406	0.096372	0.027145	-0.021319	0.999321	0.002715	-0.008485	0.035739	
38975	    0	11.198778	3.391592	-1.646830	0.275678	-1.755179	7.351148	0.110779	0.038025	-0.015442	0.999285	0.001378	-0.008774	0.036747	
38976	    0	12.744276	4.239480	-1.351243	0.179335	-1.804604	7.456702	0.125859	0.047119	-0.012331	0.999264	0.000896	-0.009021	0.037274	
38977	    0	14.145620	6.498316	-1.469219	0.141369	-1.826160	7.432082	0.139038	0.070190	-0.013367	0.999268	0.000707	-0.009129	0.037151	
38978	    0	15.865472	10.014833	-0.790842	-0.283308	-1.738957	7.304384	0.154920	0.105843	-0.006698	0.999294	-0.001416	-0.008693	0.036513	
38979	    0	16.749492	12.551642	-0.007874	-0.660853	-1.654993	7.089286	0.162903	0.131348	0.000854	0.999331	-0.003304	-0.008273	0.035439	
38980	    0	18.668207	14.828999	2.240866	-0.879275	-1.509781	6.749185	0.181363	0.154572	0.023121	0.999393	-0.004395	-0.007547	0.033739	
38981	    0	20.355075	16.777890	4.484863	-0.515070	-1.310759	6.181608	0.197937	0.174072	0.045715	0.999497	-0.002575	-0.006553	0.030903	
38982	    0	20.639399	19.102665	4.986754	0.347371	-1.069201	5.319678	0.200947	0.196332	0.051290	0.999630	0.001737	-0.005345	0.026595	
38983	    0	18.300180	23.668940	2.771731	1.223282	-0.878215	4.146149	0.177917	0.240234	0.029968	0.999756	0.006116	-0.004391	0.020729	
38984	    0	12.708141	30.634712	1.419695	1.731000	-0.776327	2.758727	0.122778	0.307920	0.017340	0.999860	0.008655	-0.003881	0.013793	
38985	    0	9.498836	34.580018	2.595575	1.754800	-0.652900	1.367981	0.092529	0.346191	0.029297	0.999932	0.008774	-0.003264	0.006840	
38986	    0	9.082616	34.892192	5.440552	1.590747	-0.475317	0.044632	0.090614	0.348494	0.057394	0.999965	0.007954	-0.002377	0.000223	
38987	    0	11.339275	32.932371	4.405017	1.639584	-0.227932	-1.115436	0.115173	0.328308	0.046875	0.999949	0.008198	-0.001140	-0.005577	
38988	    0	13.406599	46.639346	-1.430238	2.470746	-0.198377	-3.028491	0.141119	0.464420	-0.008419	0.999808	0.012353	-0.000992	-0.015141	
38989	    0	20.818742	50.697260	-4.516416	0.576830	-0.008965	-4.433810	0.219360	0.502319	-0.043701	0.999749	0.002884	-0.000045	-0.022167	
38990	    0	24.992516	-3.958232	-2.205005	-2.280448	0.313788	-4.131130	0.248999	-0.044983	-0.021949	0.999720	-0.011401	0.001569	-0.020654	
38991	    0	24.054468	-27.299224	-0.175398	-1.204040	0.390855	-4.765803	0.233948	-0.278625	-0.000549	0.999696	-0.006020	0.001954	-0.023827	
38992	    0	23.561946	-0.470937	-7.855413	2.562791	0.126480	-6.036124	0.235305	-0.010806	-0.078815	0.999462	0.012812	0.000632	-0.030175	
38993	    0	26.841202	27.449877	-3.764504	1.777256	0.325271	-6.833545	0.277527	0.265442	-0.035706	0.999375	0.008884	0.001626	-0.034161	
38994	    0	9.487906	10.115629	9.620768	-0.048645	0.233685	-5.930245	0.097935	0.098306	0.096070	0.999559	-0.000243	0.001168	-0.029647	
38995	    0	0.038163	11.056474	2.329215	1.255960	-0.099767	-5.409936	0.003357	0.110352	0.023987	0.999614	0.006279	-0.000499	-0.027046	
38996	    0	6.822572	14.192058	0.839724	0.247786	-0.151457	-4.586623	0.071449	0.140296	0.008625	0.999736	0.001239	-0.000757	-0.022931	
38997	    0	6.411501	4.439105	-1.009259	0.009919	-0.249307	-4.020200	0.065002	0.043091	-0.010010	0.999797	0.000050	-0.001246	-0.020100	
38998	    0	10.533917	4.698847	-1.482227	0.398088	-0.104338	-3.782691	0.106211	0.045014	-0.014676	0.999819	0.001990	-0.000522	-0.018912	
38999	    0	11.817966	6.503881	-2.486166	0.344103	0.047495	-3.418137	0.119263	0.063049	-0.024780	0.999852	0.001720	0.000237	-0.017090	
39000	    0	12.898536	7.003328	-1.822076	0.063708	0.050165	-3.021546	0.130019	0.068080	-0.018231	0.999886	0.000319	0.000251	-0.015107	
39001	    0	12.695724	7.249002	-1.955422	-0.012207	0.052835	-2.741327	0.127930	0.070740	-0.019592	0.999906	-0.000061	0.000264	-0.013706	
39002	    0	12.677023	8.713679	-1.622853	-0.188832	0.049211	-2.342850	0.127775	0.085629	-0.016341	0.999930	-0.000944	0.000246	-0.011714	
39003	    0	12.250586	7.624634	-2.068062	-0.389678	0.075532	-1.940950	0.123230	0.075012	-0.020874	0.999950	-0.001948	0.000378	-0.009705	
39004	    0	12.727794	6.804565	-3.329984	-0.598724	0.128938	-1.552791	0.127779	0.066955	-0.033584	0.999965	-0.002994	0.000645	-0.007764	
39005	    0	15.367324	6.228601	-2.275205	-0.702674	0.133706	-1.282513	0.154053	0.061218	-0.023071	0.999972	-0.003513	0.000669	-0.006413	
39006	    0	19.282873	6.210644	0.555275	-0.628858	0.171090	-1.183328	0.193196	0.060981	0.005195	0.999977	-0.003144	0.000855	-0.005917	
39007	    0	21.155444	4.049753	1.537064	-0.694089	0.205995	-1.116952	0.211792	0.039368	0.015015	0.999977	-0.003470	0.001030	-0.005585	
39008	    0	21.019163	3.248359	1.750848	-0.772101	0.191690	-1.085099	0.210381	0.031409	0.017184	0.999977	-0.003860	0.000958	-0.005425	
39009	    0	20.936612	3.093673	1.223155	-1.006898	0.169374	-1.040659	0.209534	0.029907	0.011902	0.999973	-0.005034	0.000847	-0.005203	
39010	    0	19.834550	1.122451	-0.295676	-1.449604	0.140764	-0.993360	0.198396	0.010217	-0.003173	0.999961	-0.007248	0.000704	-0.004967	
39011	    0	18.764822	-0.350869	-1.202758	-1.911772	0.103762	-0.951404	0.187622	-0.004517	-0.012085	0.999943	-0.009559	0.000519	-0.004757	
39012	    0	17.347589	-1.474472	-1.950814	-2.376812	0.050355	-0.956943	0.173397	-0.015805	-0.019368	0.999917	-0.011884	0.000252	-0.004785	
39013	    0	15.241755	-3.791512	-1.668405	-2.544291	0.054933	-0.992615	0.152222	-0.038879	-0.016235	0.999907	-0.012721	0.000275	-0.004963	
39014	    0	14.090759	-3.946130	-2.060609	-2.355260	0.099566	-1.082260	0.140680	-0.040462	-0.020204	0.999915	-0.011776	0.000498	-0.005411	
39015	    0	12.454605	-5.260252	-2.351596	-2.090505	0.180249	-1.196318	0.124207	-0.053589	-0.023071	0.999927	-0.010452	0.000901	-0.005981	
39016	    0	10.403069	-7.315270	-2.263269	-1.680787	0.229077	-1.278901	0.103534	-0.074003	-0.022132	0.999943	-0.008404	0.001145	-0.006394	
39017	    0	8.851602	-5.488072	-3.325555	-1.270886	0.264744	-1.437400	0.088074	-0.055725	-0.033020	0.999952	-0.006354	0.001324	-0.007187	
39018	    0	8.358531	-6.748754	-2.759999	-0.875677	0.366026	-1.650835	0.082973	-0.068295	-0.027454	0.999954	-0.004378	0.001830	-0.008254	
39019	    0	6.628646	-5.130273	-2.544528	-0.505075	0.416000	-1.926455	0.065735	-0.052002	-0.025452	0.999948	-0.002525	0.002080	-0.009632	
39020	    0	6.413295	-4.341296	-2.492069	-0.248342	0.576985	-2.149436	0.063589	-0.044129	-0.025050	0.999937	-0.001242	0.002885	-0.010747	
39021	    0	7.396838	-3.081022	-2.261035	-0.096705	0.795769	-2.490305	0.073486	-0.031738	-0.022888	0.999914	-0.000484	0.003979	-0.012451	
39022	    0	9.387868	-1.494373	-2.949599	-0.039293	0.903356	-2.943918	0.093511	-0.016328	-0.029916	0.999881	-0.000196	0.004517	-0.014719	
39023	    0	10.130595	-0.003508	-4.832752	-0.058559	0.869796	-3.402122	0.101074	-0.001770	-0.048767	0.999846	-0.000293	0.004349	-0.017010	
39024	    0	9.282665	-4.271113	-5.667339	-0.220502	0.897077	-3.584113	0.091785	-0.044425	-0.057038	0.999828	-0.001102	0.004485	-0.017920	
39025	    0	15.911474	-7.303941	-5.588443	0.052646	0.622784	-3.595170	0.157593	-0.075867	-0.056396	0.999833	0.000263	0.003114	-0.017975	
39026	    0	10.955325	-8.972011	-4.623977	-0.261320	0.534467	-3.488913	0.107841	-0.091672	-0.046411	0.999843	-0.001307	0.002672	-0.017444	
39027	    0	14.793811	-9.591792	-2.622610	-0.802465	0.476863	-3.473088	0.146179	-0.098572	-0.026184	0.999838	-0.004012	0.002384	-0.017365	
39028	    0	15.170607	-9.053212	-2.760551	-1.133599	0.431084	-3.416439	0.150069	-0.093261	-0.027407	0.999835	-0.005668	0.002155	-0.017081	
39029	    0	17.919590	-6.698512	-3.918579	-1.299925	0.502040	-3.239609	0.177979	-0.070129	-0.039185	0.999844	-0.006499	0.002510	-0.016197	
39030	    0	21.345510	-3.687385	-5.150355	-0.985952	0.648718	-3.043501	0.212690	-0.040370	-0.052001	0.999866	-0.004930	0.003243	-0.015217	
39031	    0	22.525053	-1.240136	-4.882393	-0.572797	0.800352	-2.739812	0.224854	-0.015625	-0.049683	0.999893	-0.002864	0.004002	-0.013699	
39032	    0	21.534973	-0.070544	-3.835406	-0.322160	0.856041	-2.335610	0.215155	-0.003282	-0.039271	0.999921	-0.001611	0.004280	-0.011678	
39033	    0	20.039331	-0.591867	-1.530581	-0.368507	0.819604	-1.983682	0.200256	-0.007935	-0.016113	0.999940	-0.001842	0.004098	-0.009918	
39034	    0	16.016983	-1.098765	-0.972052	-0.695621	0.747883	-1.661899	0.160033	-0.012353	-0.010278	0.999952	-0.003478	0.003739	-0.008309	
39035	    0	12.576356	-0.846423	-1.174274	-1.080907	0.718698	-1.093305	0.125671	-0.009216	-0.012146	0.999964	-0.005404	0.003593	-0.005466	
39036	    0	9.293758	-1.081181	-1.904106	-1.090058	0.679021	-0.273516	0.092857	-0.011044	-0.019297	0.999978	-0.005450	0.003395	-0.001368	
39037	    0	7.442747	-0.953239	-1.844536	-0.625613	0.537302	0.513460	0.074402	-0.009399	-0.018616	0.999988	-0.003128	0.002687	0.002567	
39038	    0	6.602707	1.155443	-2.184633	-0.123788	0.358012	1.230630	0.065915	0.011947	-0.021972	0.999979	-0.000619	0.001790	0.006153	
39039	    0	5.554499	2.873879	-2.431985	0.108530	0.177005	1.969179	0.055237	0.029297	-0.024353	0.999950	0.000543	0.000885	0.009846	
39040	    0	4.768032	2.406649	-2.171520	0.318537	-0.012398	2.713669	0.047349	0.024745	-0.021673	0.999907	0.001593	-0.000062	0.013568	
39041	    0	4.207114	1.605570	-2.073252	0.721777	-0.204287	3.415091	0.041809	0.016846	-0.020630	0.999846	0.003609	-0.001021	0.017075	
39042	    0	4.233647	1.661386	-2.079289	1.155368	-0.422510	4.073832	0.042028	0.017591	-0.020604	0.999773	0.005776	-0.002112	0.020368	
39043	    0	4.740645	2.211796	-2.191682	1.414061	-0.628726	4.692555	0.046936	0.023376	-0.021606	0.999695	0.007070	-0.003143	0.023460	
39044	    0	5.472793	2.392012	-2.224419	1.529312	-0.798134	5.195694	0.054167	0.025500	-0.021836	0.999625	0.007646	-0.003990	0.025975	
39045	    0	6.171425	2.216169	-2.146896	1.552044	-0.949044	5.613760	0.061157	0.024048	-0.020996	0.999564	0.007759	-0.004745	0.028065	
39046	    0	6.687487	1.711310	-2.074344	1.495412	-1.084884	5.942350	0.066435	0.019244	-0.020244	0.999516	0.007476	-0.005424	0.029707	
39047	    0	7.105790	1.483134	-2.234640	1.504786	-1.223783	6.256459	0.070679	0.017212	-0.021790	0.999463	0.007523	-0.006118	0.031277	
39048	    0	7.795724	1.629782	-2.193164	1.340744	-1.347802	6.537937	0.077511	0.018981	-0.021287	0.999420	0.006702	-0.006738	0.032683	
39049	    0	8.523820	2.182128	-2.352241	1.053267	-1.487279	6.835074	0.084595	0.024841	-0.022766	0.999374	0.005265	-0.007435	0.034168	
39050	    0	9.872033	2.266866	-1.827594	0.532459	-1.560748	7.107785	0.097969	0.026207	-0.017443	0.999334	0.002662	-0.007802	0.035531	
39051	    0	10.973017	3.052033	-1.622862	0.257172	-1.700805	7.348088	0.108643	0.034546	-0.015259	0.999288	0.001286	-0.008502	0.036732	
39052	    0	12.108638	4.772782	-0.942158	-0.038920	-1.776370	7.484374	0.119266	0.052213	-0.008367	0.999260	-0.000195	-0.008880	0.037413	
39053	    0	12.914828	6.440855	-0.624570	-0.155679	-1.837429	7.544315	0.126648	0.069214	-0.005127	0.999246	-0.000778	-0.009185	0.037712	
39054	    0	13.841036	8.741365	-0.945775	-0.113706	-1.852876	7.480184	0.135094	0.092504	-0.008247	0.999257	-0.000568	-0.009262	0.037392	
39055	    0	15.555395	11.857543	-0.516384	-0.401974	-1.810121	7.310693	0.151123	0.124146	-0.004028	0.999289	-0.002009	-0.009048	0.036545	
39056	    0	16.458417	13.852405	0.449755	-0.678022	-1.772130	7.055135	0.159517	0.144229	0.005444	0.999332	-0.003389	-0.008859	0.035268	
39057	    0	17.952717	16.105049	2.411124	-0.769768	-1.692536	6.653392	0.173828	0.166992	0.024963	0.999403	-0.003848	-0.008461	0.033260	
