// Start Time: Unknown
// Update Rate: 100.0Hz
// Filter Profile: human (34.3)
// Firmware Version: 2.1.4
PacketCounter	SampleTimeFine	Acc_X	Acc_Y	Acc_Z	Gyr_X	Gyr_Y	Gyr_Z	VelInc_X	VelInc_Y	VelInc_Z	OriInc_q0	OriInc_q1	OriInc_q2	OriInc_q3	
43609	    0	13.277379	-0.125885	-0.731146	-0.261501	0.115205	-1.766991	0.132751	-0.002441	-0.007385	0.999960	-0.001307	0.000576	-0.008835	
43610	    0	12.962137	0.429140	0.847465	-0.338750	0.020600	-1.729988	0.129653	0.003184	0.008455	0.999961	-0.001694	0.000103	-0.008650	
43611	    0	12.558734	1.836655	0.182034	-0.701914	-0.115778	-1.653312	0.125732	0.017334	0.001831	0.999959	-0.003510	-0.000579	-0.008266	
43612	    0	12.116404	1.791327	-1.035464	-1.049248	-0.165942	-1.562714	0.121307	0.016912	-0.010345	0.999955	-0.005246	-0.000830	-0.007813	
43613	    0	11.805307	0.470640	-2.054034	-1.380180	-0.205806	-1.425957	0.118103	0.003723	-0.020447	0.999949	-0.006901	-0.001029	-0.007130	
43614	    0	11.797230	-0.675763	-1.919722	-1.470398	-0.176433	-1.261159	0.117943	-0.007642	-0.019039	0.999952	-0.007352	-0.000882	-0.006306	
43615	    0	11.564090	-1.825125	-1.104534	-1.519798	-0.066949	-1.120775	0.115540	-0.018982	-0.010864	0.999955	-0.007599	-0.000335	-0.005604	
43616	    0	10.960989	-2.880773	-0.563625	-1.653125	0.033188	-0.995079	0.109464	-0.029398	-0.005413	0.999953	-0.008265	0.000166	-0.004975	
43617	    0	10.344078	-3.583200	-0.862597	-1.786834	0.114634	-0.908676	0.103271	-0.036377	-0.008362	0.999949	-0.008934	0.000573	-0.004543	
43618	    0	9.621962	-4.113355	-0.984044	-1.770048	0.169375	-0.851073	0.096035	-0.041628	-0.009555	0.999951	-0.008850	0.000847	-0.004255	
43619	    0	9.040679	-4.627393	-1.585445	-1.573965	0.168803	-0.788127	0.090210	-0.046753	-0.015564	0.999961	-0.007870	0.000844	-0.003941	
43620	    0	8.769325	-4.596065	-2.324068	-1.352324	0.147058	-0.738724	0.087505	-0.046440	-0.022992	0.999969	-0.006762	0.000735	-0.003694	
43621	    0	8.606054	-4.533930	-2.440079	-1.004798	0.138284	-0.733190	0.085876	-0.045776	-0.024231	0.999980	-0.005024	0.000691	-0.003666	
43622	    0	8.661154	-4.457284	-2.372228	-0.663188	0.183678	-0.735858	0.086425	-0.044970	-0.023653	0.999987	-0.003316	0.000918	-0.003679	
43623	    0	8.860917	-4.016962	-1.895445	-0.365258	0.228883	-0.730135	0.088440	-0.040527	-0.018982	0.999990	-0.001826	0.001144	-0.003651	
43624	    0	9.101712	-3.533011	-1.429325	-0.149918	0.271416	-0.707819	0.090872	-0.035663	-0.014390	0.999992	-0.000750	0.001357	-0.003539	
43625	    0	9.136382	-2.971864	-0.801671	-0.018120	0.360871	-0.679018	0.091248	-0.030029	-0.008179	0.999992	-0.000091	0.001804	-0.003395	
43626	    0	8.914270	-2.780455	0.093164	-0.007057	0.425912	-0.624849	0.089057	-0.028083	0.000743	0.999992	-0.000035	0.002130	-0.003124	
43627	    0	8.617993	-2.845464	0.782740	-0.088310	0.489045	-0.546266	0.086121	-0.028687	0.007629	0.999992	-0.000442	0.002445	-0.002731	
43628	    0	8.513605	-2.733149	1.268771	-0.128746	0.539018	-0.417519	0.085113	-0.027501	0.012476	0.999993	-0.000644	0.002695	-0.002088	
43629	    0	8.531047	-2.668648	1.926852	-0.150872	0.576020	-0.286866	0.085327	-0.026794	0.019043	0.999994	-0.000754	0.002880	-0.001434	
43630	    0	8.675177	-2.814010	2.308500	-0.291443	0.620653	-0.138474	0.086803	-0.028167	0.022857	0.999993	-0.001457	0.003103	-0.000692	
43631	    0	8.835816	-2.874402	2.325192	-0.480463	0.702669	0.004578	0.088440	-0.028687	0.023010	0.999990	-0.002402	0.003513	0.000023	
43632	    0	8.922234	-3.210294	2.116598	-0.667384	0.788502	0.153542	0.089330	-0.031964	0.020921	0.999986	-0.003337	0.003942	0.000768	
43633	    0	9.025907	-3.798143	1.705202	-0.724034	0.895124	0.308992	0.090393	-0.037781	0.016785	0.999982	-0.003620	0.004476	0.001545	
43634	    0	9.126145	-4.540390	1.704311	-0.675206	1.020820	0.448421	0.091449	-0.045142	0.016729	0.999978	-0.003376	0.005104	0.002242	
43635	    0	9.174853	-5.158324	1.481879	-0.576024	1.091203	0.591283	0.091980	-0.051270	0.014465	0.999976	-0.002880	0.005456	0.002956	
43636	    0	9.151801	-5.718258	0.996469	-0.486378	1.120958	0.758178	0.091788	-0.056811	0.009589	0.999973	-0.002432	0.005605	0.003791	
43637	    0	9.276780	-5.939892	0.680194	-0.279811	1.155101	0.924691	0.093079	-0.058960	0.006348	0.999971	-0.001399	0.005775	0.004623	
43638	    0	9.637747	-5.711952	0.874564	-0.002480	1.202597	1.109517	0.096743	-0.056583	0.008165	0.999966	-0.000012	0.006013	0.005548	
43639	    0	9.871061	-4.828861	1.654892	0.134470	1.308459	1.274890	0.099121	-0.047668	0.015869	0.999958	0.000672	0.006542	0.006374	
43640	    0	9.773112	-3.604350	2.028652	0.170329	1.372551	1.452089	0.098125	-0.035349	0.019584	0.999949	0.000852	0.006863	0.007260	
43641	    0	9.403427	-2.350147	1.250804	0.231938	1.359774	1.590758	0.094299	-0.022766	0.011841	0.999944	0.001160	0.006799	0.007954	
43642	    0	9.063156	-1.292214	-0.415991	0.260930	1.203178	1.715501	0.090711	-0.012138	-0.004722	0.999944	0.001305	0.006016	0.008577	
43643	    0	9.502812	-0.669917	-2.687944	0.248150	0.833144	1.825745	0.094971	-0.005798	-0.027283	0.999949	0.001241	0.004166	0.009129	
43644	    0	11.759152	-0.402210	-4.922717	0.199321	0.449760	1.864271	0.117511	-0.002877	-0.049495	0.999953	0.000997	0.002249	0.009321	
43645	    0	14.843548	-0.404544	-6.118680	0.110819	0.286870	1.869230	0.148376	-0.002625	-0.061401	0.999954	0.000554	0.001434	0.009346	
43646	    0	17.045993	-0.421480	-5.677825	0.144198	0.407797	1.875334	0.170373	-0.002576	-0.057128	0.999953	0.000721	0.002039	0.009377	
43647	    0	17.741387	-0.305022	-4.016171	0.424202	0.614368	1.897463	0.177307	-0.001282	-0.040710	0.999948	0.002121	0.003072	0.009487	
43648	    0	17.483721	0.115254	-2.256165	0.709739	0.716033	1.944772	0.174732	0.002934	-0.023179	0.999940	0.003549	0.003580	0.009724	
43649	    0	16.727233	1.475210	-1.837067	0.807397	0.662245	1.976817	0.167053	0.016479	-0.018860	0.999937	0.004037	0.003311	0.009884	
43650	    0	15.272854	2.351624	-1.752429	0.641644	0.576411	1.926458	0.152441	0.025043	-0.017885	0.999944	0.003208	0.002882	0.009632	
43651	    0	13.557903	3.040199	-1.523332	0.406081	0.492104	1.837950	0.135254	0.031677	-0.015503	0.999952	0.002030	0.002460	0.009190	
43652	    0	12.205868	3.126029	-1.078537	0.331692	0.360494	1.725220	0.121763	0.032330	-0.010952	0.999959	0.001658	0.001802	0.008626	
43653	    0	11.454520	2.684250	-0.794601	0.434118	0.190928	1.593036	0.114319	0.027771	-0.007996	0.999965	0.002171	0.000955	0.007965	
43654	    0	11.364224	1.866119	-0.994582	0.542646	-0.018883	1.453223	0.113503	0.019513	-0.009883	0.999969	0.002713	-0.000094	0.007266	
43655	    0	11.855071	1.340959	-1.137836	0.676733	-0.169946	1.305401	0.118469	0.014221	-0.011230	0.999972	0.003384	-0.000850	0.006527	
43656	    0	12.109641	1.375461	-1.242701	0.767714	-0.265124	1.175127	0.121029	0.014513	-0.012212	0.999974	0.003839	-0.001326	0.005876	
43657	    0	11.727091	1.810050	-1.282511	0.874336	-0.291255	1.097116	0.117188	0.018799	-0.012573	0.999974	0.004372	-0.001456	0.005486	
43658	    0	10.908224	2.298480	-1.631250	0.937470	-0.311091	1.045236	0.108985	0.023630	-0.016033	0.999973	0.004687	-0.001555	0.005226	
43659	    0	9.972478	2.843553	-2.093397	0.930222	-0.341037	1.045236	0.099609	0.029053	-0.020630	0.999973	0.004651	-0.001705	0.005226	
43660	    0	9.169470	3.331791	-2.702185	0.859649	-0.396732	1.005181	0.091578	0.033894	-0.026695	0.999976	0.004298	-0.001984	0.005026	
43661	    0	8.769635	3.651171	-2.897578	0.810438	-0.458530	0.959022	0.087585	0.037048	-0.028625	0.999977	0.004052	-0.002293	0.004795	
43662	    0	8.552129	3.711426	-3.128491	0.804526	-0.516895	0.914962	0.085430	0.037630	-0.030913	0.999978	0.004023	-0.002584	0.004575	
43663	    0	8.361280	3.818879	-3.618158	0.821883	-0.614171	0.861365	0.083557	0.038696	-0.035767	0.999977	0.004109	-0.003071	0.004307	
43664	    0	7.990231	3.875286	-3.819742	0.899703	-0.696188	0.761420	0.079885	0.039227	-0.037744	0.999976	0.004498	-0.003481	0.003807	
43665	    0	7.340317	3.694076	-3.774611	0.934608	-0.761992	0.647741	0.073425	0.037354	-0.037292	0.999976	0.004673	-0.003810	0.003239	
43666	    0	6.527704	3.578536	-3.665568	0.894362	-0.781065	0.486949	0.065331	0.036107	-0.036240	0.999979	0.004472	-0.003905	0.002435	
43667	    0	5.943066	3.705325	-3.361043	0.924689	-0.790983	0.286104	0.059509	0.037292	-0.033203	0.999980	0.004623	-0.003955	0.001431	
43668	    0	5.721890	3.918060	-3.469519	0.983436	-0.815016	0.098992	0.057340	0.039378	-0.034268	0.999979	0.004917	-0.004075	0.000495	
43669	    0	5.780813	3.647246	-3.680381	0.909621	-0.899512	-0.060273	0.057983	0.036621	-0.036377	0.999979	0.004548	-0.004498	-0.000301	
43670	    0	5.960008	2.880213	-3.766854	0.733190	-1.073845	-0.213625	0.059832	0.028875	-0.037242	0.999978	0.003666	-0.005369	-0.001068	
43671	    0	6.090372	1.954240	-3.498588	0.616651	-1.243602	-0.386814	0.061157	0.019531	-0.034546	0.999973	0.003083	-0.006218	-0.001934	
43672	    0	6.232708	1.684449	-2.648502	0.514989	-1.316655	-0.529485	0.062544	0.016747	-0.026031	0.999971	0.002575	-0.006583	-0.002647	
43673	    0	6.530136	2.014761	-0.964933	0.507551	-1.355758	-0.650794	0.065430	0.019958	-0.009155	0.999968	0.002538	-0.006779	-0.003254	
43674	    0	7.043627	1.885299	0.871270	0.424008	-1.287664	-0.738342	0.070447	0.018574	0.009206	0.999969	0.002120	-0.006438	-0.003692	
43675	    0	7.850970	0.746078	3.012621	0.384716	-1.118479	-0.821693	0.078369	0.007080	0.030579	0.999973	0.001924	-0.005592	-0.004108	
43676	    0	8.713181	-1.297513	4.207148	0.369074	-0.856405	-0.810819	0.086897	-0.013406	0.042419	0.999980	0.001845	-0.004282	-0.004054	
43677	    0	9.642023	-4.088655	3.935855	0.403025	-0.698856	-0.737003	0.096130	-0.041321	0.039612	0.999985	0.002015	-0.003494	-0.003685	
43678	    0	10.443268	-7.282320	2.007032	0.468065	-0.695422	-0.610736	0.104139	-0.073189	0.020262	0.999986	0.002340	-0.003477	-0.003054	
43679	    0	10.839156	-10.062098	-0.931107	0.376321	-0.750735	-0.418092	0.108215	-0.100830	-0.009094	0.999989	0.001882	-0.003754	-0.002090	
43680	    0	11.087942	-10.981977	-2.072675	-0.332070	-0.743487	-0.089836	0.110906	-0.109903	-0.020132	0.999991	-0.001660	-0.003717	-0.000449	
43681	    0	11.538192	-10.269187	-1.188141	-0.912289	-0.527957	0.248719	0.115540	-0.102600	-0.011108	0.999985	-0.004561	-0.002640	0.001244	
43682	    0	11.184196	-9.971940	-0.346933	-1.250850	-0.553518	0.521092	0.112109	-0.099445	-0.002537	0.999972	-0.006254	-0.002768	0.002605	
43683	    0	9.987908	-8.724451	-0.528046	-1.697380	-0.904099	0.736250	0.100220	-0.086914	-0.004089	0.999947	-0.008487	-0.004520	0.003681	
43684	    0	8.363837	-5.310950	-1.970791	-1.752321	-1.326782	0.825901	0.083983	-0.052930	-0.018687	0.999930	-0.008761	-0.006634	0.004129	
43685	    0	6.675363	-1.878800	-3.376451	-1.137563	-1.540211	0.716413	0.067078	-0.018738	-0.033142	0.999948	-0.005688	-0.007701	0.003582	
43686	    0	5.379467	0.234780	-4.253506	-0.291254	-1.278887	0.437359	0.054060	0.002404	-0.042193	0.999975	-0.001456	-0.006394	0.002187	
43687	    0	4.884472	1.521013	-4.119409	0.419046	-0.847629	0.096894	0.049011	0.015320	-0.040955	0.999989	0.002095	-0.004238	0.000484	
43688	    0	4.376450	2.617158	-3.089555	0.902753	-0.648884	-0.240518	0.043896	0.026258	-0.030635	0.999984	0.004514	-0.003244	-0.001203	
43689	    0	4.189323	3.476834	-7.285041	1.557186	-1.186963	-0.547037	0.042419	0.035217	-0.072327	0.999948	0.007786	-0.005935	-0.002735	
43690	    0	6.829614	6.856711	-7.759711	1.497098	-0.311093	-0.900090	0.068726	0.068836	-0.076976	0.999960	0.007485	-0.001555	-0.004500	
43691	    0	11.982808	6.451751	-0.602615	1.893845	0.225072	-1.112388	0.120178	0.063904	-0.005554	0.999939	0.009469	0.001125	-0.005562	
43692	    0	18.693686	-0.764079	5.266354	2.125603	0.265319	-1.206619	0.186954	-0.009326	0.052322	0.999924	0.010628	0.001327	-0.006033	
43693	    0	21.603081	-5.259795	1.772173	1.362820	0.417334	-1.149003	0.215759	-0.053955	0.016907	0.999958	0.006814	0.002087	-0.005745	
43694	    0	19.467237	-2.146295	-2.018090	0.399210	0.701717	-0.831036	0.194509	-0.022230	-0.020907	0.999983	0.001996	0.003509	-0.004155	
43695	    0	14.981062	6.978017	-1.314438	-0.454523	0.574495	-0.551607	0.149963	0.069336	-0.013733	0.999989	-0.002273	0.002872	-0.002758	
43696	    0	10.030558	14.043148	-2.117185	-1.215943	0.151826	-0.467113	0.100616	0.140064	-0.022100	0.999978	-0.006080	0.000759	-0.002336	
43697	    0	7.390849	11.989001	-6.912867	-1.042754	-0.298311	-0.550083	0.074341	0.119324	-0.069641	0.999981	-0.005214	-0.001492	-0.002750	
43698	    0	7.573888	4.929595	-8.890856	-0.998695	-0.502018	-0.687223	0.076130	0.048591	-0.088962	0.999978	-0.004993	-0.002510	-0.003436	
43699	    0	8.221131	1.615370	-8.449873	-1.235211	-0.445370	-0.758369	0.082458	0.015320	-0.084412	0.999970	-0.006176	-0.002227	-0.003792	
43700	    0	8.364660	3.957977	-8.286977	-1.561758	-0.320630	-0.811969	0.083938	0.038591	-0.083039	0.999960	-0.007809	-0.001603	-0.004060	
43701	    0	9.299565	7.479217	-8.171189	-1.608110	-0.199130	-0.992599	0.093445	0.073669	-0.082214	0.999954	-0.008040	-0.000996	-0.004963	
43702	    0	11.331274	6.156572	-6.352517	-1.283855	-0.008583	-1.343365	0.113724	0.060393	-0.063910	0.999956	-0.006419	-0.000043	-0.006717	
43703	    0	12.911106	1.697821	-5.009391	-0.907910	0.100137	-1.553366	0.129211	0.015747	-0.050232	0.999959	-0.004539	0.000501	-0.007767	
43704	    0	13.503479	-0.193139	-3.706649	-0.467878	0.112535	-1.634236	0.134992	-0.003121	-0.037136	0.999963	-0.002339	0.000563	-0.008171	
43705	    0	13.341282	0.283745	-1.464040	-0.181391	0.100709	-1.671620	0.133423	0.001709	-0.014709	0.999964	-0.000907	0.000504	-0.008358	
43706	    0	12.951279	0.692830	-0.558316	-0.352101	0.007629	-1.667424	0.129564	0.005838	-0.005599	0.999963	-0.001760	0.000038	-0.008337	
43707	    0	12.855780	1.280575	-1.229124	-0.753603	-0.106813	-1.618216	0.128662	0.011719	-0.012268	0.999960	-0.003768	-0.000534	-0.008091	
43708	    0	13.057855	0.702183	-1.798484	-1.029030	-0.139238	-1.559662	0.130640	0.005911	-0.017926	0.999955	-0.005145	-0.000696	-0.007798	
43709	    0	13.460524	-0.522272	-2.523111	-1.254292	-0.160792	-1.437400	0.134583	-0.006348	-0.025085	0.999953	-0.006271	-0.000804	-0.007187	
43710	    0	13.807905	-1.275234	-1.935541	-1.268595	-0.090219	-1.299113	0.138000	-0.013771	-0.019208	0.999958	-0.006343	-0.000451	-0.006495	
43711	    0	13.460364	-2.335696	-1.161888	-1.329630	0.022126	-1.185624	0.134460	-0.024231	-0.011475	0.999960	-0.006648	0.000111	-0.005928	
43712	    0	12.629882	-3.141821	-0.502706	-1.459523	0.113107	-1.082245	0.126123	-0.032137	-0.004866	0.999958	-0.007298	0.000566	-0.005411	
43713	    0	11.574229	-4.016931	-0.467481	-1.605248	0.184062	-0.978866	0.115540	-0.040771	-0.004456	0.999955	-0.008026	0.000920	-0.004894	
43714	    0	10.647072	-4.632665	-0.840806	-1.671435	0.221828	-0.894942	0.106253	-0.046871	-0.008136	0.999954	-0.008357	0.001109	-0.004475	
43715	    0	9.947094	-5.242205	-1.207546	-1.605056	0.257114	-0.805675	0.099243	-0.052917	-0.011780	0.999958	-0.008025	0.001286	-0.004028	
43716	    0	9.506820	-5.623574	-1.278412	-1.419464	0.278285	-0.704773	0.094851	-0.056660	-0.012515	0.999968	-0.007097	0.001391	-0.003524	
43717	    0	9.180613	-5.732520	-1.290562	-1.169404	0.275423	-0.607304	0.091614	-0.057678	-0.012695	0.999977	-0.005847	0.001377	-0.003036	
43718	    0	8.846746	-5.293050	-1.262758	-0.861744	0.297929	-0.521472	0.088310	-0.053215	-0.012530	0.999986	-0.004309	0.001490	-0.002607	
43719	    0	8.600298	-4.946402	-1.104505	-0.557519	0.327302	-0.437165	0.085876	-0.049683	-0.011047	0.999992	-0.002788	0.001637	-0.002186	
43720	    0	8.334362	-4.832729	-0.655514	-0.264931	0.388718	-0.368691	0.083241	-0.048490	-0.006653	0.999995	-0.001325	0.001944	-0.001843	
43721	    0	8.129604	-4.402000	0.040334	-0.045586	0.416565	-0.267029	0.081238	-0.044128	0.000244	0.999996	-0.000228	0.002083	-0.001335	
43722	    0	8.222451	-3.682288	0.902252	0.046349	0.498391	-0.169945	0.082215	-0.036895	0.008809	0.999996	0.000232	0.002492	-0.000850	
43723	    0	8.076425	-3.196345	1.878801	-0.031281	0.589944	-0.054169	0.080811	-0.031982	0.018555	0.999995	-0.000156	0.002950	-0.000271	
43724	    0	7.917526	-2.472473	2.669046	-0.167466	0.632287	0.044441	0.079265	-0.024685	0.026461	0.999994	-0.000837	0.003161	0.000222	
43725	    0	7.879942	-1.749875	3.318848	-0.391198	0.668337	0.099182	0.078918	-0.017395	0.032959	0.999992	-0.001956	0.003342	0.000496	
43726	    0	7.909746	-1.411865	3.373809	-0.586893	0.715449	0.195504	0.079231	-0.013943	0.033496	0.999989	-0.002934	0.003577	0.000978	
43727	    0	7.949861	-1.701065	3.369512	-0.723079	0.775913	0.263215	0.079651	-0.016785	0.033447	0.999985	-0.003615	0.003880	0.001316	
43728	    0	7.964000	-2.734004	2.724062	-0.866895	0.806814	0.363352	0.079799	-0.027078	0.027037	0.999980	-0.004334	0.004034	0.001817	
43729	    0	7.807468	-4.195781	1.721627	-0.939758	0.825507	0.486759	0.078247	-0.041687	0.017090	0.999977	-0.004699	0.004128	0.002434	
43730	    0	7.846789	-5.025291	0.874007	-0.831610	0.870902	0.643735	0.078667	-0.049964	0.008606	0.999976	-0.004158	0.004354	0.003219	
43731	    0	8.093091	-5.405364	0.669756	-0.574498	0.943191	0.798804	0.081177	-0.053711	0.006470	0.999976	-0.002872	0.004716	0.003994	
43732	    0	8.602053	-5.382255	0.684602	-0.318721	1.017770	0.953492	0.086309	-0.053401	0.006493	0.999974	-0.001594	0.005089	0.004767	
43733	    0	8.983742	-4.968289	0.824861	-0.037194	1.124584	1.081859	0.090149	-0.049194	0.007751	0.999969	-0.000186	0.005623	0.005409	
43734	    0	9.017773	-4.192483	1.192620	0.275234	1.214424	1.213280	0.090500	-0.041392	0.011320	0.999962	0.001376	0.006072	0.006066	
43735	    0	8.692581	-3.063578	1.490694	0.517472	1.254291	1.338216	0.087219	-0.030090	0.014282	0.999954	0.002587	0.006271	0.006691	
43736	    0	8.227975	-1.718040	1.829943	0.652324	1.267455	1.444269	0.082515	-0.016644	0.017722	0.999949	0.003262	0.006337	0.007221	
43737	    0	7.831997	-0.231395	1.592757	0.514230	1.226255	1.490046	0.078430	-0.001770	0.015442	0.999949	0.002571	0.006131	0.007450	
43738	    0	7.578158	0.990387	1.197837	0.171855	1.146524	1.504158	0.075771	0.010464	0.011553	0.999954	0.000859	0.005733	0.007521	
43739	    0	7.672403	1.467884	0.933523	-0.184634	1.069847	1.490805	0.076660	0.015259	0.008911	0.999957	-0.000923	0.005349	0.007454	
43740	    0	7.805056	1.314648	0.202280	-0.455100	1.029029	1.483939	0.077959	0.013729	0.001591	0.999956	-0.002275	0.005145	0.007420	
43741	    0	7.826754	1.128602	-1.244905	-0.543030	0.861371	1.507589	0.078125	0.011841	-0.012817	0.999958	-0.002715	0.004307	0.007538	
43742	    0	9.253386	1.081906	-3.031307	-0.445562	0.510031	1.563473	0.092368	0.011474	-0.030574	0.999963	-0.002228	0.002550	0.007817	
43743	    0	13.299077	0.436666	-6.019588	-0.331691	0.056458	1.569383	0.132935	0.005310	-0.060242	0.999968	-0.001658	0.000282	0.007847	
43744	    0	17.411160	-0.618387	-8.074254	-0.324253	-0.220683	1.543061	0.174242	-0.004971	-0.080542	0.999968	-0.001621	-0.001103	0.007715	
43745	    0	19.850995	-1.558669	-8.918582	-0.268367	-0.239566	1.556413	0.198730	-0.014160	-0.088928	0.999968	-0.001342	-0.001198	0.007782	
43746	    0	21.060059	-1.476479	-7.495884	0.047875	0.034905	1.686879	0.210702	-0.012970	-0.074999	0.999964	0.000239	0.000175	0.008434	
43747	    0	20.587946	-0.847829	-4.487320	0.496109	0.326543	1.842528	0.205872	-0.006470	-0.045227	0.999952	0.002481	0.001633	0.009212	
43748	    0	18.487333	0.345942	-2.405499	0.776496	0.388725	1.916158	0.184781	0.005324	-0.024396	0.999944	0.003882	0.001944	0.009581	
43749	    0	15.716038	1.588534	-1.293533	0.953883	0.341040	1.843296	0.156982	0.017395	-0.013123	0.999945	0.004769	0.001705	0.009216	
43750	    0	12.773855	1.909901	-0.949025	1.051538	0.234798	1.652554	0.127563	0.020204	-0.009536	0.999950	0.005258	0.001174	0.008263	
43751	    0	10.253580	1.575753	-1.079550	1.091972	0.069428	1.413746	0.102417	0.016541	-0.010742	0.999960	0.005460	0.000347	0.007069	
43752	    0	8.932160	1.255037	-1.488376	1.124585	-0.163080	1.193823	0.089256	0.013166	-0.014738	0.999966	0.005623	-0.000815	0.005969	
43753	    0	8.864567	1.227400	-1.911644	1.203359	-0.407414	0.968943	0.088623	0.012817	-0.018860	0.999968	0.006017	-0.002037	0.004845	
43754	    0	9.640725	1.603508	-1.996088	1.224149	-0.580603	0.784501	0.096400	0.016534	-0.019581	0.999969	0.006121	-0.002903	0.003922	
43755	    0	10.479660	2.001492	-1.908703	1.133929	-0.679785	0.621038	0.104797	0.020447	-0.018616	0.999973	0.005670	-0.003399	0.003105	
43756	    0	10.501639	2.561175	-1.954556	0.982101	-0.760656	0.547223	0.105019	0.025993	-0.019019	0.999976	0.004910	-0.003803	0.002736	
43757	    0	10.033133	3.524421	-2.250347	0.825506	-0.887877	0.494388	0.100342	0.035583	-0.021912	0.999978	0.004128	-0.004439	0.002472	
43758	    0	9.529915	4.417146	-2.670607	0.724226	-1.022156	0.456432	0.095332	0.044484	-0.026058	0.999977	0.003621	-0.005111	0.002282	
43759	    0	9.166340	4.896175	-3.168076	0.663762	-1.115998	0.414279	0.091736	0.049255	-0.031006	0.999976	0.003319	-0.005580	0.002071	
43760	    0	8.659404	4.986749	-3.734456	0.573162	-1.144799	0.339320	0.086720	0.050120	-0.036705	0.999978	0.002866	-0.005724	0.001697	
43761	    0	7.975305	4.815158	-3.645481	0.513462	-1.107604	0.239565	0.079895	0.048340	-0.035889	0.999980	0.002567	-0.005538	0.001198	
43762	    0	7.217867	4.166602	-3.190966	0.534442	-1.062781	0.085831	0.072329	0.041781	-0.031414	0.999982	0.002672	-0.005314	0.000429	
43763	    0	6.307211	4.017503	-2.916379	0.479891	-1.012235	-0.070191	0.063232	0.040222	-0.028748	0.999984	0.002399	-0.005061	-0.000351	
43764	    0	5.526751	3.822238	-2.981239	0.460818	-1.047331	-0.222017	0.055465	0.038229	-0.029434	0.999983	0.002304	-0.005237	-0.001110	
43765	    0	5.292441	3.199567	-3.103509	0.607495	-1.123818	-0.402072	0.053162	0.031982	-0.030640	0.999977	0.003037	-0.005619	-0.002010	
43766	    0	5.629591	2.267472	-3.612461	0.807961	-1.220334	-0.573927	0.056580	0.022657	-0.035688	0.999969	0.004040	-0.006102	-0.002870	
43767	    0	6.062483	1.515323	-3.423485	0.883496	-1.367015	-0.747691	0.060913	0.015076	-0.033752	0.999959	0.004417	-0.006835	-0.003738	
43768	    0	6.483460	0.769232	-2.748151	0.800145	-1.513314	-0.873961	0.065073	0.007517	-0.026959	0.999953	0.004001	-0.007566	-0.004370	
43769	    0	6.922209	-0.176959	-0.891897	0.567826	-1.448842	-0.952925	0.069275	-0.002075	-0.008423	0.999958	0.002839	-0.007244	-0.004765	
43770	    0	7.678043	-1.684534	1.357404	0.306514	-1.196874	-1.015292	0.076611	-0.017256	0.014007	0.999968	0.001533	-0.005984	-0.005076	
43771	    0	8.524251	-3.147885	3.087085	0.154306	-0.805670	-0.984199	0.084961	-0.031921	0.031189	0.999979	0.000772	-0.004028	-0.004921	
43772	    0	9.473286	-4.651067	4.568868	0.311471	-0.569918	-0.837902	0.094406	-0.046978	0.045885	0.999986	0.001557	-0.002850	-0.004189	
43773	    0	10.489603	-7.243034	4.362171	0.543215	-0.529291	-0.624850	0.104553	-0.072876	0.043701	0.999988	0.002716	-0.002646	-0.003124	
43774	    0	10.905954	-9.955728	2.218656	0.530435	-0.597193	-0.314904	0.108836	-0.099788	0.022247	0.999990	0.002652	-0.002986	-0.001575	
43775	    0	11.186276	-12.819502	1.094988	0.273896	-0.488091	0.064850	0.111877	-0.128174	0.011047	0.999995	0.001369	-0.002440	0.000324	
43776	    0	10.876856	-13.528262	-0.203817	-0.331116	-0.452615	0.479699	0.109097	-0.135024	-0.001568	0.999992	-0.001656	-0.002263	0.002398	
43777	    0	9.743106	-11.225656	-1.150040	-1.062594	-0.708014	0.769050	0.097900	-0.111938	-0.010559	0.999971	-0.005313	-0.003540	0.003845	
43778	    0	8.414584	-6.931401	-1.821241	-1.748122	-1.105332	0.913639	0.084558	-0.069081	-0.017141	0.999935	-0.008740	-0.005527	0.004568	
43779	    0	7.201583	-2.499139	-1.937333	-1.859142	-1.458016	0.901818	0.072266	-0.024841	-0.018616	0.999920	-0.009295	-0.007290	0.004509	
43780	    0	6.179875	0.660597	-2.243691	-1.351573	-1.491384	0.715460	0.061940	0.006678	-0.022020	0.999943	-0.006758	-0.007457	0.003577	
43781	    0	5.115752	2.374892	-1.936847	-0.573544	-1.061256	0.429538	0.051208	0.023804	-0.019165	0.999979	-0.002868	-0.005306	0.002148	
43782	    0	4.451620	3.119612	-1.779336	0.035477	-0.714494	0.090790	0.044565	0.031219	-0.017629	0.999993	0.000177	-0.003572	0.000454	
43783	    0	3.013754	3.131357	-2.817160	0.724226	-1.090249	-0.283053	0.030334	0.031372	-0.027893	0.999977	0.003621	-0.005451	-0.001415	
43784	    0	4.179305	3.764124	-11.802131	1.415279	-1.405169	-0.641262	0.042742	0.038338	-0.117454	0.999945	0.007076	-0.007026	-0.003206	
43785	    0	7.501129	6.543379	-7.461338	1.734952	-0.184444	-0.910201	0.075378	0.065735	-0.073975	0.999951	0.008675	-0.000922	-0.004551	
43786	    0	14.596009	2.102013	1.959362	2.610296	0.269136	-1.147119	0.146103	0.019926	0.019662	0.999897	0.013051	0.001346	-0.005735	
43787	    0	21.512011	-5.574067	3.653092	2.349924	0.429739	-1.241340	0.214844	-0.057495	0.035400	0.999909	0.011749	0.002149	-0.006207	
43788	    0	22.064955	-6.147671	-0.060201	1.066410	0.644690	-0.955401	0.220348	-0.062523	-0.001644	0.999969	0.005332	0.003223	-0.004777	
43789	    0	18.203817	3.031589	-1.788379	0.363161	0.796704	-0.686649	0.182068	0.029724	-0.018555	0.999984	0.001816	0.003983	-0.003433	
43790	    0	12.366058	13.493232	-1.517830	-0.559427	0.385476	-0.491334	0.123961	0.134584	-0.015794	0.999990	-0.002797	0.001927	-0.002457	
43791	    0	7.859443	16.923842	-4.399997	-0.736239	-0.168419	-0.483705	0.079041	0.168884	-0.044556	0.999990	-0.003681	-0.000842	-0.002419	
43792	    0	7.902040	9.854461	-7.998499	-0.522806	-0.498964	-0.632479	0.079531	0.098084	-0.080044	0.999988	-0.002614	-0.002495	-0.003162	
43793	    0	9.978175	3.524999	-7.936399	-0.944526	-0.608640	-0.781256	0.100159	0.034485	-0.079224	0.999976	-0.004723	-0.003043	-0.003906	
43794	    0	10.042935	4.621576	-8.058423	-1.473065	-0.551803	-0.854313	0.100846	0.045192	-0.080642	0.999960	-0.007365	-0.002759	-0.004272	
43795	    0	9.586922	8.705988	-8.802590	-1.740104	-0.318151	-0.987261	0.096436	0.085815	-0.088623	0.999949	-0.008700	-0.001591	-0.004936	
43796	    0	10.939108	8.561634	-7.655993	-1.611357	-0.051690	-1.283668	0.109955	0.084291	-0.077214	0.999947	-0.008057	-0.000258	-0.006418	
43797	    0	13.010106	3.860128	-5.647246	-1.223012	0.091745	-1.570918	0.130371	0.037231	-0.056763	0.999949	-0.006115	0.000459	-0.007854	
43798	    0	13.971719	0.172489	-4.327361	-0.818074	0.094034	-1.722743	0.139704	0.000344	-0.043343	0.999954	-0.004090	0.000470	-0.008614	
43799	    0	13.917641	-0.741975	-2.582158	-0.460631	0.022126	-1.795222	0.139099	-0.008728	-0.025818	0.999956	-0.002303	0.000111	-0.008976	
43800	    0	13.672739	-0.288941	-1.387390	-0.271229	-0.027275	-1.796366	0.136696	-0.004136	-0.013850	0.999958	-0.001356	-0.000136	-0.008982	
43801	    0	13.250223	0.795300	-0.754994	-0.415808	-0.086786	-1.754022	0.132568	0.006775	-0.007507	0.999959	-0.002079	-0.000434	-0.008770	
43802	    0	12.911610	0.960054	-1.054466	-0.772869	-0.091173	-1.679254	0.129195	0.008475	-0.010520	0.999957	-0.003864	-0.000456	-0.008396	
43803	    0	12.558398	0.307940	-1.391181	-1.148051	-0.112154	-1.569391	0.125610	0.002014	-0.013855	0.999952	-0.005740	-0.000561	-0.007847	
43804	    0	12.354182	-0.773127	-1.410567	-1.465060	-0.098039	-1.415277	0.123489	-0.008708	-0.013984	0.999948	-0.007325	-0.000490	-0.007076	
43805	    0	12.129638	-2.146667	-1.039453	-1.670869	-0.028802	-1.297784	0.121155	-0.022339	-0.010193	0.999944	-0.008354	-0.000144	-0.006489	
43806	    0	11.731844	-3.473195	-0.450238	-1.834524	0.105288	-1.185441	0.117107	-0.035466	-0.004241	0.999940	-0.009172	0.000526	-0.005927	
43807	    0	10.999901	-4.810161	-0.299031	-2.004094	0.218968	-1.050590	0.109741	-0.048706	-0.002625	0.999935	-0.010020	0.001095	-0.005253	
43808	    0	10.230012	-5.778240	-0.872293	-2.063987	0.315101	-0.933095	0.102015	-0.058346	-0.008284	0.999934	-0.010320	0.001575	-0.004665	
43809	    0	9.423789	-6.547799	-1.810849	-1.986734	0.393112	-0.819413	0.093933	-0.066040	-0.017639	0.999940	-0.009933	0.001966	-0.004097	
43810	    0	8.903068	-6.820721	-2.542117	-1.723316	0.421721	-0.700580	0.088737	-0.068735	-0.025018	0.999954	-0.008616	0.002109	-0.003503	
43811	    0	8.569594	-6.598704	-2.595480	-1.270115	0.378421	-0.597387	0.085449	-0.066406	-0.025696	0.999973	-0.006351	0.001892	-0.002987	
43812	    0	8.334202	-5.638966	-2.800942	-0.679781	0.295068	-0.539782	0.083148	-0.056709	-0.027940	0.999989	-0.003399	0.001475	-0.002699	
43813	    0	8.289287	-4.361369	-2.208664	-0.075340	0.206757	-0.485993	0.082764	-0.043823	-0.022156	0.999996	-0.000377	0.001034	-0.002430	
43814	    0	8.570837	-3.151001	-1.156271	0.180626	0.226403	-0.421715	0.085629	-0.031680	-0.011688	0.999996	0.000903	0.001132	-0.002109	
43815	    0	8.811655	-2.168577	-0.113612	0.136757	0.296784	-0.376130	0.088074	-0.021851	-0.001282	0.999996	0.000684	0.001484	-0.001881	
43816	    0	8.825272	-1.306608	0.343406	-0.055313	0.379754	-0.337601	0.088237	-0.013214	0.003270	0.999996	-0.000277	0.001899	-0.001688	
43817	    0	8.836557	-0.604491	0.912390	-0.188446	0.494576	-0.289917	0.088379	-0.006165	0.008911	0.999995	-0.000942	0.002473	-0.001450	
43818	    0	8.888226	-0.604514	1.668363	-0.285721	0.616075	-0.222970	0.088926	-0.006121	0.016418	0.999993	-0.001429	0.003080	-0.001115	
43819	    0	8.842796	-0.979839	2.263913	-0.313569	0.713541	-0.143433	0.088501	-0.009827	0.022339	0.999991	-0.001568	0.003568	-0.000717	
43820	    0	8.676847	-1.683772	2.700252	-0.337983	0.784113	-0.028229	0.086871	-0.016805	0.026690	0.999990	-0.001690	0.003921	-0.000141	
43821	    0	8.539599	-2.359085	2.538698	-0.430109	0.823978	0.089264	0.085510	-0.023499	0.025085	0.999989	-0.002151	0.004120	0.000446	
43822	    0	8.537862	-2.963654	2.542099	-0.508120	0.891499	0.214196	0.085523	-0.029481	0.025115	0.999986	-0.002541	0.004457	0.001071	
43823	    0	8.563832	-3.549545	2.459997	-0.554469	0.946813	0.348665	0.085815	-0.035278	0.024292	0.999983	-0.002772	0.004734	0.001743	
43824	    0	8.588090	-4.114656	2.107353	-0.510982	1.037604	0.493244	0.086090	-0.040881	0.020732	0.999980	-0.002555	0.005188	0.002466	
43825	    0	8.583239	-4.511454	1.477605	-0.458530	1.104173	0.654607	0.086060	-0.044800	0.014404	0.999976	-0.002293	0.005521	0.003273	
43826	    0	8.502200	-4.661300	0.754577	-0.413326	1.175128	0.827416	0.085257	-0.046246	0.007141	0.999971	-0.002067	0.005876	0.004137	
43827	    0	8.515050	-4.437653	0.307992	-0.282863	1.213850	1.001750	0.085388	-0.043945	0.002625	0.999968	-0.001414	0.006069	0.005009	
43828	    0	8.544712	-3.779697	0.220148	-0.017929	1.249901	1.156058	0.085675	-0.037302	0.001670	0.999964	-0.000090	0.006249	0.005780	
43829	    0	8.419434	-3.148790	0.288615	0.206187	1.268023	1.293963	0.084412	-0.030945	0.002319	0.999958	0.001031	0.006340	0.006470	
43830	    0	8.122775	-2.315388	0.370789	0.346570	1.262875	1.384947	0.081407	-0.022596	0.003155	0.999954	0.001733	0.006314	0.006925	
43831	    0	7.649461	-1.263649	0.281629	0.368696	1.239033	1.452660	0.076599	-0.012085	0.002319	0.999952	0.001843	0.006195	0.007263	
43832	    0	7.336994	-0.039005	0.090947	0.226596	1.173991	1.486229	0.073374	0.000154	0.000479	0.999954	0.001133	0.005870	0.007431	
43833	    0	7.220320	1.105136	-0.627303	-0.058747	1.043907	1.517508	0.072083	0.011597	-0.006653	0.999957	-0.000294	0.005219	0.007587	
43834	    0	7.850043	1.657584	-1.890619	-0.424009	0.800143	1.534673	0.078294	0.017137	-0.019256	0.999960	-0.002120	0.004001	0.007673	
43835	    0	9.921222	1.541068	-3.582863	-0.680551	0.505263	1.542683	0.098999	0.016052	-0.036133	0.999961	-0.003403	0.002526	0.007713	
43836	    0	13.140188	0.583457	-4.745851	-0.761614	0.313191	1.542683	0.131278	0.006666	-0.047688	0.999961	-0.003808	0.001566	0.007713	
43837	    0	16.017329	0.095650	-5.271419	-0.648315	0.247195	1.535052	0.160095	0.002014	-0.052917	0.999964	-0.003242	0.001236	0.007675	
43838	    0	17.655168	-0.371047	-5.200458	-0.445371	0.280955	1.513307	0.176500	-0.002491	-0.052246	0.999968	-0.002227	0.001405	0.007566	
43839	    0	17.980283	-0.480340	-4.366567	-0.296024	0.385479	1.545732	0.179749	-0.003479	-0.044006	0.999967	-0.001480	0.001927	0.007729	
43840	    0	16.948257	-0.290243	-3.082367	-0.106431	0.456052	1.617260	0.169428	-0.001549	-0.031209	0.999964	-0.000532	0.002280	0.008086	
43841	    0	15.454301	0.145927	-1.887256	0.124361	0.459486	1.651021	0.154480	0.002747	-0.019226	0.999963	0.000622	0.002297	0.008255	
43842	    0	14.128750	0.670277	-1.327019	0.336460	0.377278	1.586742	0.141203	0.007846	-0.013524	0.999965	0.001682	0.001886	0.007934	
43843	    0	13.143540	0.908580	-1.309832	0.473981	0.257876	1.451888	0.131348	0.010071	-0.013245	0.999969	0.002370	0.001289	0.007259	
43844	    0	12.383328	0.777660	-1.465550	0.540738	0.077439	1.317417	0.123773	0.008632	-0.014681	0.999974	0.002704	0.000387	0.006587	
43845	    0	11.982509	0.332846	-1.656136	0.646405	-0.115968	1.181039	0.119812	0.004089	-0.016479	0.999977	0.003232	-0.000580	0.005905	
43846	    0	12.020069	-0.038231	-2.027637	0.803763	-0.283816	1.070794	0.120229	0.000342	-0.020105	0.999976	0.004019	-0.001419	0.005354	
43847	    0	12.354117	-0.121640	-2.334188	0.999460	-0.443844	0.991067	0.123596	-0.000488	-0.023071	0.999972	0.004997	-0.002219	0.004955	
43848	    0	12.557841	0.419352	-2.483005	1.138317	-0.515180	0.935373	0.125620	0.004921	-0.024480	0.999969	0.005692	-0.002576	0.004677	
43849	    0	12.194809	1.396106	-2.415849	1.174939	-0.543028	0.897226	0.121948	0.014648	-0.023743	0.999969	0.005875	-0.002715	0.004486	
43850	    0	11.392048	2.426387	-2.358536	1.119243	-0.546270	0.880631	0.113875	0.024896	-0.023136	0.999970	0.005596	-0.002731	0.004403	
43851	    0	10.426749	3.273780	-2.348818	1.082812	-0.572973	0.886544	0.104187	0.033325	-0.023010	0.999971	0.005414	-0.002865	0.004433	
43852	    0	9.631309	3.844757	-2.456820	1.076327	-0.641257	0.860223	0.096224	0.038992	-0.024051	0.999970	0.005382	-0.003206	0.004301	
43853	    0	9.095932	4.049629	-2.558461	1.118481	-0.729950	0.832376	0.090881	0.041016	-0.025024	0.999969	0.005592	-0.003650	0.004162	
43854	    0	8.766315	3.981323	-2.688325	1.154530	-0.794801	0.769242	0.087614	0.040303	-0.026303	0.999968	0.005773	-0.003974	0.003846	
43855	    0	8.484940	3.799507	-2.854422	1.200880	-0.848970	0.679024	0.084839	0.038452	-0.027954	0.999967	0.006004	-0.004245	0.003395	
43856	    0	7.910293	3.880621	-3.029507	1.248373	-0.855646	0.554472	0.079123	0.039212	-0.029713	0.999967	0.006242	-0.004278	0.002772	
43857	    0	7.251273	4.037627	-3.115643	1.268972	-0.882730	0.383000	0.072571	0.040710	-0.030579	0.999968	0.006345	-0.004414	0.001915	
43858	    0	6.685906	4.222123	-2.744803	1.171695	-0.923738	0.175287	0.066947	0.042439	-0.026891	0.999971	0.005858	-0.004619	0.000876	
43859	    0	6.304837	4.150246	-2.523758	1.029214	-0.964173	-0.014496	0.063171	0.041626	-0.024719	0.999974	0.005146	-0.004821	-0.000072	
43860	    0	5.934302	3.790946	-3.010864	0.825316	-1.000602	-0.185777	0.059527	0.037977	-0.029655	0.999978	0.004127	-0.005003	-0.000929	
43861	    0	5.551541	3.472566	-2.921581	0.670056	-1.045234	-0.336459	0.055725	0.034729	-0.028809	0.999979	0.003350	-0.005226	-0.001682	
43862	    0	5.535188	2.923467	-2.055090	0.719649	-1.151858	-0.502781	0.055542	0.029168	-0.020126	0.999973	0.003598	-0.005759	-0.002514	
43863	    0	5.877967	1.816965	-0.906856	0.791368	-1.329056	-0.675972	0.058899	0.018005	-0.008606	0.999964	0.003957	-0.006645	-0.003380	
43864	    0	6.435626	1.263022	0.710148	0.885213	-1.356906	-0.803958	0.064356	0.012339	0.007593	0.999959	0.004426	-0.006784	-0.004020	
43865	    0	7.173465	0.268210	2.501398	0.882732	-1.192298	-0.871288	0.071594	0.002258	0.025452	0.999963	0.004414	-0.005961	-0.004356	
43866	    0	8.063628	-1.395812	3.381456	0.739867	-0.808532	-0.883682	0.080436	-0.014440	0.034087	0.999975	0.003699	-0.004043	-0.004418	
43867	    0	8.868242	-3.658010	3.485322	0.662426	-0.547031	-0.796513	0.088440	-0.037048	0.034973	0.999983	0.003312	-0.002735	-0.003983	
43868	    0	9.547687	-6.952140	3.657412	0.660708	-0.472452	-0.596240	0.095182	-0.069926	0.036569	0.999987	0.003304	-0.002362	-0.002981	
43869	    0	10.115152	-9.857704	1.168308	0.231362	-0.659181	-0.325013	0.100952	-0.098755	0.011902	0.999992	0.001157	-0.003296	-0.001625	
43870	    0	10.873057	-11.053113	0.992879	-0.134850	-0.513650	0.000191	0.108705	-0.110524	0.010283	0.999996	-0.000674	-0.002568	0.000001	
43871	    0	11.202832	-11.253486	1.858958	-0.407983	-0.399781	0.341798	0.112183	-0.112305	0.019043	0.999994	-0.002040	-0.001999	0.001709	
43872	    0	10.674695	-10.507515	0.852127	-0.828366	-0.485995	0.603298	0.107041	-0.104715	0.009215	0.999984	-0.004142	-0.002430	0.003016	
43873	    0	9.235144	-8.257603	-1.001509	-1.374072	-0.766573	0.788890	0.092712	-0.082275	-0.009094	0.999961	-0.006870	-0.003833	0.003944	
43874	    0	7.559784	-4.428701	-2.223468	-1.598961	-1.130507	0.851266	0.075909	-0.044138	-0.021453	0.999943	-0.007995	-0.005652	0.004256	
43875	    0	6.126991	-0.797554	-2.620050	-1.381707	-1.266310	0.716412	0.061462	-0.007935	-0.025757	0.999949	-0.006908	-0.006331	0.003582	
43876	    0	5.173747	1.597663	-2.329333	-0.827987	-1.076135	0.444797	0.051826	0.015996	-0.023081	0.999974	-0.004140	-0.005381	0.002224	
43877	    0	4.741927	3.033142	-2.345366	-0.220299	-0.723268	0.121308	0.047485	0.030334	-0.023315	0.999992	-0.001101	-0.003616	0.000607	
43878	    0	4.610975	3.999648	-2.412744	0.155449	-0.462151	-0.177384	0.046201	0.039974	-0.023990	0.999996	0.000777	-0.002311	-0.000887	
43879	    0	4.740374	3.918549	-2.162577	0.431825	-0.496484	-0.456239	0.047546	0.039124	-0.021423	0.999991	0.002159	-0.002482	-0.002281	
43880	    0	4.385121	2.341140	-3.879433	0.724036	-1.095400	-0.628286	0.044136	0.023413	-0.038468	0.999973	0.003620	-0.005477	-0.003141	
43881	    0	6.683271	3.092901	-8.220659	0.874529	-1.026927	-0.836953	0.067383	0.031006	-0.081726	0.999968	0.004373	-0.005135	-0.004185	
43882	    0	12.232760	3.869356	-2.240777	1.317992	0.011063	-0.956164	0.122510	0.038255	-0.022161	0.999967	0.006590	0.000055	-0.004781	
43883	    0	19.490503	-3.756424	3.182672	1.732092	0.251011	-0.945298	0.194763	-0.038757	0.031250	0.999950	0.008660	0.001255	-0.004726	
43884	    0	23.397124	-8.971546	-0.160244	1.180470	0.543218	-0.799950	0.233603	-0.090636	-0.002770	0.999970	0.005902	0.002716	-0.004000	
43885	    0	20.248726	-6.155940	-1.517190	0.039101	0.978856	-0.450136	0.202271	-0.062012	-0.016174	0.999985	0.000196	0.004894	-0.002251	
43886	    0	14.220846	5.418166	-2.277302	-0.839619	0.576785	-0.239373	0.142206	0.053914	-0.023410	0.999986	-0.004198	0.002884	-0.001197	
43887	    0	9.058569	15.474795	-2.663134	-1.363193	0.189973	-0.179292	0.090698	0.154480	-0.027771	0.999975	-0.006816	0.000950	-0.000896	
43888	    0	6.804246	14.151802	-6.065053	-0.777629	-0.222779	-0.334931	0.068347	0.141167	-0.061124	0.999990	-0.003888	-0.001114	-0.001675	
43889	    0	7.567970	5.735276	-8.747945	-0.577357	-0.476076	-0.567629	0.076050	0.056885	-0.087463	0.999989	-0.002887	-0.002380	-0.002838	
43890	    0	8.618652	2.434057	-9.069044	-0.922972	-0.435451	-0.751500	0.086473	0.023598	-0.090612	0.999979	-0.004615	-0.002177	-0.003757	
43891	    0	8.107673	5.574488	-9.810457	-1.266302	-0.308994	-0.920115	0.081482	0.054749	-0.098328	0.999968	-0.006331	-0.001545	-0.004601	
43892	    0	8.630708	9.144554	-9.685585	-1.317423	-0.107957	-1.166168	0.086888	0.090300	-0.097406	0.999961	-0.006587	-0.000540	-0.005831	
43893	    0	11.059917	7.635244	-7.778308	-1.047530	0.013161	-1.458760	0.111145	0.075134	-0.078186	0.999959	-0.005238	0.000066	-0.007294	
43894	    0	13.143676	2.853370	-6.257218	-0.614747	0.065423	-1.675437	0.131648	0.027239	-0.062700	0.999960	-0.003074	0.000327	-0.008377	
43895	    0	13.648985	0.788843	-4.278885	-0.173952	0.075723	-1.755546	0.136536	0.006653	-0.042847	0.999961	-0.000870	0.000379	-0.008778	
43896	    0	13.169977	1.430732	-1.310797	0.187113	0.044251	-1.787782	0.131818	0.013142	-0.013124	0.999959	0.000936	0.000221	-0.008939	
43897	    0	12.696323	2.736780	0.350198	0.141146	-0.030327	-1.762413	0.127197	0.026245	0.003540	0.999961	0.000706	-0.000152	-0.008812	
43898	    0	12.459571	4.034382	0.454055	-0.230029	-0.082017	-1.742004	0.124939	0.039262	0.004546	0.999961	-0.001150	-0.000410	-0.008710	
43899	    0	12.639583	3.780652	0.299720	-0.696574	-0.097467	-1.696038	0.126709	0.036743	0.002930	0.999957	-0.003483	-0.000487	-0.008480	
43900	    0	13.054101	1.647466	-0.654343	-1.177044	-0.117495	-1.608303	0.130672	0.015386	-0.006559	0.999949	-0.005885	-0.000587	-0.008041	
43901	    0	13.385678	-0.122109	-1.394504	-1.535636	-0.112154	-1.481657	0.133850	-0.002319	-0.013855	0.999943	-0.007678	-0.000561	-0.007408	
43902	    0	13.321895	-1.494468	-1.045035	-1.690516	-0.029564	-1.366070	0.133114	-0.015942	-0.010299	0.999941	-0.008452	-0.000148	-0.006830	
43903	    0	12.675884	-2.686213	-0.734650	-1.794469	0.064279	-1.236749	0.126587	-0.027710	-0.007141	0.999940	-0.008972	0.000321	-0.006184	
43904	    0	11.650427	-3.515308	-0.705545	-1.865042	0.147822	-1.109527	0.116302	-0.035863	-0.006809	0.999941	-0.009325	0.000739	-0.005548	
43905	    0	10.687247	-4.665419	-0.508412	-1.890410	0.227360	-1.013966	0.106628	-0.047241	-0.004761	0.999941	-0.009452	0.001137	-0.005070	
43906	    0	9.877151	-5.616884	-0.936616	-1.881444	0.291067	-0.912874	0.098500	-0.056705	-0.008978	0.999944	-0.009407	0.001455	-0.004564	
43907	    0	9.420359	-5.919266	-1.267581	-1.707485	0.343519	-0.836958	0.093933	-0.059692	-0.012329	0.999953	-0.008537	0.001718	-0.004185	
43908	    0	9.091710	-6.173378	-1.476953	-1.383606	0.336269	-0.749596	0.090660	-0.062175	-0.014493	0.999968	-0.006918	0.001681	-0.003748	
43909	    0	8.828456	-5.736654	-1.907326	-0.955206	0.278665	-0.640110	0.088074	-0.057739	-0.018921	0.999982	-0.004776	0.001393	-0.003201	
43910	    0	8.788060	-5.005681	-1.929557	-0.467874	0.242043	-0.550462	0.087719	-0.050344	-0.019284	0.999992	-0.002339	0.001210	-0.002752	
43911	    0	8.831529	-4.293638	-1.321073	-0.092125	0.260163	-0.474549	0.088196	-0.043152	-0.013306	0.999996	-0.000461	0.001301	-0.002373	
43912	    0	8.925819	-3.577024	-0.607762	0.048447	0.280190	-0.403595	0.089177	-0.035949	-0.006211	0.999996	0.000242	0.001401	-0.002018	
43913	    0	8.976556	-2.657888	0.125908	0.022316	0.350953	-0.344086	0.089722	-0.026733	0.001099	0.999996	0.000112	0.001755	-0.001720	
43914	    0	8.838878	-2.074733	0.574556	-0.118446	0.441552	-0.296402	0.088370	-0.020875	0.005563	0.999996	-0.000592	0.002208	-0.001482	
43915	    0	8.618354	-1.601265	0.722423	-0.277520	0.527955	-0.256348	0.086182	-0.016113	0.007019	0.999994	-0.001388	0.002640	-0.001282	
43916	    0	8.457596	-1.362290	1.536933	-0.325394	0.647546	-0.194550	0.084612	-0.013680	0.015118	0.999992	-0.001627	0.003238	-0.000973	
43917	    0	8.434024	-1.501187	2.224754	-0.374604	0.718119	-0.104523	0.084412	-0.015015	0.021973	0.999991	-0.001873	0.003591	-0.000523	
43918	    0	8.632725	-1.709197	2.776573	-0.370599	0.749781	-0.000763	0.086431	-0.017041	0.027473	0.999990	-0.001853	0.003749	-0.000004	
43919	    0	8.856062	-2.091991	3.007680	-0.394250	0.750735	0.108338	0.088684	-0.020813	0.029785	0.999990	-0.001971	0.003754	0.000542	
43920	    0	9.010316	-2.701987	3.118650	-0.540735	0.781635	0.233651	0.090256	-0.026831	0.030907	0.999988	-0.002704	0.003908	0.001168	
43921	    0	9.013970	-3.403713	2.992278	-0.795751	0.873762	0.368502	0.090332	-0.033752	0.029663	0.999980	-0.003979	0.004369	0.001842	
43922	    0	8.935302	-3.922912	2.308371	-0.856597	0.974472	0.511174	0.089564	-0.038902	0.022815	0.999975	-0.004283	0.004872	0.002556	
43923	    0	8.877498	-4.581767	1.133974	-0.769813	1.052294	0.682837	0.088989	-0.045471	0.011047	0.999972	-0.003849	0.005261	0.003414	
43924	    0	8.818115	-4.841480	0.576663	-0.592047	1.183522	0.884065	0.088427	-0.048008	0.005386	0.999968	-0.002960	0.005918	0.004420	
43925	    0	8.827088	-4.346413	0.899088	-0.311283	1.297967	1.089491	0.088562	-0.042969	0.008484	0.999963	-0.001556	0.006490	0.005447	
43926	    0	8.680224	-3.602654	1.294296	-0.080491	1.334400	1.258868	0.087111	-0.035474	0.012377	0.999957	-0.000402	0.006672	0.006294	
43927	    0	8.399665	-2.927469	1.440154	0.026131	1.289387	1.401541	0.084290	-0.028687	0.013855	0.999954	0.000131	0.006447	0.007008	
43928	    0	8.195302	-2.178451	0.714990	0.005913	1.139848	1.491569	0.082151	-0.021173	0.006681	0.999955	0.000030	0.005699	0.007458	
43929	    0	8.388866	-1.109174	-1.105355	-0.111391	0.872242	1.575491	0.083923	-0.010437	-0.011414	0.999959	-0.000557	0.004361	0.007877	
43930	    0	9.755272	-0.151590	-3.373554	-0.196841	0.551231	1.613065	0.097467	-0.000763	-0.034003	0.999963	-0.000984	0.002756	0.008065	
43931	    0	12.234698	0.008765	-5.069171	-0.210383	0.344853	1.641102	0.122253	0.001038	-0.050903	0.999964	-0.001052	0.001724	0.008205	
43932	    0	14.708123	-0.164132	-5.229666	-0.156595	0.404363	1.650449	0.146982	-0.000469	-0.052593	0.999963	-0.000783	0.002022	0.008252	
43933	    0	16.123932	-0.171689	-4.019834	0.063325	0.559433	1.660178	0.161133	-0.000366	-0.040649	0.999961	0.000317	0.002797	0.008301	
43934	    0	16.561384	-0.021076	-2.391394	0.311474	0.670061	1.663994	0.165526	0.001204	-0.024467	0.999958	0.001557	0.003350	0.008320	
43935	    0	16.076995	0.697591	-1.874327	0.475318	0.624284	1.668572	0.160645	0.008362	-0.019226	0.999957	0.002377	0.003121	0.008343	
43936	    0	14.819442	1.100779	-1.787322	0.421339	0.536735	1.659416	0.148047	0.012275	-0.018246	0.999959	0.002107	0.002684	0.008297	
43937	    0	13.377736	1.548575	-1.792321	0.289158	0.432020	1.630422	0.133606	0.016602	-0.018188	0.999963	0.001446	0.002160	0.008152	
43938	    0	12.327022	1.656595	-1.553008	0.245478	0.306133	1.552026	0.123113	0.017541	-0.015697	0.999968	0.001227	0.001531	0.007760	
43939	    0	11.743163	1.468778	-1.286642	0.327495	0.167085	1.457228	0.117310	0.015564	-0.012939	0.999971	0.001637	0.000835	0.007286	
43940	    0	11.512862	0.998507	-1.331825	0.424389	-0.037766	1.354610	0.115060	0.010793	-0.013274	0.999974	0.002122	-0.000189	0.006773	
43941	    0	11.701855	0.445582	-1.528802	0.523381	-0.236322	1.287852	0.117004	0.005249	-0.015137	0.999974	0.002617	-0.001182	0.006439	
43942	    0	12.010096	0.189192	-1.776279	0.674826	-0.398639	1.238453	0.120121	0.002695	-0.017515	0.999972	0.003374	-0.001993	0.006192	
43943	    0	12.034847	0.378888	-1.683802	0.871476	-0.463109	1.190197	0.120361	0.004578	-0.016541	0.999969	0.004357	-0.002316	0.005951	
43944	    0	11.683777	0.948385	-1.623556	1.043331	-0.492292	1.175322	0.116818	0.010254	-0.015896	0.999966	0.005217	-0.002461	0.005877	
43945	    0	11.041037	1.719670	-1.789902	1.139083	-0.509459	1.172652	0.110352	0.017944	-0.017517	0.999963	0.005695	-0.002547	0.005863	
43946	    0	10.403029	2.387303	-2.222952	1.173988	-0.523574	1.150527	0.103948	0.024600	-0.021814	0.999962	0.005870	-0.002618	0.005753	
43947	    0	9.774933	2.806007	-2.454238	1.182571	-0.542266	1.113905	0.097656	0.028748	-0.024109	0.999963	0.005913	-0.002711	0.005569	
43948	    0	9.264989	3.006587	-2.609449	1.195922	-0.557906	1.068891	0.092559	0.030715	-0.025654	0.999964	0.005980	-0.002789	0.005344	
43949	    0	8.900300	3.192045	-2.818041	1.216331	-0.615699	0.993359	0.088928	0.032532	-0.027710	0.999964	0.006082	-0.003078	0.004967	
43950	    0	8.571722	3.347599	-3.123600	1.254478	-0.675782	0.909625	0.085668	0.034060	-0.030734	0.999964	0.006272	-0.003379	0.004548	
43951	    0	8.259597	3.418969	-3.336281	1.288048	-0.734719	0.791178	0.082581	0.034729	-0.032837	0.999964	0.006440	-0.003674	0.003956	
43952	    0	7.841330	3.471252	-3.237611	1.252760	-0.760850	0.654037	0.078421	0.035170	-0.031858	0.999968	0.006264	-0.003804	0.003270	
43953	    0	7.351786	3.705107	-3.078992	1.175129	-0.808724	0.502019	0.073547	0.037415	-0.030273	0.999971	0.005876	-0.004044	0.002510	
43954	    0	6.760460	4.084689	-3.005567	1.124773	-0.847824	0.337604	0.067661	0.041128	-0.029538	0.999973	0.005624	-0.004239	0.001688	
43955	    0	6.442382	4.246635	-2.750150	1.055917	-0.927551	0.167085	0.064514	0.042664	-0.026978	0.999974	0.005280	-0.004638	0.000835	
43956	    0	6.450905	4.148344	-3.158335	0.855262	-1.030548	0.015831	0.064667	0.041622	-0.031073	0.999977	0.004276	-0.005153	0.000079	
43957	    0	6.484977	3.589060	-3.422466	0.570873	-1.137550	-0.115968	0.065063	0.035950	-0.033752	0.999979	0.002854	-0.005688	-0.000580	
43958	    0	6.375779	2.897796	-3.235749	0.335124	-1.272402	-0.265314	0.064000	0.028947	-0.031902	0.999977	0.001676	-0.006362	-0.001327	
43959	    0	6.135026	2.176925	-2.652725	0.199129	-1.442542	-0.415806	0.061584	0.021667	-0.026062	0.999970	0.000996	-0.007213	-0.002079	
43960	    0	6.224358	1.991416	-1.166351	0.234035	-1.623937	-0.506026	0.062386	0.019770	-0.011134	0.999963	0.001170	-0.008120	-0.002530	
43961	    0	6.882912	1.713660	0.397732	0.327496	-1.663231	-0.646982	0.068848	0.016907	0.004578	0.999958	0.001637	-0.008316	-0.003235	
43962	    0	8.000810	0.861547	1.975530	0.399976	-1.509304	-0.750933	0.079887	0.008275	0.020375	0.999962	0.002000	-0.007546	-0.003755	
43963	    0	9.247480	-0.773559	2.620795	0.519567	-1.183140	-0.810250	0.092285	-0.008179	0.026733	0.999970	0.002598	-0.005916	-0.004051	
43964	    0	10.201267	-3.709129	2.588988	0.584034	-0.859648	-0.756650	0.101759	-0.037553	0.026218	0.999979	0.002920	-0.004298	-0.003783	
43965	    0	11.271050	-7.830763	1.560973	0.410463	-0.639155	-0.594332	0.112427	-0.078674	0.015808	0.999988	0.002052	-0.003196	-0.002972	
43966	    0	11.872357	-10.205613	0.194136	-0.044823	-0.650217	-0.334359	0.118546	-0.102254	0.002350	0.999992	-0.000224	-0.003251	-0.001672	
43967	    0	12.522738	-11.505566	0.919907	-0.428582	-0.511170	0.071716	0.125244	-0.114990	0.009766	0.999994	-0.002143	-0.002556	0.000359	
43968	    0	12.480865	-12.288858	1.804952	-0.973326	-0.431826	0.495913	0.125072	-0.122488	0.018916	0.999982	-0.004867	-0.002159	0.002480	
43969	    0	11.295283	-11.375727	0.175589	-1.457043	-0.613411	0.807963	0.113403	-0.113281	0.002930	0.999960	-0.007285	-0.003067	0.004040	
43970	    0	9.494354	-8.384281	-2.185168	-1.787223	-0.927372	0.996611	0.095458	-0.083556	-0.020662	0.999936	-0.008936	-0.004637	0.004983	
43971	    0	7.461609	-4.070351	-3.305531	-1.544793	-1.212335	0.978871	0.075012	-0.040588	-0.032288	0.999939	-0.007724	-0.006062	0.004894	
43972	    0	5.639837	-0.772195	-3.505788	-0.827417	-1.212515	0.738724	0.056638	-0.007657	-0.034683	0.999966	-0.004137	-0.006063	0.003694	
43973	    0	4.267917	1.172380	-2.862518	-0.124360	-0.889400	0.344850	0.042786	0.011780	-0.028442	0.999988	-0.000622	-0.004447	0.001724	
43974	    0	3.320850	3.093268	-2.290421	0.506593	-0.639727	-0.067520	0.033292	0.030979	-0.022719	0.999991	0.002533	-0.003199	-0.000338	
43975	    0	3.532526	5.662828	-4.384225	1.029975	-0.524715	-0.507358	0.035583	0.056763	-0.043457	0.999980	0.005150	-0.002624	-0.002537	
43976	    0	4.068188	6.754561	-4.430575	1.121530	-0.211908	-0.781638	0.040993	0.067633	-0.043883	0.999975	0.005608	-0.001060	-0.003908	
43977	    0	4.338783	5.200670	-5.456320	1.204121	-0.231173	-0.962076	0.043701	0.052124	-0.054199	0.999969	0.006021	-0.001156	-0.004810	
43978	    0	5.150497	4.606573	-5.739236	1.355571	-0.256160	-1.192682	0.051853	0.046144	-0.057014	0.999958	0.006778	-0.001281	-0.005963	
43979	    0	9.249968	6.139364	-2.723625	1.687084	-0.235753	-1.391630	0.092957	0.060974	-0.026611	0.999939	0.008435	-0.001179	-0.006958	
43980	    0	16.781481	2.187408	3.228894	2.007344	0.012398	-1.429403	0.167966	0.020349	0.032488	0.999924	0.010036	0.000062	-0.007147	
43981	    0	22.564208	-6.310864	2.740019	1.620704	0.021363	-1.323724	0.225220	-0.064819	0.026855	0.999945	0.008103	0.000107	-0.006618	
43982	    0	23.057040	-8.696715	-3.300593	0.431063	0.460436	-0.831608	0.230129	-0.087852	-0.033725	0.999986	0.002155	0.002302	-0.004158	
43983	    0	17.928088	-1.026983	-4.842758	-0.537684	0.751498	-0.380708	0.179077	-0.010742	-0.049072	0.999987	-0.002688	0.003757	-0.001904	
43984	    0	11.205109	9.002051	-2.831142	-1.214226	0.383570	-0.154687	0.112065	0.089759	-0.029072	0.999979	-0.006071	0.001918	-0.000773	
43985	    0	8.317621	12.269313	-2.742326	-1.419079	0.066567	-0.138856	0.083252	0.122437	-0.028320	0.999974	-0.007095	0.000333	-0.000694	
43986	    0	8.935296	6.428993	-6.186650	-1.115233	-0.157357	-0.281526	0.089492	0.063818	-0.062153	0.999983	-0.005576	-0.000787	-0.001408	
43987	    0	9.629281	0.667255	-7.609685	-1.266298	-0.179292	-0.434879	0.096375	0.005981	-0.076050	0.999977	-0.006331	-0.000896	-0.002174	
43988	    0	8.890819	2.478092	-8.678702	-1.556795	-0.161173	-0.485807	0.089037	0.023889	-0.086904	0.999966	-0.007784	-0.000806	-0.002429	
43989	    0	8.326874	7.501750	-8.493659	-1.606008	-0.056268	-0.711069	0.083557	0.074036	-0.085510	0.999961	-0.008030	-0.000281	-0.003555	
43990	    0	9.263258	7.955436	-7.177851	-1.416034	0.035096	-1.049246	0.093034	0.078556	-0.072353	0.999961	-0.007080	0.000175	-0.005246	
43991	    0	11.206944	4.845138	-5.844637	-0.954257	0.074006	-1.331344	0.112366	0.047424	-0.058716	0.999966	-0.004771	0.000370	-0.006657	
43992	    0	12.773999	2.205593	-4.557676	-0.398640	0.087548	-1.508347	0.127881	0.021001	-0.045675	0.999969	-0.001993	0.000438	-0.007542	
43993	    0	13.316408	1.054284	-2.145875	-0.032807	0.036049	-1.619738	0.133240	0.009460	-0.021484	0.999967	-0.000164	0.000180	-0.008099	
43994	    0	13.386031	1.382053	-0.523796	0.036240	-0.056840	-1.627559	0.133968	0.012732	-0.005198	0.999967	0.000181	-0.000284	-0.008138	
43995	    0	13.393511	2.041028	-0.598822	-0.209620	-0.131990	-1.575487	0.134094	0.019348	-0.005920	0.999968	-0.001048	-0.000660	-0.007877	
43996	    0	13.280080	2.499099	-0.712442	-0.418667	-0.134660	-1.524369	0.132991	0.023963	-0.007086	0.999969	-0.002093	-0.000673	-0.007622	
43997	    0	12.974137	1.993487	-0.512174	-0.695617	-0.095368	-1.440445	0.129883	0.018982	-0.005127	0.999968	-0.003478	-0.000477	-0.007202	
43998	    0	12.573902	1.241136	-0.247158	-0.961696	-0.064088	-1.374833	0.125821	0.011535	-0.002488	0.999965	-0.004808	-0.000320	-0.006874	
43999	    0	11.981026	0.077928	-0.032776	-1.171127	-0.040246	-1.297777	0.119812	0.000000	-0.000305	0.999961	-0.005856	-0.000201	-0.006489	
44000	    0	11.423032	-1.346075	-0.265397	-1.433012	-0.023651	-1.224536	0.114145	-0.014178	-0.002541	0.999955	-0.007165	-0.000118	-0.006123	
44001	    0	10.958652	-2.557074	-0.527464	-1.604297	0.000000	-1.156635	0.109436	-0.026245	-0.005066	0.999950	-0.008021	0.000000	-0.005783	
44002	    0	10.627255	-3.541663	-0.872145	-1.715689	0.094034	-1.072902	0.106076	-0.036059	-0.008464	0.999949	-0.008578	0.000470	-0.005364	
44003	    0	10.488773	-4.072141	-1.036642	-1.776917	0.249676	-0.971239	0.104675	-0.041321	-0.010132	0.999948	-0.008884	0.001248	-0.004856	
44004	    0	10.168490	-4.935801	-0.754956	-1.787979	0.376708	-0.855079	0.101459	-0.049858	-0.007297	0.999949	-0.008940	0.001884	-0.004275	
44005	    0	9.648644	-5.891084	-0.789390	-1.630425	0.452620	-0.731669	0.096252	-0.059326	-0.007629	0.999957	-0.008152	0.002263	-0.003658	
44006	    0	9.108698	-6.716616	-0.961891	-1.245700	0.496869	-0.577169	0.090869	-0.067488	-0.009425	0.999973	-0.006228	0.002484	-0.002886	
44007	    0	8.580448	-6.930152	-0.852559	-0.757411	0.516512	-0.432589	0.085632	-0.069519	-0.008484	0.999987	-0.003787	0.002583	-0.002163	
44008	    0	8.265448	-6.445725	0.005159	-0.334740	0.545884	-0.308610	0.082555	-0.064585	-0.000066	0.999993	-0.001674	0.002729	-0.001543	
44009	    0	8.144045	-5.461945	0.944536	-0.032806	0.584603	-0.170899	0.081421	-0.054688	0.009216	0.999995	-0.000164	0.002923	-0.000854	
44010	    0	8.001076	-4.530771	1.846923	0.120163	0.569154	-0.054550	0.080050	-0.045341	0.018214	0.999995	0.000601	0.002846	-0.000273	
44011	    0	8.036979	-3.847459	2.105857	0.025940	0.598336	0.062561	0.080444	-0.038452	0.020813	0.999995	0.000130	0.002992	0.000313	
44012	    0	8.124105	-3.243163	2.086705	-0.176049	0.637056	0.196839	0.081339	-0.032333	0.020637	0.999993	-0.000880	0.003185	0.000984	
44013	    0	8.276423	-2.744279	2.217031	-0.369264	0.746348	0.288392	0.082886	-0.027283	0.021912	0.999990	-0.001846	0.003732	0.001442	
44014	    0	8.467500	-2.420704	2.061099	-0.504687	0.830082	0.364305	0.084804	-0.024001	0.020320	0.999986	-0.002523	0.004150	0.001822	
44015	    0	8.555098	-2.782574	1.855540	-0.580409	0.901799	0.431063	0.085693	-0.027588	0.018250	0.999983	-0.002902	0.004509	0.002155	
44016	    0	8.605043	-3.385547	1.550094	-0.530628	0.971037	0.497058	0.086208	-0.033601	0.015172	0.999981	-0.002653	0.004855	0.002485	
44017	    0	8.778488	-3.562109	1.229051	-0.369265	1.033217	0.590519	0.087952	-0.035339	0.011902	0.999980	-0.001846	0.005166	0.002953	
44018	    0	8.943221	-3.567052	0.973352	-0.197984	1.088722	0.686841	0.089605	-0.035354	0.009281	0.999978	-0.000990	0.005444	0.003434	
44019	    0	9.006548	-3.473206	1.185629	-0.108338	1.158342	0.804908	0.090271	-0.034363	0.011353	0.999974	-0.000542	0.005792	0.004025	
44020	    0	8.801123	-3.000291	1.445433	-0.021363	1.193821	0.918969	0.088232	-0.029596	0.013931	0.999971	-0.000107	0.005969	0.004595	
44021	    0	8.450592	-2.443169	1.418568	0.024605	1.206983	1.055157	0.084717	-0.023987	0.013672	0.999968	0.000123	0.006035	0.005276	
44022	    0	8.023606	-1.987980	1.164679	-0.058175	1.202216	1.179709	0.080420	-0.019403	0.011169	0.999964	-0.000291	0.006011	0.005898	
44023	    0	7.580141	-1.465607	0.598970	-0.132753	1.172844	1.297014	0.075928	-0.014160	0.005554	0.999961	-0.000664	0.005864	0.006485	
44024	    0	7.261704	-0.882595	-0.079409	-0.187495	1.062407	1.377505	0.072670	-0.008327	-0.001172	0.999961	-0.000937	0.005312	0.006887	
44025	    0	7.285966	-0.147477	-1.220391	-0.308040	0.851450	1.420610	0.072815	-0.000977	-0.012512	0.999964	-0.001540	0.004257	0.007103	
44026	    0	8.251935	0.468240	-2.756372	-0.497633	0.509458	1.433006	0.082413	0.005204	-0.027786	0.999968	-0.002488	0.002547	0.007165	
44027	    0	10.633925	0.315982	-4.527888	-0.624091	0.226023	1.441208	0.106262	0.003784	-0.045410	0.999969	-0.003120	0.001130	0.007206	
44028	    0	13.328845	-0.407077	-5.822686	-0.531774	0.136758	1.442542	0.133274	-0.003264	-0.058309	0.999969	-0.002659	0.000684	0.007213	
44029	    0	15.421438	-1.203715	-5.673340	-0.246241	0.214388	1.453413	0.154236	-0.010986	-0.056885	0.999971	-0.001231	0.001072	0.007267	
44030	    0	16.806446	-0.856429	-4.567247	0.206759	0.358204	1.480689	0.168039	-0.007273	-0.045981	0.999970	0.001034	0.001791	0.007403	
44031	    0	17.201095	-0.089743	-3.472792	0.485426	0.427251	1.512926	0.171936	0.000488	-0.035095	0.999966	0.002427	0.002136	0.007565	
44032	    0	16.496392	0.578625	-2.644650	0.429730	0.449758	1.499765	0.164854	0.007080	-0.026803	0.999967	0.002149	0.002249	0.007499	
44033	    0	15.186367	1.098406	-2.181708	0.351719	0.393109	1.480118	0.151733	0.012146	-0.022095	0.999969	0.001759	0.001966	0.007401	
44034	    0	13.842600	1.398312	-1.494483	0.372509	0.321010	1.416220	0.138298	0.014991	-0.015140	0.999971	0.001863	0.001605	0.007081	
44035	    0	12.686450	1.252171	-0.997886	0.422672	0.188638	1.299296	0.126770	0.013367	-0.010071	0.999976	0.002113	0.000943	0.006496	
44036	    0	11.768660	0.795936	-1.155296	0.500873	0.009728	1.169976	0.117637	0.008677	-0.011538	0.999979	0.002504	0.000049	0.005850	
44037	    0	11.297682	0.259156	-1.538032	0.634770	-0.198175	1.052863	0.112976	0.003235	-0.015259	0.999980	0.003174	-0.000991	0.005264	
44038	    0	11.331036	0.084308	-1.613071	0.855834	-0.354579	0.954635	0.113333	0.001452	-0.015924	0.999977	0.004279	-0.001773	0.004773	
44039	    0	11.545890	0.290019	-1.535040	1.062975	-0.445560	0.862892	0.115479	0.003479	-0.015076	0.999973	0.005315	-0.002228	0.004314	
44040	    0	11.492729	0.828729	-1.696491	1.191914	-0.537496	0.795944	0.114938	0.008844	-0.016604	0.999970	0.005960	-0.002687	0.003980	
44041	    0	11.016677	1.579729	-2.173231	1.226056	-0.602538	0.778206	0.110168	0.016357	-0.021301	0.999969	0.006130	-0.003013	0.003891	
44042	    0	10.456037	2.434814	-2.469371	1.223577	-0.661666	0.764092	0.104547	0.024897	-0.024197	0.999968	0.006118	-0.003308	0.003820	
44043	    0	10.097294	2.967899	-2.635341	1.197064	-0.704773	0.748451	0.100952	0.030212	-0.025818	0.999969	0.005985	-0.003524	0.003742	
44044	    0	9.909013	3.548678	-2.997271	1.170933	-0.740440	0.731094	0.099069	0.036022	-0.029396	0.999969	0.005855	-0.003702	0.003655	
44045	    0	9.700569	4.044849	-3.154274	1.154339	-0.747497	0.672919	0.096985	0.040955	-0.030945	0.999970	0.005772	-0.003737	0.003365	
44046	    0	9.240561	4.361803	-2.851941	1.096163	-0.737960	0.591474	0.092380	0.044045	-0.027938	0.999973	0.005481	-0.003690	0.002957	
44047	    0	8.357219	4.276474	-2.541118	0.955970	-0.726133	0.493625	0.083557	0.043091	-0.024902	0.999978	0.004780	-0.003631	0.002468	
44048	    0	7.325331	4.068226	-2.491892	0.808720	-0.729565	0.354387	0.073271	0.040912	-0.024487	0.999983	0.004044	-0.003648	0.001772	
44049	    0	6.464279	3.933478	-2.486667	0.788311	-0.730137	0.179292	0.064697	0.039490	-0.024475	0.999985	0.003942	-0.003651	0.000896	
44050	    0	6.111960	3.790095	-2.146371	0.846867	-0.750736	0.015068	0.061196	0.037995	-0.021073	0.999984	0.004234	-0.003754	0.000075	
44051	    0	6.188404	3.614320	-2.409076	0.786595	-0.861173	-0.138856	0.062012	0.036194	-0.023682	0.999982	0.003933	-0.004306	-0.000694	
44052	    0	6.159737	3.172796	-2.877931	0.566867	-1.029021	-0.268556	0.061787	0.031726	-0.028372	0.999981	0.002834	-0.005145	-0.001343	
44053	    0	6.006616	2.517296	-3.151344	0.239755	-1.180275	-0.415042	0.060303	0.025085	-0.031128	0.999979	0.001199	-0.005901	-0.002075	
44054	    0	6.033788	1.177117	-2.433148	0.045205	-1.292239	-0.557332	0.060526	0.011608	-0.023938	0.999975	0.000226	-0.006461	-0.002787	
44055	    0	6.279567	-0.291343	-1.237939	0.084687	-1.329625	-0.650793	0.062866	-0.003113	-0.011963	0.999972	0.000423	-0.006648	-0.003254	
44056	    0	6.796506	-1.237653	0.068474	0.159456	-1.318181	-0.711639	0.067914	-0.012619	0.001122	0.999971	0.000797	-0.006591	-0.003558	
44057	    0	7.490102	-1.222612	1.427039	0.138856	-1.196871	-0.737769	0.074768	-0.012512	0.014709	0.999974	0.000694	-0.005984	-0.003689	
44058	    0	8.193926	-1.550364	2.686586	0.289919	-0.981528	-0.727468	0.081749	-0.015841	0.027245	0.999980	0.001450	-0.004908	-0.003637	
44059	    0	8.967575	-3.758587	2.115295	0.300790	-0.730899	-0.636294	0.089478	-0.037903	0.021423	0.999987	0.001504	-0.003654	-0.003181	
44060	    0	9.499967	-6.452133	0.746963	0.140572	-0.545121	-0.456048	0.094831	-0.064743	0.007683	0.999993	0.000703	-0.002726	-0.002280	
44061	    0	9.787785	-8.422559	-0.359069	0.086975	-0.552941	-0.258637	0.097778	-0.084351	-0.003357	0.999995	0.000435	-0.002765	-0.001293	
44062	    0	9.896089	-9.347965	-0.725236	0.023460	-0.539971	-0.045013	0.098959	-0.093501	-0.006996	0.999996	0.000117	-0.002700	-0.000225	
44063	    0	9.841367	-9.804871	-0.267806	-0.365258	-0.489045	0.186158	0.098511	-0.097961	-0.002258	0.999994	-0.001826	-0.002445	0.000931	
44064	    0	9.525522	-8.649091	-0.776332	-1.000601	-0.548366	0.401118	0.095448	-0.086336	-0.007070	0.999981	-0.005003	-0.002742	0.002006	
44065	    0	8.580160	-5.932253	-0.892611	-1.365678	-0.798616	0.551612	0.085999	-0.059143	-0.008179	0.999965	-0.006828	-0.003993	0.002758	
44066	    0	7.297929	-2.901202	-1.582957	-1.271836	-1.050581	0.603684	0.073148	-0.028890	-0.015262	0.999961	-0.006359	-0.005253	0.003018	
44067	    0	5.833464	-0.328681	-2.377034	-0.830849	-1.093111	0.512700	0.058472	-0.003235	-0.023438	0.999972	-0.004154	-0.005466	0.002563	
44068	    0	4.755499	1.248255	-2.503274	-0.218774	-0.897602	0.323106	0.047647	0.012532	-0.024833	0.999988	-0.001094	-0.004488	0.001616	
44069	    0	4.449622	2.138000	-2.589540	0.202942	-0.524712	0.077057	0.044556	0.021423	-0.025757	0.999995	0.001015	-0.002624	0.000385	
44070	    0	4.011534	2.907226	-1.377088	0.407410	-0.369263	-0.226593	0.040174	0.029055	-0.013638	0.999995	0.002037	-0.001846	-0.001133	
44071	    0	4.812146	3.044406	-6.348480	1.009383	-1.412029	-0.508125	0.048645	0.030640	-0.062988	0.999959	0.005047	-0.007060	-0.002541	
44072	    0	10.478278	5.435553	-5.203092	1.393525	-0.331692	-0.816354	0.105090	0.054287	-0.051478	0.999966	0.006968	-0.001658	-0.004082	
44073	    0	16.991321	1.544587	2.668336	2.262938	0.423633	-1.015499	0.170044	0.014282	0.026489	0.999921	0.011314	0.002118	-0.005077	
44074	    0	21.386436	-5.725679	2.651678	1.998375	0.622382	-1.042199	0.213641	-0.058627	0.025270	0.999931	0.009992	0.003112	-0.005211	
44075	    0	20.017154	-4.162241	-0.347364	0.400545	0.775341	-0.682834	0.200012	-0.042297	-0.004333	0.999984	0.002003	0.003877	-0.003414	
44076	    0	15.121651	6.047420	-2.757300	-0.475122	0.531771	-0.538637	0.151304	0.060000	-0.028118	0.999990	-0.002376	0.002659	-0.002693	
44077	    0	10.039718	14.641225	-3.555866	-1.006322	0.164987	-0.466158	0.100708	0.145996	-0.036377	0.999984	-0.005032	0.000825	-0.002331	
44078	    0	7.557266	15.091702	-5.865887	-1.013761	-0.218011	-0.479701	0.075998	0.150435	-0.059340	0.999983	-0.005069	-0.001090	-0.002398	
44079	    0	8.234637	9.007574	-8.522571	-0.616267	-0.423433	-0.663760	0.082825	0.089539	-0.085327	0.999987	-0.003081	-0.002117	-0.003319	
44080	    0	9.730278	4.334272	-9.400528	-0.980576	-0.505451	-0.805289	0.097713	0.042489	-0.093968	0.999976	-0.004903	-0.002527	-0.004026	
44081	    0	10.149294	6.138711	-9.666804	-1.332871	-0.411039	-0.982678	0.101990	0.060242	-0.096863	0.999963	-0.006664	-0.002055	-0.004913	
44082	    0	11.016521	8.223456	-8.790408	-1.400205	-0.163081	-1.206988	0.110728	0.080950	-0.088384	0.999956	-0.007001	-0.000815	-0.006035	
44083	    0	12.958264	7.040433	-6.769627	-1.138131	0.035859	-1.425191	0.130066	0.069092	-0.068115	0.999958	-0.005691	0.000179	-0.007126	
44084	    0	14.595592	4.466845	-4.916508	-0.634773	0.126459	-1.571293	0.146269	0.043364	-0.049397	0.999964	-0.003174	0.000632	-0.007856	
44085	    0	14.979834	2.308232	-2.523335	-0.251010	0.172617	-1.682302	0.149963	0.021790	-0.025391	0.999963	-0.001255	0.000863	-0.008411	
44086	    0	14.658226	1.779755	-0.583941	-0.188639	0.108148	-1.729796	0.146726	0.016523	-0.005935	0.999962	-0.000943	0.000541	-0.008649	
44087	    0	14.369907	1.942272	0.292612	-0.309757	0.039864	-1.722739	0.143860	0.018188	0.002869	0.999961	-0.001549	0.000199	-0.008614	
44088	    0	14.132673	1.504156	-0.280485	-0.671014	-0.024605	-1.656745	0.141445	0.013861	-0.002835	0.999960	-0.003355	-0.000123	-0.008284	
44089	    0	14.036225	1.025532	-1.636808	-0.992598	-0.082208	-1.538107	0.140442	0.009094	-0.016357	0.999957	-0.004963	-0.000411	-0.007690	
44090	    0	13.964810	0.611695	-2.224640	-1.234073	-0.065232	-1.412222	0.139693	0.004993	-0.022234	0.999955	-0.006170	-0.000326	-0.007061	
44091	    0	13.725894	0.181760	-1.862061	-1.422141	-0.018883	-1.299306	0.137268	0.000793	-0.018616	0.999953	-0.007111	-0.000094	-0.006496	
44092	    0	13.173784	-0.642705	-1.302800	-1.651983	-0.014496	-1.198026	0.131697	-0.007323	-0.012960	0.999948	-0.008260	-0.000072	-0.005990	
44093	    0	12.527084	-1.536144	-1.375301	-1.865996	0.009918	-1.094839	0.125183	-0.016174	-0.013611	0.999941	-0.009330	0.000050	-0.005474	
44094	    0	11.586077	-2.613425	-1.624741	-1.958315	0.037576	-1.021597	0.115722	-0.026883	-0.016008	0.999939	-0.009791	0.000188	-0.005108	
44095	    0	10.534540	-3.617807	-1.905843	-1.980440	0.080110	-0.951405	0.105164	-0.036865	-0.018738	0.999939	-0.009902	0.000401	-0.004757	
44096	    0	9.530849	-4.330642	-2.124116	-1.864657	0.115015	-0.874916	0.095105	-0.043919	-0.020888	0.999947	-0.009323	0.000575	-0.004375	
44097	    0	8.950157	-4.718486	-2.248745	-1.667619	0.144961	-0.803387	0.089294	-0.047729	-0.022156	0.999956	-0.008338	0.000725	-0.004017	
44098	    0	8.682581	-4.946180	-2.104306	-1.360335	0.212862	-0.751694	0.086617	-0.049930	-0.020797	0.999969	-0.006802	0.001064	-0.003758	
44099	    0	8.729321	-4.868857	-1.676393	-0.979621	0.317576	-0.692753	0.087097	-0.049072	-0.016663	0.999980	-0.004898	0.001588	-0.003464	
44100	    0	8.576092	-4.393312	-1.064649	-0.645640	0.373460	-0.605013	0.085608	-0.044227	-0.010664	0.999988	-0.003228	0.001867	-0.003025	
44101	    0	8.494986	-3.901142	-0.265533	-0.340844	0.372315	-0.540925	0.084839	-0.039246	-0.002747	0.999992	-0.001704	0.001862	-0.002705	
44102	    0	8.350466	-3.808167	0.800757	-0.160408	0.406075	-0.473405	0.083430	-0.038273	0.007869	0.999994	-0.000802	0.002030	-0.002367	
44103	    0	8.011902	-3.800439	1.648894	-0.116730	0.383950	-0.379944	0.080078	-0.038147	0.016357	0.999995	-0.000584	0.001920	-0.001900	
44104	    0	7.864761	-3.735061	1.811303	-0.233078	0.350762	-0.286484	0.078626	-0.037442	0.018019	0.999996	-0.001165	0.001754	-0.001432	
44105	    0	7.769776	-3.689103	1.674052	-0.387574	0.384713	-0.173950	0.077698	-0.036926	0.016663	0.999995	-0.001938	0.001924	-0.000870	
44106	    0	7.750342	-3.575095	1.375178	-0.436593	0.469018	-0.063324	0.077524	-0.035746	0.013648	0.999994	-0.002183	0.002345	-0.000317	
44107	    0	7.776792	-3.527070	1.473470	-0.437928	0.576974	0.054932	0.077820	-0.035217	0.014587	0.999993	-0.002190	0.002885	0.000275	
44108	    0	7.777352	-3.600155	1.958918	-0.450517	0.704767	0.162697	0.077871	-0.035894	0.019396	0.999990	-0.002253	0.003524	0.000813	
44109	    0	7.694441	-3.842300	2.232548	-0.426485	0.811198	0.276948	0.077087	-0.038269	0.022095	0.999988	-0.002132	0.004056	0.001385	
44110	    0	7.688060	-4.315292	1.993049	-0.427439	0.919156	0.388529	0.077055	-0.042961	0.019669	0.999985	-0.002137	0.004596	0.001943	
44111	    0	7.774443	-4.734993	1.513196	-0.381472	1.002699	0.519565	0.077942	-0.047119	0.014832	0.999982	-0.001907	0.005013	0.002598	
44112	    0	8.002039	-4.803409	0.969900	-0.299837	1.045425	0.660329	0.080228	-0.047755	0.009352	0.999979	-0.001499	0.005227	0.003302	
44113	    0	8.176503	-4.488417	0.541951	-0.187685	1.114854	0.790412	0.081970	-0.044556	0.005005	0.999976	-0.000938	0.005574	0.003952	
44114	    0	8.122705	-3.971221	0.129788	-0.106240	1.188480	0.909051	0.081412	-0.039342	0.000835	0.999971	-0.000531	0.005942	0.004545	
44115	    0	7.710900	-3.323165	-0.088687	-0.095178	1.221479	1.023876	0.077271	-0.032837	-0.001343	0.999968	-0.000476	0.006107	0.005119	
44116	    0	7.069564	-2.620571	0.097088	-0.000763	1.226248	1.109136	0.070844	-0.025813	0.000537	0.999966	-0.000004	0.006131	0.005546	
44117	    0	6.448426	-2.045824	0.599553	0.069619	1.155866	1.175703	0.064636	-0.020081	0.005615	0.999966	0.000348	0.005779	0.005878	
44118	    0	6.319350	-1.601921	0.811781	0.013161	1.118291	1.217284	0.063334	-0.015635	0.007763	0.999966	0.000066	0.005591	0.006086	
44119	    0	6.623643	-1.000127	0.920053	-0.081445	1.068890	1.251998	0.066345	-0.009583	0.008850	0.999966	-0.000407	0.005344	0.006260	
44120	    0	7.142915	-0.464971	0.626403	-0.068284	1.056492	1.263442	0.071488	-0.004196	0.005888	0.999966	-0.000341	0.005282	0.006317	
44121	    0	7.499470	0.288055	-0.431922	-0.039673	1.013386	1.273360	0.074951	0.003357	-0.004700	0.999967	-0.000198	0.005067	0.006367	
44122	    0	7.902356	1.129340	-1.168060	0.038147	0.853738	1.325621	0.078896	0.011819	-0.012015	0.999969	0.000191	0.004269	0.006628	
44123	    0	9.557797	1.589052	-3.214498	0.000000	0.426678	1.361858	0.095398	0.016541	-0.032349	0.999974	0.000000	0.002133	0.006809	
44124	    0	12.932938	0.687832	-6.109912	-0.167657	-0.015640	1.353084	0.129284	0.007702	-0.061095	0.999976	-0.000838	-0.000078	0.006765	
44125	    0	16.601388	-0.377960	-8.163407	-0.192262	-0.253107	1.338206	0.166138	-0.002747	-0.081421	0.999976	-0.000961	-0.001266	0.006691	
44126	    0	19.365109	-1.364150	-8.110439	0.050927	-0.155069	1.333437	0.193799	-0.012329	-0.080957	0.999977	0.000255	-0.000775	0.006667	
44127	    0	20.648652	-1.650295	-5.800072	0.598913	0.174906	1.390852	0.206543	-0.014893	-0.058228	0.999970	0.002995	0.000875	0.006954	
44128	    0	19.907307	-1.147026	-2.867769	1.091974	0.411994	1.537156	0.199093	-0.009782	-0.029144	0.999953	0.005460	0.002060	0.007686	
44129	    0	17.849417	-0.076001	-1.177528	1.366452	0.417527	1.648745	0.178467	0.000793	-0.012146	0.999940	0.006832	0.002088	0.008244	
44130	    0	15.249769	1.230149	-0.704492	1.544986	0.334938	1.661909	0.152376	0.013623	-0.007198	0.999934	0.007725	0.001675	0.008309	
44131	    0	12.872655	2.194103	-0.784278	1.635968	0.241094	1.563297	0.128540	0.023010	-0.007812	0.999935	0.008180	0.001205	0.007816	
44132	    0	10.845007	2.628963	-0.932442	1.624521	0.120547	1.457625	0.108249	0.027154	-0.009171	0.999940	0.008122	0.000603	0.007288	
44133	    0	9.697553	2.595098	-1.011210	1.574926	-0.033570	1.327538	0.096802	0.026672	-0.009888	0.999947	0.007874	-0.000168	0.006638	
44134	    0	9.756154	2.330208	-0.979996	1.565959	-0.201801	1.180096	0.097431	0.023952	-0.009516	0.999951	0.007830	-0.001009	0.005900	
44135	    0	10.734242	2.184338	-0.738652	1.548218	-0.363928	1.048295	0.107239	0.022461	-0.007019	0.999954	0.007741	-0.001820	0.005241	
44136	    0	11.802629	2.467050	-0.720578	1.447315	-0.463301	0.945485	0.117924	0.025278	-0.006751	0.999960	0.007236	-0.002316	0.004727	
44137	    0	12.134199	3.297845	-0.825163	1.284805	-0.572020	0.891124	0.121216	0.033569	-0.007690	0.999965	0.006424	-0.002860	0.004456	
44138	    0	11.892963	4.245609	-1.329085	1.091968	-0.679214	0.861749	0.118789	0.043038	-0.012653	0.999969	0.005460	-0.003396	0.004309	
44139	    0	11.451668	5.002276	-2.032492	0.879105	-0.786598	0.852974	0.114380	0.050598	-0.019653	0.999973	0.004395	-0.003933	0.004265	
44140	    0	10.964950	5.413947	-2.617844	0.718313	-0.850875	0.845535	0.109529	0.054695	-0.025517	0.999975	0.003592	-0.004254	0.004228	
44141	    0	10.427756	5.288294	-2.980081	0.592809	-0.898559	0.836188	0.104187	0.053406	-0.029175	0.999976	0.002964	-0.004493	0.004181	
44142	    0	9.714036	5.103583	-3.213102	0.473598	-0.892455	0.790029	0.097079	0.051495	-0.031576	0.999979	0.002368	-0.004462	0.003950	
44143	    0	8.792445	4.900736	-3.299842	0.380900	-0.848393	0.700382	0.087891	0.049377	-0.032532	0.999983	0.001904	-0.004242	0.003502	
44144	    0	7.647139	4.778483	-3.480552	0.211907	-0.760654	0.572588	0.076466	0.048040	-0.034464	0.999988	0.001060	-0.003803	0.002863	
44145	    0	6.625883	4.784570	-3.343785	0.009155	-0.701715	0.381471	0.066284	0.047974	-0.033203	0.999991	0.000046	-0.003509	0.001907	
44146	    0	6.116541	4.574738	-2.510891	-0.077439	-0.708009	0.151253	0.061219	0.045784	-0.024910	0.999993	-0.000387	-0.003540	0.000756	
44147	    0	5.817060	4.053951	-2.685033	-0.004578	-0.823786	-0.039673	0.058289	0.040527	-0.026611	0.999991	-0.000023	-0.004119	-0.000198	
44148	    0	5.623975	3.295377	-3.189820	0.168610	-0.983242	-0.208283	0.056430	0.032922	-0.031593	0.999987	0.000843	-0.004916	-0.001041	
44149	    0	5.517557	2.537551	-3.429842	0.360110	-1.146515	-0.387576	0.055420	0.025330	-0.033936	0.999980	0.001801	-0.005733	-0.001938	
44150	    0	5.804331	1.494000	-2.896766	0.398258	-1.313412	-0.559240	0.058273	0.014834	-0.028556	0.999972	0.001991	-0.006567	-0.002796	
44151	    0	6.536528	-0.156282	-2.002610	0.093842	-1.328099	-0.661475	0.065491	-0.001770	-0.019592	0.999972	0.000469	-0.006640	-0.003307	
44152	    0	7.273690	-1.600737	-0.692352	-0.418666	-1.057823	-0.625424	0.072721	-0.016249	-0.006505	0.999978	-0.002093	-0.005289	-0.003127	
44153	    0	8.013170	-2.643396	1.000313	-0.689511	-0.855260	-0.531772	0.080017	-0.026611	0.010437	0.999981	-0.003448	-0.004276	-0.002659	
44154	    0	8.976750	-4.592480	1.981350	-0.406076	-0.829891	-0.383379	0.089596	-0.046056	0.020279	0.999987	-0.002030	-0.004149	-0.001917	
44155	    0	9.938964	-8.332789	1.357204	0.021553	-0.833895	-0.212861	0.099243	-0.083435	0.013977	0.999990	0.000108	-0.004169	-0.001064	
44156	    0	10.350441	-11.531648	-0.207990	0.303842	-0.850680	-0.012779	0.103505	-0.115320	-0.001815	0.999990	0.001519	-0.004253	-0.000064	
44157	    0	10.502118	-12.463019	-0.426154	0.539591	-0.734713	0.203706	0.105164	-0.124512	-0.004211	0.999989	0.002698	-0.003674	0.001019	
44158	    0	10.089872	-11.236442	-0.261083	0.208283	-0.651552	0.403787	0.101133	-0.112158	-0.002398	0.999991	0.001041	-0.003258	0.002019	
44159	    0	9.124145	-8.430564	-0.209777	-0.476077	-0.813107	0.578311	0.091492	-0.084045	-0.001526	0.999984	-0.002380	-0.004066	0.002892	
44160	    0	7.845577	-4.557649	-0.862159	-1.003467	-1.008235	0.700386	0.078656	-0.045342	-0.007998	0.999969	-0.005017	-0.005041	0.003502	
44161	    0	6.542516	-0.749977	-0.877370	-0.907143	-0.969514	0.654608	0.065491	-0.007324	-0.008423	0.999972	-0.004536	-0.004848	0.003273	
44162	    0	5.184563	1.617867	-0.934236	-0.456812	-0.677302	0.480463	0.051838	0.016282	-0.009204	0.999989	-0.002284	-0.003386	0.002402	
44163	    0	4.158714	3.302722	-1.064005	0.034332	-0.362206	0.250244	0.041565	0.033081	-0.010559	0.999997	0.000172	-0.001811	0.001251	
44164	    0	3.043808	4.108323	1.296704	0.195503	-0.338364	-0.034714	0.030423	0.041065	0.013059	0.999997	0.000978	-0.001692	-0.000174	
44165	    0	2.443968	5.033766	-5.150765	0.465398	-1.470009	-0.339512	0.024902	0.050415	-0.051208	0.999969	0.002327	-0.007350	-0.001698	
44166	    0	3.502983	10.007449	-7.871546	0.533107	-0.647548	-0.678447	0.035624	0.100163	-0.078334	0.999985	0.002666	-0.003238	-0.003392	
44167	    0	4.067058	9.948743	-5.929012	0.842291	-0.458339	-0.912482	0.041260	0.099548	-0.058777	0.999978	0.004211	-0.002292	-0.004562	
44168	    0	7.491562	8.192769	-1.518718	1.107610	-0.404363	-1.176657	0.075426	0.081567	-0.014583	0.999965	0.005538	-0.002022	-0.005883	
44169	    0	14.628440	2.885317	6.596871	1.389335	-0.333219	-1.350425	0.146362	0.027405	0.066406	0.999951	0.006947	-0.001666	-0.006752	
44170	    0	22.132450	-7.877308	1.840846	0.955022	-0.402647	-1.441021	0.220712	-0.080453	0.018472	0.999960	0.004775	-0.002013	-0.007205	
44171	    0	25.143418	-11.329475	-4.465848	0.314524	0.164033	-1.164253	0.250732	-0.114685	-0.045044	0.999981	0.001573	0.000820	-0.005821	
44172	    0	22.687877	0.101072	-4.117443	0.050736	0.552179	-0.734904	0.226766	0.000188	-0.041800	0.999989	0.000254	0.002761	-0.003675	
44173	    0	15.837315	12.242780	-3.567955	-0.662043	0.370027	-0.531008	0.158630	0.121887	-0.036377	0.999989	-0.003310	0.001850	-0.002655	
44174	    0	10.672685	14.875007	-2.786352	-0.895695	0.003052	-0.516703	0.107110	0.148347	-0.028530	0.999986	-0.004478	0.000015	-0.002584	
44175	    0	8.945057	4.786498	-8.282696	-0.642207	-0.344850	-0.798039	0.089783	0.047241	-0.082825	0.999985	-0.003211	-0.001724	-0.003990	
44176	    0	8.222836	-1.910276	-9.099025	-0.865561	-0.380519	-0.932128	0.082310	-0.019879	-0.090749	0.999977	-0.004328	-0.001903	-0.004661	
44177	    0	7.834547	3.889707	-9.336366	-1.081858	-0.321010	-0.933846	0.078674	0.038025	-0.093445	0.999972	-0.005409	-0.001605	-0.004669	
44178	    0	8.702810	10.159310	-9.509604	-1.048289	-0.102998	-1.090060	0.087627	0.100616	-0.095580	0.999970	-0.005241	-0.000515	-0.005450	
44179	    0	10.706539	9.553719	-7.581381	-0.987828	0.135805	-1.376359	0.107666	0.094421	-0.076355	0.999964	-0.004939	0.000679	-0.006882	
44180	    0	12.068954	4.111745	-5.593322	-0.935187	0.255970	-1.605630	0.120941	0.039885	-0.056276	0.999955	-0.004676	0.001280	-0.008028	
44181	    0	12.948530	-0.526700	-3.822492	-0.759708	0.198367	-1.728084	0.129395	-0.006531	-0.038330	0.999954	-0.003798	0.000992	-0.008640	
44182	    0	13.444658	-1.287763	-1.268909	-0.241855	0.083543	-1.742767	0.134322	-0.014064	-0.012729	0.999961	-0.001209	0.000418	-0.008714	
44183	    0	13.879684	0.810860	1.064592	0.094033	-0.045777	-1.650257	0.138855	0.006958	0.010681	0.999966	0.000470	-0.000229	-0.008251	
44184	    0	14.288352	2.553931	1.584176	-0.120736	-0.192644	-1.504531	0.143055	0.024473	0.015965	0.999970	-0.000604	-0.000963	-0.007523	
44185	    0	14.226784	2.881190	0.702980	-0.567442	-0.268557	-1.404585	0.142456	0.027832	0.007141	0.999969	-0.002837	-0.001343	-0.007023	
44186	    0	13.507955	2.303319	0.645992	-0.997173	-0.271991	-1.299682	0.135217	0.022187	0.006532	0.999965	-0.004986	-0.001360	-0.006498	
44187	    0	12.933613	1.129447	0.616289	-1.351757	-0.209811	-1.201646	0.129395	0.010559	0.006226	0.999958	-0.006759	-0.001049	-0.006008	
44188	    0	12.642669	-0.052126	-0.278430	-1.568819	-0.066758	-1.125162	0.126422	-0.001254	-0.002734	0.999953	-0.007844	-0.000334	-0.005626	
44189	    0	12.104907	-1.254647	-1.261662	-1.677732	0.109293	-1.080340	0.120972	-0.013306	-0.012573	0.999949	-0.008389	0.000546	-0.005402	
44190	    0	11.144982	-2.610163	-2.240708	-1.676396	0.237087	-1.045054	0.111284	-0.026871	-0.022316	0.999950	-0.008382	0.001185	-0.005225	
44191	    0	10.218222	-4.131154	-2.898683	-1.512167	0.270275	-1.026168	0.101929	-0.042053	-0.028809	0.999957	-0.007561	0.001351	-0.005131	
44192	    0	9.473967	-5.695585	-2.734087	-1.229490	0.272182	-0.987063	0.094419	-0.057590	-0.027117	0.999968	-0.006147	0.001361	-0.004935	
44193	    0	9.223509	-6.289086	-2.409619	-0.903327	0.250437	-0.904853	0.091919	-0.063416	-0.023926	0.999978	-0.004517	0.001252	-0.004524	
44194	    0	9.237134	-5.726323	-1.584581	-0.604632	0.276948	-0.806812	0.092117	-0.057683	-0.015800	0.999986	-0.003023	0.001385	-0.004034	
44195	    0	9.281959	-4.525582	-0.550932	-0.346948	0.267030	-0.707247	0.092651	-0.045593	-0.005554	0.999990	-0.001735	0.001335	-0.003536	
44196	    0	9.134369	-3.498608	0.483671	-0.232888	0.262452	-0.614930	0.091242	-0.035261	0.004758	0.999993	-0.001164	0.001312	-0.003075	
44197	    0	8.868758	-3.067597	0.929028	-0.222779	0.244332	-0.492097	0.088623	-0.030884	0.009216	0.999995	-0.001114	0.001222	-0.002460	
44198	    0	8.551870	-3.382107	1.003229	-0.264931	0.278282	-0.367928	0.085470	-0.033965	0.009958	0.999996	-0.001325	0.001391	-0.001840	
44199	    0	8.516847	-3.751983	0.882434	-0.329400	0.371552	-0.216675	0.085144	-0.037598	0.008728	0.999996	-0.001647	0.001858	-0.001083	
44200	    0	8.663334	-3.732063	1.090166	-0.354577	0.485612	-0.051880	0.086650	-0.037324	0.010757	0.999995	-0.001773	0.002428	-0.000259	
44201	    0	8.787820	-3.902396	1.703522	-0.392915	0.605203	0.114441	0.087952	-0.038940	0.016846	0.999993	-0.001965	0.003026	0.000572	
44202	    0	8.635283	-4.277174	2.169650	-0.431825	0.725939	0.283814	0.086492	-0.042603	0.021475	0.999990	-0.002159	0.003630	0.001419	
44203	    0	8.337284	-4.570342	2.128472	-0.470545	0.801853	0.437166	0.083557	-0.045471	0.021057	0.999987	-0.002353	0.004009	0.002186	
44204	    0	8.124869	-4.624265	1.685965	-0.436213	0.852971	0.587657	0.081455	-0.045967	0.016613	0.999984	-0.002181	0.004265	0.002938	
44205	    0	8.260084	-4.463654	1.402844	-0.436404	0.948531	0.712590	0.082825	-0.044312	0.013733	0.999980	-0.002182	0.004743	0.003563	
44206	    0	8.564305	-4.175438	1.401961	-0.393489	1.080903	0.803000	0.085884	-0.041383	0.013638	0.999975	-0.001967	0.005404	0.004015	
44207	    0	8.904505	-3.807899	1.366035	-0.326541	1.207173	0.893411	0.089294	-0.037659	0.013184	0.999970	-0.001633	0.006036	0.004467	
44208	    0	9.062284	-3.293587	1.357686	-0.255015	1.321426	0.985538	0.090871	-0.032472	0.013019	0.999965	-0.001275	0.006607	0.004928	
44209	    0	8.734292	-2.637260	1.491877	-0.220302	1.380939	1.091781	0.087585	-0.025879	0.014343	0.999960	-0.001101	0.006905	0.005459	
44210	    0	8.196776	-1.961059	1.219043	-0.212482	1.354618	1.182572	0.082162	-0.019113	0.011655	0.999959	-0.001062	0.006773	0.005913	
44211	    0	7.609898	-1.324842	0.829487	-0.241092	1.307124	1.266497	0.076233	-0.012756	0.007812	0.999957	-0.001205	0.006536	0.006332	
44212	    0	7.145589	-0.921521	0.567959	-0.262646	1.236742	1.331920	0.071548	-0.008732	0.005249	0.999957	-0.001313	0.006184	0.006660	
44213	    0	6.941868	-0.590722	0.045311	-0.369840	1.158921	1.367207	0.069458	-0.005432	0.000061	0.999958	-0.001849	0.005795	0.006836	
44214	    0	6.973867	-0.143483	-0.233830	-0.388914	1.141565	1.427290	0.069732	-0.000942	-0.002734	0.999956	-0.001945	0.005708	0.007136	
44215	    0	7.166928	0.272455	-0.924288	-0.397497	1.101892	1.477836	0.071594	0.003235	-0.009644	0.999955	-0.001987	0.005509	0.007389	
44216	    0	7.740194	0.665472	-2.476886	-0.370603	0.879300	1.536390	0.077238	0.007202	-0.025122	0.999959	-0.001853	0.004396	0.007682	
44217	    0	9.915935	0.549899	-3.968884	-0.316624	0.564773	1.594563	0.098999	0.006226	-0.039978	0.999963	-0.001583	0.002824	0.007973	
44218	    0	13.378217	0.433979	-5.597251	-0.134088	0.293926	1.604670	0.133659	0.005375	-0.056172	0.999966	-0.000670	0.001470	0.008023	
44219	    0	16.273493	-0.280757	-6.724886	-0.095178	0.090791	1.539627	0.162720	-0.001587	-0.067322	0.999969	-0.000476	0.000454	0.007698	
44220	    0	17.913734	-1.113598	-7.053831	-0.064278	0.056077	1.479353	0.179193	-0.009833	-0.070585	0.999972	-0.000321	0.000280	0.007397	
44221	    0	18.144040	-1.676815	-6.101481	0.126649	0.145914	1.553361	0.181519	-0.015320	-0.061157	0.999969	0.000633	0.000730	0.007767	
44222	    0	17.472496	-1.553864	-4.442738	0.421529	0.222018	1.648923	0.174795	-0.014004	-0.044652	0.999963	0.002108	0.001110	0.008245	
44223	    0	16.347395	-1.010925	-3.255339	0.691233	0.233654	1.700616	0.163513	-0.008606	-0.032776	0.999957	0.003456	0.001168	0.008503	
44224	    0	14.824115	-0.115140	-2.477120	0.883688	0.217822	1.640725	0.148216	0.000175	-0.024934	0.999955	0.004418	0.001089	0.008204	
44225	    0	13.129610	0.607770	-2.006315	1.064316	0.174906	1.550316	0.131226	0.007202	-0.020142	0.999955	0.005322	0.000875	0.007751	
44226	    0	11.377174	1.095223	-1.179556	1.330206	0.105669	1.433395	0.113683	0.011846	-0.011779	0.999951	0.006651	0.000528	0.007167	
44227	    0	9.975315	1.205050	-0.595940	1.573400	-0.003052	1.322960	0.099670	0.012756	-0.005859	0.999947	0.007867	-0.000015	0.006615	
44228	    0	9.459699	1.143007	-0.459830	1.698907	-0.175861	1.228164	0.094528	0.012049	-0.004415	0.999944	0.008494	-0.000879	0.006141	
44229	    0	9.674391	1.270686	-0.648495	1.662474	-0.311094	1.129933	0.096680	0.013306	-0.006226	0.999948	0.008312	-0.001555	0.005650	
44230	    0	9.993647	1.694967	-0.613205	1.545930	-0.396162	1.048485	0.099857	0.017519	-0.005800	0.999954	0.007730	-0.001981	0.005242	
44231	    0	10.086306	2.100076	-0.587717	1.442166	-0.456244	1.000227	0.100769	0.021545	-0.005493	0.999958	0.007211	-0.002281	0.005001	
44232	    0	9.922428	2.659759	-0.929450	1.339548	-0.537879	0.987256	0.099115	0.027147	-0.008847	0.999961	0.006698	-0.002689	0.004936	
44233	    0	9.723543	3.428723	-1.371216	1.272790	-0.634011	0.985730	0.097107	0.034851	-0.013184	0.999962	0.006364	-0.003170	0.004929	
44234	    0	9.640108	4.117492	-1.761894	1.233498	-0.716981	0.975621	0.096260	0.041751	-0.017017	0.999962	0.006167	-0.003585	0.004878	
44235	    0	9.693916	4.569154	-2.054863	1.150717	-0.797281	0.944530	0.096802	0.046265	-0.019897	0.999964	0.005754	-0.003986	0.004723	
44236	    0	9.664536	4.679871	-2.345819	1.047337	-0.840768	0.907717	0.096528	0.047358	-0.022805	0.999967	0.005237	-0.004204	0.004539	
44237	    0	9.285142	4.556816	-2.698184	0.938425	-0.860413	0.837716	0.092773	0.046082	-0.026367	0.999970	0.004692	-0.004302	0.004189	
44238	    0	8.632976	4.408031	-3.149255	0.779349	-0.855262	0.747496	0.086297	0.044524	-0.030951	0.999976	0.003897	-0.004276	0.003737	
44239	    0	7.713603	4.190378	-3.401321	0.605777	-0.819974	0.597385	0.077148	0.042236	-0.033569	0.999982	0.003029	-0.004100	0.002987	
44240	    0	6.943683	4.104120	-3.509535	0.347139	-0.766566	0.416566	0.069485	0.041246	-0.034758	0.999989	0.001736	-0.003833	0.002083	
44241	    0	6.352911	4.086691	-3.029520	0.144196	-0.743677	0.207520	0.063599	0.040955	-0.030029	0.999991	0.000721	-0.003718	0.001038	
44242	    0	6.029010	3.919511	-2.421611	0.110436	-0.830271	-0.003052	0.060390	0.039207	-0.023944	0.999990	0.000552	-0.004151	-0.000015	
44243	    0	5.951549	3.678297	-2.888134	0.123787	-0.986485	-0.193025	0.059692	0.036743	-0.028564	0.999987	0.000619	-0.004932	-0.000965	
44244	    0	5.962756	3.216995	-2.749307	0.100518	-1.189049	-0.398829	0.059854	0.032064	-0.027122	0.999980	0.000503	-0.005945	-0.001994	
44245	    0	6.452845	1.972782	-1.690426	-0.021172	-1.320660	-0.602727	0.064697	0.019531	-0.016479	0.999973	-0.000106	-0.006603	-0.003014	
44246	    0	7.079941	0.410579	0.115008	0.040627	-1.177797	-0.740629	0.070806	0.003843	0.001568	0.999975	0.000203	-0.005889	-0.003703	
44247	    0	8.119976	-1.367012	1.752265	-0.031090	-1.034553	-0.763708	0.081055	-0.013977	0.017944	0.999979	-0.000155	-0.005173	-0.003819	
44248	    0	9.156603	-3.283171	2.851045	-0.181199	-0.906186	-0.704960	0.091319	-0.033128	0.028955	0.999983	-0.000906	-0.004531	-0.003525	
44249	    0	10.103756	-5.980084	2.374802	-0.176049	-0.852970	-0.553134	0.100769	-0.060059	0.024231	0.999987	-0.000880	-0.004265	-0.002766	
44250	    0	11.134836	-9.313364	0.486045	-0.021553	-0.768092	-0.354768	0.111163	-0.093330	0.005298	0.999990	-0.000108	-0.003840	-0.001774	
44251	    0	12.020027	-11.708155	-0.640772	0.060463	-0.768282	-0.077820	0.120178	-0.117126	-0.005981	0.999992	0.000302	-0.003841	-0.000389	
44252	    0	12.603067	-12.585490	-0.743317	0.025559	-0.618554	0.244141	0.126206	-0.125700	-0.007059	0.999994	0.000128	-0.003093	0.001221	
44253	    0	12.038688	-11.621671	-0.940516	-0.307466	-0.624659	0.538637	0.120728	-0.115906	-0.008850	0.999990	-0.001537	-0.003123	0.002693	
44254	    0	10.657602	-8.895564	-1.511507	-0.874718	-0.896843	0.766570	0.106981	-0.088610	-0.014248	0.999972	-0.004374	-0.004484	0.003833	
44255	    0	8.684475	-4.680816	-2.093399	-1.293202	-1.127451	0.850690	0.087158	-0.046570	-0.020142	0.999953	-0.006466	-0.005637	0.004253	
44256	    0	6.898238	-0.126274	-2.054865	-1.056875	-1.160827	0.702676	0.069104	-0.001127	-0.020142	0.999963	-0.005284	-0.005804	0.003513	
44257	    0	5.497896	2.664315	-1.667074	-0.324060	-0.852970	0.425722	0.054993	0.026733	-0.016479	0.999987	-0.001620	-0.004265	0.002129	
44258	    0	4.831378	3.762979	-0.828299	0.130844	-0.392914	0.109291	0.048309	0.037662	-0.008163	0.999997	0.000654	-0.001965	0.000546	
44259	    0	3.089361	3.353800	0.845415	0.184632	-0.782587	-0.141144	0.030884	0.033508	0.008606	0.999991	0.000923	-0.003913	-0.000706	
44260	    0	4.024587	6.279604	-8.236438	0.370983	-1.302731	-0.562673	0.040957	0.062834	-0.081983	0.999972	0.001855	-0.006514	-0.002813	
44261	    0	4.866000	11.616913	-7.489920	0.679783	-0.417140	-0.862127	0.049316	0.116211	-0.074402	0.999982	0.003399	-0.002086	-0.004311	
44262	    0	8.918518	10.479873	-2.416849	1.342029	-0.367742	-1.143852	0.089827	0.104445	-0.023302	0.999959	0.006710	-0.001839	-0.005719	
44263	    0	16.279288	3.665145	6.485364	1.595334	0.016213	-1.273368	0.163025	0.035095	0.065125	0.999948	0.007977	0.000081	-0.006367	
44264	    0	20.643194	-4.859071	2.598235	0.676161	-0.121308	-1.293957	0.206096	-0.050013	0.025940	0.999972	0.003381	-0.000607	-0.006470	
44265	    0	19.906607	-4.862144	-6.185312	-0.055695	0.050545	-1.049810	0.198792	-0.049683	-0.061890	0.999986	-0.000278	0.000253	-0.005249	
44266	    0	16.796303	4.390549	-4.462111	-0.413515	0.413515	-0.761607	0.168036	0.043173	-0.045058	0.999988	-0.002068	0.002068	-0.003808	
44267	    0	12.550948	12.959943	-3.220228	-0.826268	0.257303	-0.693516	0.125916	0.129028	-0.032898	0.999984	-0.004131	0.001287	-0.003468	
44268	    0	9.423861	12.339308	-4.568719	-0.956351	-0.093270	-0.764661	0.094730	0.122811	-0.046231	0.999981	-0.004782	-0.000466	-0.003823	
44269	    0	8.310339	5.524007	-8.913198	-1.030740	-0.432400	-0.954446	0.083557	0.054382	-0.089233	0.999972	-0.005154	-0.002162	-0.004772	
44270	    0	7.830230	0.813694	-10.091751	-1.096165	-0.400357	-1.080906	0.078545	0.007160	-0.100801	0.999968	-0.005481	-0.002002	-0.005404	
44271	    0	7.889043	2.335724	-8.500346	-1.391620	-0.352292	-1.079574	0.079163	0.022339	-0.085022	0.999959	-0.006958	-0.001761	-0.005398	
44272	    0	9.130613	5.607715	-8.581459	-1.409170	-0.307660	-1.182383	0.091765	0.054930	-0.086063	0.999956	-0.007046	-0.001538	-0.005912	
44273	    0	11.237617	5.260844	-7.271640	-1.138894	-0.131990	-1.423665	0.112793	0.051392	-0.072937	0.999958	-0.005694	-0.000660	-0.007118	
44274	    0	12.611315	2.022605	-4.881302	-0.955787	0.014687	-1.639009	0.126268	0.018958	-0.048915	0.999954	-0.004779	0.000073	-0.008195	
44275	    0	13.035797	-0.457447	-3.005377	-0.832380	-0.002861	-1.779966	0.130310	-0.005859	-0.030029	0.999951	-0.004162	-0.000014	-0.008900	
44276	    0	12.913223	-0.894534	-1.383061	-0.556954	-0.050164	-1.829175	0.129046	-0.010164	-0.013771	0.999954	-0.002785	-0.000251	-0.009146	
44277	    0	12.485329	-0.337817	-0.227233	-0.457770	-0.105096	-1.815823	0.124817	-0.004517	-0.002197	0.999955	-0.002289	-0.000525	-0.009079	
44278	    0	12.048398	0.826153	-0.262944	-0.580987	-0.183871	-1.739145	0.120552	0.007206	-0.002541	0.999957	-0.002905	-0.000919	-0.008696	
44279	    0	11.858625	1.475356	-0.983950	-0.782024	-0.217250	-1.655602	0.118713	0.013733	-0.009766	0.999957	-0.003910	-0.001086	-0.008278	
44280	    0	12.040626	1.310906	-1.382938	-1.127260	-0.186351	-1.523422	0.120514	0.012114	-0.013787	0.999954	-0.005636	-0.000932	-0.007617	
44281	    0	12.364682	0.160368	-1.089844	-1.564817	-0.067712	-1.370264	0.123657	0.000671	-0.010864	0.999946	-0.007824	-0.000339	-0.006851	
44282	    0	12.272526	-1.643222	-0.522698	-1.929516	0.105288	-1.213482	0.122620	-0.017226	-0.005128	0.999934	-0.009647	0.000526	-0.006067	
44283	    0	11.510557	-3.208081	-0.194925	-2.080584	0.276381	-1.069666	0.114929	-0.032715	-0.001770	0.999930	-0.010403	0.001382	-0.005348	
44284	    0	10.435229	-4.437311	-0.368530	-2.011723	0.328452	-0.956365	0.104133	-0.044907	-0.003407	0.999936	-0.010058	0.001642	-0.004782	
44285	    0	9.698153	-5.142035	-1.161028	-1.778441	0.292401	-0.865951	0.096741	-0.051941	-0.011292	0.999949	-0.008892	0.001462	-0.004330	
44286	    0	9.447174	-5.496704	-1.692642	-1.400582	0.241664	-0.833139	0.094221	-0.055477	-0.016653	0.999966	-0.007003	0.001208	-0.004166	
44287	    0	9.551260	-5.162704	-2.163529	-0.960357	0.206758	-0.825506	0.095276	-0.052124	-0.021484	0.999979	-0.004802	0.001034	-0.004128	
44288	    0	9.719907	-4.427640	-2.439364	-0.497820	0.253106	-0.839428	0.096981	-0.044744	-0.024405	0.999987	-0.002489	0.001266	-0.004197	
44289	    0	9.937193	-3.526989	-2.298745	-0.094414	0.325776	-0.856021	0.099182	-0.035706	-0.023132	0.999989	-0.000472	0.001629	-0.004280	
44290	    0	10.024980	-2.757787	-1.741755	0.194932	0.401689	-0.873188	0.100093	-0.027998	-0.017646	0.999988	0.000975	0.002008	-0.004366	
44291	    0	9.941590	-2.179948	-0.681067	0.366213	0.461008	-0.865940	0.099304	-0.022217	-0.007080	0.999986	0.001831	0.002305	-0.004330	
44292	    0	9.602822	-1.844985	0.650332	0.350572	0.460627	-0.837139	0.095964	-0.018863	0.006249	0.999987	0.001753	0.002303	-0.004186	
44293	    0	9.366334	-1.622734	1.369900	0.187684	0.415994	-0.772097	0.093628	-0.016602	0.013489	0.999990	0.000938	0.002080	-0.003860	
44294	    0	9.163748	-1.531206	1.558960	0.071907	0.347710	-0.664713	0.091613	-0.015622	0.015425	0.999992	0.000360	0.001739	-0.003324	
44295	    0	8.846897	-1.764976	1.143181	-0.118065	0.341035	-0.543214	0.088440	-0.017883	0.011292	0.999994	-0.000590	0.001705	-0.002716	
44296	    0	8.527333	-2.302254	0.741905	-0.322724	0.410653	-0.365830	0.085246	-0.023167	0.007281	0.999994	-0.001614	0.002053	-0.001829	
44297	    0	8.289928	-3.039420	0.533607	-0.457002	0.525094	-0.179291	0.082886	-0.030457	0.005188	0.999993	-0.002285	0.002625	-0.000896	
44298	    0	8.020922	-3.885357	0.675230	-0.506593	0.647737	0.024414	0.080235	-0.038827	0.006591	0.999991	-0.002533	0.003239	0.000122	
44299	    0	7.876998	-4.583511	0.763433	-0.491144	0.762179	0.257112	0.078857	-0.045715	0.007446	0.999989	-0.002456	0.003811	0.001286	
44300	    0	8.029806	-4.909566	0.780164	-0.457575	0.840000	0.470164	0.080445	-0.048889	0.007576	0.999986	-0.002288	0.004200	0.002351	
44301	    0	8.365519	-4.723624	1.139705	-0.411799	0.920111	0.661473	0.083862	-0.046936	0.011108	0.999981	-0.002059	0.004601	0.003307	
44302	    0	8.846277	-4.074817	1.163933	-0.397494	1.009758	0.808913	0.088684	-0.040367	0.011272	0.999976	-0.001987	0.005049	0.004045	
44303	    0	9.369421	-3.476021	1.480031	-0.372890	1.110850	0.919351	0.093933	-0.034302	0.014343	0.999971	-0.001864	0.005554	0.004597	
44304	    0	9.783699	-2.756567	1.764663	-0.397877	1.213660	1.026928	0.098082	-0.027028	0.017106	0.999966	-0.001989	0.006068	0.005135	
44305	    0	9.743291	-1.793083	1.963183	-0.488860	1.294725	1.126877	0.097656	-0.017334	0.019043	0.999960	-0.002444	0.006474	0.005634	
44306	    0	9.259774	-0.891158	2.152802	-0.577554	1.319523	1.212519	0.092789	-0.008288	0.020941	0.999955	-0.002888	0.006598	0.006063	
44307	    0	8.866357	0.005184	1.392183	-0.622377	1.248188	1.301594	0.088745	0.000671	0.013367	0.999954	-0.003112	0.006241	0.006508	
44308	    0	8.497366	0.129495	-0.429955	-0.627718	1.131837	1.359197	0.084936	0.001858	-0.004786	0.999955	-0.003139	0.005659	0.006796	
44309	    0	8.696222	-0.322290	-2.625679	-0.584229	0.975813	1.415272	0.086853	-0.002686	-0.026672	0.999958	-0.002921	0.004879	0.007076	
44310	    0	9.807166	-0.977369	-4.301973	-0.387578	0.828181	1.497479	0.097962	-0.009124	-0.043407	0.999961	-0.001938	0.004141	0.007487	
44311	    0	11.658013	-1.632261	-5.177546	-0.127985	0.720224	1.568623	0.116516	-0.015442	-0.052185	0.999962	-0.000640	0.003601	0.007843	
44312	    0	13.847102	-1.956614	-4.838348	0.168993	0.711641	1.617834	0.138450	-0.018405	-0.048892	0.999960	0.000845	0.003558	0.008089	
44313	    0	15.588718	-1.817264	-3.880487	0.488288	0.746357	1.657892	0.155884	-0.016785	-0.039429	0.999955	0.002441	0.003732	0.008289	
44314	    0	16.488627	-1.319042	-3.144246	0.710880	0.752843	1.691655	0.164869	-0.011683	-0.032106	0.999950	0.003554	0.003764	0.008458	
44315	    0	16.665322	-0.046485	-2.396916	0.851646	0.683606	1.752503	0.166565	0.001099	-0.024536	0.999947	0.004258	0.003418	0.008762	
44316	    0	16.446469	1.499817	-2.545379	0.849929	0.538835	1.761657	0.164254	0.016555	-0.025828	0.999949	0.004250	0.002694	0.008808	
44317	    0	15.603956	2.511569	-2.565025	0.658617	0.403601	1.731899	0.155762	0.026550	-0.025879	0.999954	0.003293	0.002018	0.008659	
44318	    0	14.568925	2.936902	-1.942145	0.482184	0.323109	1.655600	0.145408	0.030621	-0.019584	0.999961	0.002411	0.001616	0.008278	
44319	    0	13.523724	2.618375	-1.032658	0.451665	0.253490	1.592273	0.135010	0.027283	-0.010437	0.999965	0.002258	0.001267	0.007961	
44320	    0	12.492726	1.802755	-0.470802	0.559813	0.198748	1.519983	0.124781	0.018990	-0.004780	0.999967	0.002799	0.000994	0.007600	
44321	    0	11.659639	1.044387	-0.292134	0.746926	0.084878	1.435868	0.116516	0.011292	-0.002930	0.999967	0.003735	0.000424	0.007179	
44322	    0	11.037448	0.557058	-0.273967	0.921069	-0.009346	1.354614	0.110333	0.006330	-0.002707	0.999966	0.004605	-0.000047	0.006773	
44323	    0	10.623495	0.516811	-0.338716	1.025593	-0.117494	1.269545	0.106201	0.005859	-0.003296	0.999966	0.005128	-0.000587	0.006348	
44324	    0	10.134821	0.787534	-0.724545	1.119817	-0.174334	1.212515	0.101304	0.008530	-0.007111	0.999965	0.005599	-0.000872	0.006063	
44325	    0	9.607634	1.278052	-1.128896	1.198593	-0.211146	1.208511	0.096008	0.013428	-0.011108	0.999963	0.005993	-0.001056	0.006042	
44326	    0	9.197048	1.819659	-1.573744	1.219002	-0.261119	1.211754	0.091878	0.018848	-0.015504	0.999962	0.006095	-0.001306	0.006059	
44327	    0	8.910780	2.409899	-2.213195	1.157584	-0.312809	1.245133	0.088989	0.024780	-0.021851	0.999962	0.005788	-0.001564	0.006226	
44328	    0	8.716237	2.882599	-2.567172	1.103796	-0.388341	1.251808	0.087029	0.029511	-0.025341	0.999963	0.005519	-0.001942	0.006259	
44329	    0	8.581864	3.037320	-2.929721	1.100935	-0.459105	1.245133	0.085693	0.031067	-0.028931	0.999963	0.005505	-0.002295	0.006226	
44330	    0	8.456435	3.012426	-3.289025	1.178948	-0.559433	1.195923	0.084473	0.030822	-0.032474	0.999960	0.005895	-0.002797	0.005980	
44331	    0	8.257383	2.889806	-3.537388	1.307125	-0.653849	1.150529	0.082520	0.029602	-0.034912	0.999956	0.006536	-0.003269	0.005753	
44332	    0	7.895605	2.839588	-3.392444	1.397726	-0.724994	1.079004	0.078922	0.029057	-0.033437	0.999954	0.006989	-0.003625	0.005395	
44333	    0	7.313680	2.920770	-3.295697	1.369496	-0.775730	0.968184	0.073120	0.029785	-0.032471	0.999957	0.006847	-0.003879	0.004841	
44334	    0	6.817443	3.155547	-3.377977	1.170553	-0.789079	0.823221	0.068175	0.032032	-0.033324	0.999966	0.005853	-0.003945	0.004116	
44335	    0	6.400784	3.350948	-3.282370	0.958451	-0.788123	0.653082	0.064026	0.033875	-0.032410	0.999975	0.004792	-0.003941	0.003265	
44336	    0	6.110824	3.523531	-3.124397	0.797277	-0.810056	0.469783	0.061151	0.035502	-0.030855	0.999981	0.003986	-0.004050	0.002349	
44337	    0	6.152065	3.748406	-2.682339	0.660709	-0.880246	0.282289	0.061584	0.037659	-0.026428	0.999984	0.003304	-0.004401	0.001411	
44338	    0	6.412253	4.057873	-2.572013	0.459864	-0.982099	0.100327	0.064227	0.040669	-0.025311	0.999985	0.002299	-0.004910	0.000502	
44339	    0	6.515521	4.046208	-2.512628	0.256349	-1.088530	-0.084687	0.065308	0.040466	-0.024719	0.999984	0.001282	-0.005443	-0.000423	
44340	    0	6.629357	3.627509	-2.145317	0.001907	-1.117140	-0.236703	0.066455	0.036197	-0.021082	0.999983	0.000010	-0.005586	-0.001184	
44341	    0	6.640589	2.918942	-1.218895	-0.169374	-1.121337	-0.380709	0.066528	0.029053	-0.011841	0.999982	-0.000847	-0.005607	-0.001904	
44342	    0	6.740019	1.959987	-0.301307	-0.189783	-1.229677	-0.509647	0.067467	0.019425	-0.002617	0.999977	-0.000949	-0.006148	-0.002548	
44343	    0	7.027611	0.557412	0.615183	-0.162317	-1.264964	-0.592809	0.070251	0.005371	0.006592	0.999975	-0.000812	-0.006325	-0.002964	
44344	    0	7.442059	-1.928766	1.711863	-0.293162	-1.177988	-0.608830	0.074259	-0.019488	0.017585	0.999976	-0.001466	-0.005890	-0.003044	
44345	    0	7.955021	-4.916261	2.223055	-0.682646	-1.079568	-0.582128	0.079285	-0.049316	0.022827	0.999975	-0.003413	-0.005398	-0.002911	
44346	    0	8.855593	-7.292869	-0.158841	-0.747496	-1.067933	-0.505642	0.088377	-0.073156	-0.000843	0.999975	-0.003737	-0.005340	-0.002528	
44347	    0	10.130110	-8.957031	-1.369773	-0.209619	-1.071173	-0.392153	0.101196	-0.089783	-0.013062	0.999983	-0.001048	-0.005356	-0.001961	
44348	    0	12.278653	-11.452579	-0.202626	0.713161	-0.740055	-0.181008	0.122690	-0.114630	-0.001981	0.999986	0.003566	-0.003700	-0.000905	
44349	    0	13.948715	-14.581866	0.920813	1.002698	-0.359346	0.159455	0.139587	-0.145752	0.008728	0.999985	0.005013	-0.001797	0.000797	
44350	    0	13.877170	-16.401535	0.382450	0.514223	-0.254060	0.546457	0.139215	-0.163645	0.003580	0.999991	0.002571	-0.001270	0.002732	
44351	    0	12.325065	-13.285272	-1.751789	-0.401881	-0.557712	0.910192	0.123901	-0.132324	-0.016907	0.999983	-0.002009	-0.002789	0.004551	
44352	    0	9.677755	-6.827003	-2.755700	-1.132599	-0.981344	1.030364	0.097260	-0.067923	-0.026695	0.999958	-0.005663	-0.004907	0.005152	
44353	    0	7.335826	-0.560957	-2.043779	-1.355573	-1.037613	0.855268	0.073486	-0.005432	-0.020020	0.999954	-0.006778	-0.005188	0.004276	
44354	    0	6.157968	3.749379	-0.824485	-0.974663	-0.800711	0.504688	0.061518	0.037609	-0.008182	0.999976	-0.004873	-0.004004	0.002523	
44355	    0	5.561077	6.103532	1.305359	-0.448609	-0.521661	0.113678	0.055542	0.061096	0.013062	0.999993	-0.002243	-0.002608	0.000568	
44356	    0	3.555039	5.569295	3.004252	-0.086022	-1.114279	-0.198365	0.035438	0.055671	0.030216	0.999984	-0.000430	-0.005571	-0.000992	
44357	    0	3.684234	7.729580	-6.821260	0.505074	-1.759939	-0.724804	0.037720	0.077332	-0.067688	0.999951	0.002525	-0.008800	-0.003624	
44358	    0	5.281328	9.338851	-10.109454	0.759322	-0.676542	-0.940521	0.053594	0.093520	-0.100559	0.999975	0.003797	-0.003383	-0.004703	
44359	    0	9.954972	8.005539	-6.191729	1.729044	-0.502787	-1.136801	0.100159	0.080017	-0.060974	0.999943	0.008645	-0.002514	-0.005684	
44360	    0	18.598072	2.215834	1.632280	2.372624	-0.363933	-1.256600	0.186084	0.020791	0.016913	0.999907	0.011863	-0.001820	-0.006283	
44361	    0	23.848158	-2.186102	0.018114	1.297205	-0.125887	-1.219193	0.238342	-0.023315	0.000183	0.999960	0.006486	-0.000629	-0.006096	
44362	    0	22.558057	0.482800	-4.717283	0.005150	0.451472	-0.983434	0.225493	0.003720	-0.047682	0.999985	0.000026	0.002257	-0.004917	
44363	    0	17.736082	8.823500	-3.122649	-0.816924	0.791937	-0.722509	0.177551	0.087463	-0.032288	0.999977	-0.004085	0.003960	-0.003613	
44364	    0	11.780339	15.962148	-2.318896	-1.330389	0.422673	-0.635344	0.118258	0.159086	-0.024498	0.999970	-0.006652	0.002113	-0.003177	
44365	    0	8.129035	14.871446	-4.210101	-1.014716	-0.017357	-0.746923	0.081848	0.148193	-0.042847	0.999980	-0.005074	-0.000087	-0.003735	
44366	    0	7.334814	6.480027	-8.053784	-0.955781	-0.477032	-0.970658	0.073853	0.064057	-0.080669	0.999973	-0.004779	-0.002385	-0.004853	
44367	    0	7.564977	0.553140	-9.124171	-1.263445	-0.548370	-1.158158	0.075928	0.004517	-0.091064	0.999959	-0.006317	-0.002742	-0.005791	
44368	    0	7.671767	2.776496	-8.947294	-1.693567	-0.630582	-1.152442	0.077155	0.026564	-0.089458	0.999942	-0.008468	-0.003153	-0.005762	
44369	    0	8.486135	6.807933	-8.468711	-1.679072	-0.538646	-1.249719	0.085510	0.066833	-0.085022	0.999941	-0.008395	-0.002693	-0.006248	
44370	    0	10.190552	6.009164	-7.050812	-1.491765	-0.379379	-1.467351	0.102474	0.058814	-0.070756	0.999943	-0.007459	-0.001897	-0.007337	
44371	    0	11.648351	1.891892	-5.653606	-1.405171	-0.247197	-1.618226	0.116699	0.017578	-0.056519	0.999941	-0.007026	-0.001236	-0.008091	
44372	    0	12.044151	-1.458758	-4.263043	-1.383046	-0.190357	-1.683841	0.120352	-0.015895	-0.042409	0.999940	-0.006915	-0.000952	-0.008419	
44373	    0	11.718956	-2.348493	-2.608020	-1.283289	-0.182155	-1.720462	0.117004	-0.024658	-0.025818	0.999942	-0.006416	-0.000911	-0.008602	
44374	    0	11.099526	-1.769324	-1.409560	-1.161406	-0.189785	-1.730760	0.110849	-0.018734	-0.013884	0.999945	-0.005807	-0.000949	-0.008654	
44375	    0	10.449330	-0.866813	-1.560951	-1.125928	-0.220493	-1.700622	0.104431	-0.009644	-0.015442	0.999947	-0.005630	-0.001102	-0.008503	
44376	    0	10.011635	-0.453009	-2.023301	-1.107234	-0.270467	-1.634816	0.100101	-0.005460	-0.020069	0.999949	-0.005536	-0.001352	-0.008174	
44377	    0	9.963512	-0.765526	-2.237054	-1.183338	-0.333219	-1.522088	0.099609	-0.008545	-0.022156	0.999951	-0.005917	-0.001666	-0.007610	
44378	    0	10.523629	-1.214512	-2.230923	-1.393532	-0.302511	-1.398110	0.105181	-0.013035	-0.022061	0.999949	-0.006968	-0.001513	-0.006990	
44379	    0	11.239577	-1.576068	-1.512584	-1.592855	-0.183872	-1.284813	0.112305	-0.016602	-0.014893	0.999947	-0.007964	-0.000919	-0.006424	
44380	    0	11.477747	-2.430972	-0.940952	-1.678878	-0.058557	-1.174184	0.114635	-0.025061	-0.009168	0.999947	-0.008394	-0.000293	-0.005871	
44381	    0	11.169378	-3.427216	-0.669130	-1.682881	0.016785	-1.049059	0.111511	-0.034912	-0.006409	0.999950	-0.008414	0.000084	-0.005245	
44382	    0	10.617760	-4.131485	-0.965700	-1.545164	0.057031	-0.948919	0.105977	-0.041891	-0.009365	0.999958	-0.007726	0.000285	-0.004745	
44383	    0	10.018494	-4.586857	-1.275053	-1.270879	0.110627	-0.875863	0.099976	-0.046387	-0.012512	0.999969	-0.006354	0.000553	-0.004379	
44384	    0	9.748891	-4.528473	-1.529228	-0.975997	0.123979	-0.855833	0.097284	-0.045775	-0.015130	0.999978	-0.004880	0.000620	-0.004279	
44385	    0	9.771377	-3.840433	-1.561964	-0.645259	0.141907	-0.870518	0.097534	-0.038879	-0.015564	0.999985	-0.003226	0.000710	-0.004353	
44386	    0	9.850968	-2.820885	-1.887122	-0.292588	0.162507	-0.914577	0.098364	-0.028687	-0.018909	0.999988	-0.001463	0.000813	-0.004573	
44387	    0	9.778037	-1.996221	-1.916777	-0.043297	0.253297	-0.983433	0.097656	-0.020447	-0.019287	0.999987	-0.000216	0.001266	-0.004917	
44388	    0	9.715531	-1.008139	-1.700141	0.117875	0.303079	-1.036077	0.097075	-0.010574	-0.017155	0.999985	0.000589	0.001515	-0.005180	
44389	    0	9.659414	-0.315665	-1.008121	0.180055	0.351145	-1.065832	0.096558	-0.003662	-0.010254	0.999984	0.000900	0.001756	-0.005329	
44390	    0	9.728238	0.295001	-0.472897	0.103570	0.377848	-1.072317	0.097287	0.002431	-0.004911	0.999983	0.000518	0.001889	-0.005362	
44391	    0	9.604921	0.483091	-0.145539	0.028992	0.402262	-1.036077	0.096069	0.004333	-0.001648	0.999984	0.000145	0.002011	-0.005180	
44392	    0	9.347475	0.429427	-0.358598	-0.066567	0.402834	-0.978474	0.093487	0.003836	-0.003776	0.999986	-0.000333	0.002014	-0.004892	
44393	    0	8.984649	0.224024	-0.561506	-0.166131	0.404360	-0.900272	0.089844	0.001831	-0.005798	0.999987	-0.000831	0.002022	-0.004501	
44394	    0	8.830017	-0.041303	-0.464754	-0.275804	0.422670	-0.827411	0.088287	-0.000785	-0.004833	0.999988	-0.001379	0.002113	-0.004137	
44395	    0	8.883063	-0.191633	-0.656000	-0.377657	0.493052	-0.741580	0.088806	-0.002258	-0.006775	0.999988	-0.001888	0.002465	-0.003708	
44396	    0	8.892476	-0.609032	-0.601284	-0.459864	0.545504	-0.658610	0.088887	-0.006397	-0.006241	0.999988	-0.002299	0.002728	-0.003293	
44397	    0	8.586286	-1.066706	-0.589267	-0.495722	0.553896	-0.566866	0.085815	-0.010925	-0.006104	0.999989	-0.002479	0.002769	-0.002834	
44398	    0	8.209540	-1.564431	-0.684013	-0.489999	0.511743	-0.478555	0.082040	-0.015858	-0.007011	0.999990	-0.002450	0.002559	-0.002393	
44399	    0	8.104037	-1.992452	-0.386231	-0.388146	0.505830	-0.366212	0.080994	-0.020081	-0.004028	0.999992	-0.001941	0.002529	-0.001831	
44400	    0	8.211587	-2.449409	-0.359379	-0.332642	0.530816	-0.212860	0.082080	-0.024588	-0.003771	0.999994	-0.001663	0.002654	-0.001064	
44401	    0	8.547605	-2.627597	-0.674027	-0.223351	0.578309	-0.052643	0.085449	-0.026306	-0.006958	0.999994	-0.001117	0.002892	-0.000263	
44402	    0	8.797427	-3.164660	-0.882066	-0.183869	0.666429	0.100899	0.087960	-0.031610	-0.009085	0.999993	-0.000919	0.003332	0.000504	
44403	    0	8.982587	-3.679535	-0.786270	-0.192071	0.782015	0.269318	0.089844	-0.036682	-0.008179	0.999990	-0.000960	0.003910	0.001347	
44404	    0	9.356022	-3.799539	-0.457033	-0.227166	0.914387	0.474360	0.093628	-0.037779	-0.004955	0.999986	-0.001136	0.004572	0.002372	
44405	    0	9.910777	-3.386462	0.329556	-0.244905	1.066788	0.711065	0.099243	-0.033508	0.002808	0.999978	-0.001225	0.005334	0.003555	
44406	    0	10.421173	-2.980345	1.534195	-0.339702	1.178181	0.949488	0.104440	-0.029283	0.014777	0.999969	-0.001698	0.005891	0.004747	
44407	    0	10.762408	-2.564499	2.300485	-0.448614	1.227013	1.170364	0.107910	-0.024963	0.022400	0.999961	-0.002243	0.006135	0.005852	
44408	    0	10.855982	-2.489733	1.873343	-0.563439	1.107613	1.330394	0.108824	-0.024122	0.018200	0.999958	-0.002817	0.005538	0.006652	
44409	    0	11.193073	-2.875968	-0.300660	-0.690470	0.908102	1.457998	0.112122	-0.027954	-0.003418	0.999957	-0.003452	0.004540	0.007290	
44410	    0	12.431357	-3.188475	-2.690402	-0.706875	0.873961	1.605823	0.124446	-0.030982	-0.027337	0.999951	-0.003534	0.004370	0.008029	
44411	    0	14.152234	-3.003193	-5.155232	-0.501832	0.911728	1.740295	0.141541	-0.028931	-0.052124	0.999949	-0.002509	0.004559	0.008701	
44412	    0	15.663304	-2.443663	-5.407511	-0.127986	1.068136	1.861608	0.156560	-0.023014	-0.054896	0.999942	-0.000640	0.005341	0.009308	
44413	    0	16.098401	-1.332573	-3.553059	0.243383	1.185062	1.942486	0.160889	-0.011719	-0.036499	0.999934	0.001217	0.005925	0.009712	
44414	    0	15.647357	-0.709985	-1.914240	0.523770	1.140240	2.018404	0.156422	-0.005469	-0.020050	0.999928	0.002619	0.005701	0.010092	
44415	    0	14.869881	-0.553986	-1.166217	0.599685	1.043154	2.066089	0.148682	-0.003967	-0.012451	0.999928	0.002998	0.005216	0.010330	
44416	    0	14.284546	0.024733	-1.131356	0.578894	0.910590	2.122357	0.142778	0.001797	-0.011960	0.999928	0.002894	0.004553	0.010612	
44417	    0	14.253964	0.912660	-0.836104	0.445758	0.804157	2.155353	0.142395	0.010681	-0.008911	0.999931	0.002229	0.004021	0.010777	
44418	    0	14.676143	2.369595	-0.906876	0.392350	0.660528	2.090879	0.146472	0.025247	-0.009504	0.999937	0.001962	0.003303	0.010454	
44419	    0	14.540144	2.788631	-1.230646	0.273900	0.506029	2.003515	0.145081	0.029358	-0.012634	0.999946	0.001369	0.002530	0.010017	
44420	    0	13.815251	2.267786	-1.268160	0.180438	0.382429	1.899749	0.137904	0.024000	-0.012924	0.999952	0.000902	0.001912	0.009499	
44421	    0	13.031858	1.147545	-1.135993	0.263218	0.294690	1.850156	0.130188	0.012695	-0.011536	0.999955	0.001316	0.001473	0.009251	
44422	    0	12.287632	0.193537	-0.730686	0.535210	0.265126	1.828603	0.122842	0.003078	-0.007463	0.999953	0.002676	0.001326	0.009143	
44423	    0	11.481722	-0.020277	-0.562723	0.859847	0.195507	1.799041	0.114807	0.000854	-0.005737	0.999949	0.004299	0.000978	0.008995	
44424	    0	10.657930	0.285274	-0.643984	1.137564	0.125697	1.756128	0.106544	0.003825	-0.006487	0.999945	0.005688	0.000628	0.008780	
44425	    0	9.827932	0.776397	-0.961482	1.318576	0.046540	1.709781	0.098206	0.008667	-0.009583	0.999941	0.006593	0.000233	0.008549	
44426	    0	9.088683	1.307935	-1.454949	1.393918	-0.040818	1.687656	0.090775	0.013947	-0.014436	0.999940	0.006969	-0.000204	0.008438	
44427	    0	8.448379	1.691743	-1.964984	1.443702	-0.126651	1.665531	0.084351	0.017761	-0.019470	0.999939	0.007218	-0.000633	0.008327	
44428	    0	8.140695	1.987779	-2.566559	1.466019	-0.187878	1.673733	0.081260	0.020745	-0.025439	0.999937	0.007330	-0.000939	0.008368	
44429	    0	8.201094	2.294677	-3.072804	1.483186	-0.236326	1.688421	0.081848	0.023865	-0.030457	0.999936	0.007416	-0.001182	0.008442	
44430	    0	8.435509	2.525933	-3.375170	1.534114	-0.269133	1.686515	0.084182	0.026227	-0.033440	0.999933	0.007670	-0.001346	0.008432	
44431	    0	8.417167	2.848406	-3.801044	1.546703	-0.300605	1.674689	0.083984	0.029480	-0.037659	0.999933	0.007733	-0.001503	0.008373	
44432	    0	8.125281	3.322886	-3.896195	1.520952	-0.337417	1.639973	0.081040	0.034188	-0.038568	0.999935	0.007605	-0.001687	0.008200	
44433	    0	7.742628	3.718069	-3.974890	1.489288	-0.416383	1.582369	0.077209	0.038086	-0.039307	0.999938	0.007446	-0.002082	0.007912	
44434	    0	7.318228	4.169160	-4.036903	1.420810	-0.489244	1.467160	0.072970	0.042512	-0.039890	0.999945	0.007104	-0.002446	0.007336	
44435	    0	6.977212	4.528164	-4.000527	1.378655	-0.574312	1.336692	0.069580	0.046021	-0.039490	0.999949	0.006893	-0.002872	0.006683	
44436	    0	6.654862	4.666575	-3.885740	1.272220	-0.671206	1.169794	0.066402	0.047299	-0.038335	0.999956	0.006361	-0.003356	0.005849	
44437	    0	6.399071	4.966053	-3.914967	1.027691	-0.805482	0.972759	0.063904	0.050171	-0.038635	0.999967	0.005138	-0.004027	0.004864	
44438	    0	6.272829	5.124394	-3.802251	0.767714	-0.910004	0.745398	0.062708	0.051622	-0.037539	0.999975	0.003839	-0.004550	0.003727	
44439	    0	6.045455	5.291526	-3.720942	0.457003	-0.938993	0.535587	0.060486	0.053162	-0.036804	0.999982	0.002285	-0.004695	0.002678	
44440	    0	5.943727	5.650022	-2.904803	0.191880	-0.946621	0.308610	0.059486	0.056620	-0.028712	0.999987	0.000959	-0.004733	0.001543	
44441	    0	5.963846	5.709355	-1.559950	0.107575	-1.038938	0.090790	0.059692	0.057129	-0.015259	0.999986	0.000538	-0.005195	0.000454	
44442	    0	6.057084	5.326116	-1.109532	-0.043297	-1.146132	-0.138093	0.060670	0.053217	-0.010759	0.999983	-0.000216	-0.005731	-0.000690	
44443	    0	6.359011	4.865269	-0.613911	-0.263979	-1.271639	-0.382999	0.063721	0.048523	-0.005798	0.999976	-0.001320	-0.006358	-0.001915	
44444	    0	6.490074	3.846580	0.157678	-0.330165	-1.367964	-0.620848	0.065007	0.038267	0.001958	0.999970	-0.001651	-0.006840	-0.003104	
44445	    0	6.866173	1.729273	0.835217	-0.213626	-1.503581	-0.795756	0.068665	0.017029	0.008850	0.999963	-0.001068	-0.007518	-0.003979	
44446	    0	7.736852	-1.006963	1.144165	-0.129892	-1.430338	-0.874339	0.077239	-0.010400	0.012001	0.999964	-0.000649	-0.007152	-0.004372	
44447	    0	8.857799	-3.931416	1.537072	-0.070191	-1.234257	-0.823982	0.088318	-0.039673	0.015930	0.999972	-0.000351	-0.006171	-0.004120	
44448	    0	10.133361	-6.964135	1.573242	-0.181199	-0.969511	-0.707440	0.101008	-0.069984	0.016286	0.999981	-0.000906	-0.004848	-0.003537	
44449	    0	11.851471	-11.700485	-0.294442	-0.250245	-0.705531	-0.509645	0.118225	-0.117310	-0.002380	0.999990	-0.001251	-0.003528	-0.002548	
44450	    0	13.965759	-15.851606	-0.407277	-0.068474	-0.632287	-0.185204	0.139523	-0.158647	-0.003577	0.999994	-0.000342	-0.003161	-0.000926	
44451	    0	16.220709	-18.339883	1.341639	0.562478	-0.423432	0.257111	0.162415	-0.183228	0.013245	0.999992	0.002812	-0.002117	0.001286	
44452	    0	16.181461	-18.114571	0.360894	0.637820	-0.499919	0.715641	0.162453	-0.180576	0.003438	0.999985	0.003189	-0.002500	0.003578	
44453	    0	13.437942	-14.223269	-2.949372	-0.151063	-0.856597	1.058205	0.135254	-0.141541	-0.028809	0.999976	-0.000755	-0.004283	0.005291	
44454	    0	9.699198	-7.743621	-4.543261	-1.203367	-1.133556	1.147099	0.097689	-0.077147	-0.044415	0.999949	-0.006017	-0.005668	0.005735	
44455	    0	6.786437	-0.773519	-3.454626	-1.561578	-1.259639	0.917072	0.068115	-0.007690	-0.034058	0.999939	-0.007808	-0.006298	0.004585	
44456	    0	5.640823	4.685861	-1.645846	-0.976763	-1.045619	0.501447	0.056376	0.046920	-0.016393	0.999970	-0.004884	-0.005228	0.002507	
44457	    0	5.135675	7.848348	0.790304	-0.086022	-0.492096	0.016785	0.051331	0.078491	0.007996	0.999996	-0.000430	-0.002460	0.000084	
44458	    0	2.386507	7.807248	0.870581	0.631720	-1.265728	-0.447850	0.023983	0.077991	0.009104	0.999972	0.003159	-0.006329	-0.002239	
44459	    0	3.530275	11.832933	-11.241430	1.241515	-1.257346	-1.037616	0.036621	0.118835	-0.111450	0.999947	0.006207	-0.006287	-0.005188	
44460	    0	5.371293	14.089823	-10.852304	1.268023	-0.226024	-1.296252	0.054749	0.141230	-0.107567	0.999958	0.006340	-0.001130	-0.006481	
44461	    0	11.690752	9.868107	-3.131836	2.321127	-0.148015	-1.516772	0.117676	0.098145	-0.030090	0.999903	0.011605	-0.000740	-0.007584	
44462	    0	19.843929	0.101481	4.151553	2.420507	-0.134282	-1.489117	0.198409	-0.000966	0.041645	0.999898	0.012102	-0.000671	-0.007445	
44463	    0	22.448307	-4.220720	-3.391051	0.743301	-0.283816	-1.335157	0.224243	-0.043579	-0.033752	0.999969	0.003716	-0.001419	-0.006676	
44464	    0	20.536606	-0.909109	-6.094896	-0.007820	0.273896	-0.924305	0.205237	-0.010042	-0.061230	0.999988	-0.000039	0.001369	-0.004622	
44465	    0	16.411594	8.103773	-4.129450	-0.654605	0.305368	-0.630953	0.164307	0.080383	-0.041809	0.999988	-0.003273	0.001527	-0.003155	
44466	    0	11.677938	14.405322	-3.926870	-1.125534	0.122262	-0.623326	0.117203	0.143464	-0.040149	0.999979	-0.005628	0.000611	-0.003117	
44467	    0	9.281227	12.430389	-4.182697	-1.060494	-0.138665	-0.776678	0.093323	0.123718	-0.042419	0.999978	-0.005302	-0.000693	-0.003883	
44468	    0	8.331788	5.221413	-7.076274	-1.122868	-0.440984	-1.011859	0.083735	0.051394	-0.070868	0.999969	-0.005614	-0.002205	-0.005059	
44469	    0	7.902217	1.325402	-7.865874	-1.344318	-0.482757	-1.155870	0.079285	0.012268	-0.078552	0.999957	-0.006721	-0.002414	-0.005779	
44470	    0	7.939008	2.899797	-7.593440	-1.711306	-0.559245	-1.159499	0.079766	0.027886	-0.075953	0.999942	-0.008556	-0.002796	-0.005797	
44471	    0	9.145292	5.141147	-7.592192	-1.691280	-0.520335	-1.301601	0.091980	0.050171	-0.076111	0.999939	-0.008456	-0.002602	-0.006508	
44472	    0	10.670368	3.704335	-6.687920	-1.456670	-0.392540	-1.536399	0.107113	0.035734	-0.066933	0.999942	-0.007283	-0.001963	-0.007682	
44473	    0	11.512040	0.353862	-5.541012	-1.342037	-0.331694	-1.684604	0.115234	0.002197	-0.055237	0.999940	-0.006710	-0.001658	-0.008423	
44474	    0	11.754516	-1.750330	-4.318328	-1.248194	-0.293356	-1.776349	0.117445	-0.018815	-0.042896	0.999940	-0.006241	-0.001467	-0.008882	
44475	    0	11.338595	-2.092333	-2.559124	-1.077100	-0.255590	-1.826512	0.113220	-0.022095	-0.025330	0.999943	-0.005385	-0.001278	-0.009132	
44476	    0	10.658344	-1.438025	-1.481413	-1.015872	-0.238995	-1.812396	0.106464	-0.015420	-0.014610	0.999945	-0.005079	-0.001195	-0.009062	
44477	    0	10.100693	-0.772580	-1.305859	-1.033038	-0.271420	-1.731902	0.100952	-0.008667	-0.012878	0.999948	-0.005165	-0.001357	-0.008659	
44478	    0	9.953864	-0.765749	-1.319982	-1.097887	-0.305944	-1.593425	0.099493	-0.008522	-0.013002	0.999951	-0.005489	-0.001530	-0.007967	
44479	    0	10.275053	-1.390580	-1.019064	-1.300833	-0.288205	-1.438164	0.102661	-0.014709	-0.009949	0.999951	-0.006504	-0.001441	-0.007191	
44480	    0	10.835196	-2.160723	-0.757616	-1.582554	-0.249867	-1.250861	0.108223	-0.022343	-0.007266	0.999948	-0.007913	-0.001249	-0.006254	
44481	    0	11.095652	-3.287500	-0.370091	-1.917115	-0.154880	-1.083396	0.110779	-0.033508	-0.003296	0.999939	-0.009585	-0.000774	-0.005417	
44482	    0	10.814834	-4.658759	-0.378698	-2.225548	-0.085070	-0.919364	0.107934	-0.047122	-0.003219	0.999927	-0.011127	-0.000425	-0.004597	
44483	    0	10.305566	-5.606303	-0.666922	-2.239089	0.008393	-0.749224	0.102844	-0.056519	-0.006042	0.999929	-0.011195	0.000042	-0.003746	
44484	    0	9.648940	-6.032724	-1.525689	-2.080386	0.093843	-0.651563	0.096285	-0.060796	-0.014671	0.999940	-0.010402	0.000469	-0.003258	
44485	    0	9.100598	-5.623156	-2.366939	-1.677535	0.130464	-0.602730	0.090820	-0.056702	-0.023254	0.999960	-0.008388	0.000652	-0.003014	
44486	    0	8.822898	-5.031535	-2.575659	-1.153764	0.137139	-0.642209	0.088049	-0.050746	-0.025525	0.999977	-0.005769	0.000686	-0.003211	
44487	    0	8.934344	-4.141510	-2.306040	-0.568964	0.153351	-0.736239	0.089172	-0.041809	-0.023010	0.999989	-0.002845	0.000767	-0.003681	
