// Start Time: Unknown
// Update Rate: 100.0Hz
// Filter Profile: human (34.3)
// Firmware Version: 2.1.4
PacketCounter	SampleTimeFine	Acc_X	Acc_Y	Acc_Z	Gyr_X	Gyr_Y	Gyr_Z	VelInc_X	VelInc_Y	VelInc_Z	OriInc_q0	OriInc_q1	OriInc_q2	OriInc_q3	
  188	    0	18.012231	5.447495	3.058902	0.354018	1.372773	-2.747645	0.181052	0.051939	0.029442	0.999880	0.001770	0.006864	-0.013738	
  189	    0	18.034697	15.603779	-4.037733	-1.033627	1.438952	-2.220991	0.181763	0.153809	-0.042480	0.999899	-0.005168	0.007195	-0.011105	
  190	    0	20.076592	2.775270	0.035563	-0.130656	1.218626	-1.643782	0.200982	0.026101	-0.000886	0.999947	-0.000653	0.006093	-0.008219	
  191	    0	32.232064	-2.203130	1.919436	-0.102045	1.086446	-1.787600	0.322205	-0.024902	0.017456	0.999945	-0.000510	0.005432	-0.008938	
  192	    0	31.167121	0.508817	-0.933226	0.019455	0.808916	-1.446359	0.311656	0.002835	-0.010592	0.999966	0.000097	0.004045	-0.007232	
  193	    0	24.557402	-2.606239	-3.106827	-1.564055	0.620472	-1.291681	0.245300	-0.027893	-0.031616	0.999944	-0.007820	0.003102	-0.006458	
  194	    0	23.747685	-6.940082	-0.038349	-2.713491	0.552388	-0.964962	0.237138	-0.070548	-0.000087	0.999892	-0.013567	0.002762	-0.004825	
  195	    0	23.430224	-3.617141	3.016040	-4.146891	0.805153	-0.602768	0.234314	-0.036255	0.029968	0.999772	-0.020733	0.004025	-0.003014	
  196	    0	21.547109	-11.727982	-0.821244	-6.318981	1.028427	0.047310	0.215466	-0.117434	-0.005611	0.999487	-0.031590	0.005141	0.000237	
  197	    0	16.077000	-14.640824	-2.666329	-6.570680	0.775288	0.121330	0.160767	-0.147095	-0.022461	0.999453	-0.032847	0.003876	0.000607	
  198	    0	19.263177	-13.527257	-2.687820	-3.635824	1.043575	-0.793697	0.191957	-0.136506	-0.025407	0.999813	-0.018178	0.005218	-0.003968	
  199	    0	21.804913	-5.354100	-8.644858	-0.987283	1.581064	-2.457525	0.216675	-0.056641	-0.087891	0.999881	-0.004936	0.007905	-0.012287	
  200	    0	22.980005	4.167987	-8.869984	1.575450	2.116242	-4.364296	0.229693	0.037376	-0.090825	0.999675	0.007876	0.010580	-0.021819	
  201	    0	22.215987	7.457943	-7.740364	3.344067	2.539576	-5.555322	0.223145	0.069702	-0.079041	0.999393	0.016717	0.012695	-0.027771	
  202	    0	19.070846	6.667521	-10.762801	3.425319	2.688133	-6.455145	0.191308	0.062366	-0.109104	0.999242	0.017122	0.013437	-0.032268	
  203	    0	21.843994	2.973726	-9.979831	3.587583	1.814206	-7.143113	0.218445	0.023743	-0.101318	0.999160	0.017933	0.009068	-0.035706	
  204	    0	29.673167	5.905062	-3.299902	3.394051	1.844605	-7.787868	0.298429	0.048031	-0.034869	0.999055	0.016965	0.009220	-0.038927	
  205	    0	32.426120	2.059596	0.515861	2.717112	2.451334	-7.890518	0.324768	0.007751	0.001343	0.999054	0.013581	0.012253	-0.039440	
  206	    0	27.718688	0.077157	0.240148	1.777151	2.180850	-7.328007	0.276971	-0.009384	-0.000673	0.999229	0.008883	0.010901	-0.036631	
  207	    0	26.341886	-5.304008	-3.269964	0.724186	1.946107	-6.900755	0.261047	-0.061951	-0.035461	0.999351	0.003620	0.009728	-0.034496	
  208	    0	25.147113	-10.389502	-8.676935	0.393566	1.689873	-6.769795	0.247022	-0.112134	-0.089085	0.999389	0.001967	0.008448	-0.033842	
  209	    0	23.229038	-13.308357	-10.474028	-0.578424	1.414200	-6.754890	0.226868	-0.141113	-0.105957	0.999400	-0.002892	0.007070	-0.033768	
  210	    0	23.386849	-15.048495	-9.158453	-1.923199	1.353928	-6.672152	0.228037	-0.159039	-0.091640	0.999374	-0.009614	0.006768	-0.033354	
  211	    0	23.554324	-15.903037	-6.531211	-3.331580	1.523182	-6.523128	0.229675	-0.167664	-0.064331	0.999300	-0.016654	0.007614	-0.032608	
  212	    0	20.813553	-16.453303	-4.312422	-4.294924	1.722205	-6.331540	0.202410	-0.171902	-0.041245	0.999231	-0.021469	0.008609	-0.031650	
  213	    0	16.524052	-16.181452	-2.495239	-4.636789	1.886653	-5.953955	0.160095	-0.167175	-0.022644	0.999244	-0.023178	0.009431	-0.029762	
  214	    0	13.544168	-16.174979	-0.936844	-4.274132	1.739872	-5.450453	0.130897	-0.165525	-0.007010	0.999362	-0.021366	0.008698	-0.027246	
  215	    0	12.836039	-16.482480	-0.680292	-3.358975	1.406504	-4.856855	0.124268	-0.167969	-0.004883	0.999539	-0.016792	0.007031	-0.024281	
  216	    0	13.001001	-16.305556	-0.881079	-2.106493	1.044186	-4.263727	0.126451	-0.165862	-0.007740	0.999703	-0.010531	0.005220	-0.021317	
  217	    0	12.650971	-16.326376	-1.939647	-0.903185	0.530276	-3.695143	0.123413	-0.165649	-0.018982	0.999815	-0.004516	0.002651	-0.018475	
  218	    0	12.531729	-15.968850	-3.316800	-0.059512	0.024797	-3.183499	0.122750	-0.161666	-0.033135	0.999873	-0.000298	0.000124	-0.015917	
  219	    0	12.250938	-14.579493	-4.313886	0.481429	-0.359927	-2.616961	0.120667	-0.147278	-0.043274	0.999909	0.002407	-0.001800	-0.013084	
  220	    0	9.729017	-11.230861	-5.127606	1.058217	-0.662435	-1.729617	0.096486	-0.112873	-0.051552	0.999943	0.005291	-0.003312	-0.008648	
  221	    0	4.923551	-6.497784	-7.370439	1.525328	-0.903333	-0.404363	0.049438	-0.064514	-0.073975	0.999958	0.007627	-0.004517	-0.002022	
  222	    0	-0.561288	1.807844	-6.706853	1.550335	-1.155503	1.683281	-0.005381	0.018552	-0.066957	0.999917	0.007751	-0.005777	0.008416	
  223	    0	-5.099363	0.532297	-6.470327	0.746396	-1.491647	3.653200	-0.050598	0.004639	-0.065063	0.999798	0.003732	-0.007458	0.018265	
  224	    0	-13.388379	-5.353135	-3.854580	0.664018	-2.142940	4.490752	-0.132215	-0.056381	-0.040153	0.999684	0.003320	-0.010714	0.022451	
  225	    0	-10.048082	2.804309	-5.153697	3.272970	-3.009507	5.766807	-0.100464	0.026001	-0.052612	0.999337	0.016361	-0.015044	0.028828	
  226	    0	-2.490237	2.847013	-7.161971	2.745536	-3.262553	6.356647	-0.024643	0.028667	-0.071630	0.999268	0.013724	-0.016309	0.031775	
  227	    0	0.128121	-2.634247	-6.652145	1.302858	-3.128080	7.013950	0.003235	-0.025818	-0.066650	0.999241	0.006513	-0.015636	0.035061	
  228	    0	4.610416	-6.191001	-3.365536	1.013652	-2.912937	7.493352	0.048862	-0.059944	-0.033264	0.999179	0.005067	-0.014561	0.037457	
  229	    0	7.580335	-4.581619	-3.195741	1.488174	-2.672417	7.872060	0.077942	-0.042542	-0.031250	0.999108	0.007439	-0.013358	0.039349	
  230	    0	8.826173	-0.143615	-3.097516	1.195727	-2.481700	8.423319	0.088588	0.002472	-0.029870	0.999018	0.005977	-0.012404	0.042103	
  231	    0	8.271296	1.710919	-1.576994	0.283339	-2.362116	8.802793	0.082031	0.020752	-0.014771	0.998960	0.001416	-0.011806	0.043999	
  232	    0	6.021291	0.408586	-0.705449	-0.443052	-2.484486	9.120338	0.060025	0.006812	-0.006321	0.998880	-0.002214	-0.012418	0.045585	
  233	    0	8.490273	-4.567533	-0.267973	-0.346326	-2.784348	9.532272	0.086975	-0.041565	-0.001404	0.998766	-0.001731	-0.013916	0.047642	
  234	    0	13.321113	-6.972127	0.001608	0.112202	-3.124472	9.809057	0.136393	-0.063083	0.002094	0.998675	0.000561	-0.015615	0.049024	
  235	    0	16.225716	-6.169187	1.131504	0.727611	-3.346287	10.011383	0.164856	-0.053528	0.013855	0.998600	0.003636	-0.016724	0.050034	
  236	    0	17.736490	-3.879009	1.171333	1.514809	-3.566041	10.233834	0.178799	-0.029766	0.014646	0.998503	0.007570	-0.017821	0.051144	
  237	    0	22.279405	-0.124816	0.259826	1.713706	-3.757749	10.486812	0.222351	0.010376	0.006836	0.998412	0.008564	-0.018779	0.052406	
  238	    0	27.209145	2.128924	-0.366378	1.007242	-3.849581	10.661537	0.270444	0.035741	0.001710	0.998382	0.005033	-0.019238	0.053279	
  239	    0	30.471422	5.101705	0.765081	0.404575	-4.019601	10.594511	0.301208	0.067017	0.013855	0.998393	0.002022	-0.020087	0.052944	
  240	    0	36.415182	11.552219	0.617999	-0.265638	-4.152687	10.218271	0.357391	0.133918	0.013480	0.998478	-0.001328	-0.020753	0.051065	
  241	    0	38.558418	19.382762	1.106176	-0.657008	-3.895870	9.846536	0.375122	0.212524	0.017761	0.998592	-0.003284	-0.019470	0.049210	
  242	    0	37.321509	22.372243	6.498617	0.380296	-4.052357	9.240260	0.360937	0.240458	0.072831	0.998726	0.001901	-0.020253	0.046182	
  243	    0	44.674149	19.345633	11.136922	3.557491	-4.384659	8.036983	0.435913	0.208984	0.124634	0.998794	0.017780	-0.021914	0.040169	
  244	    0	42.661461	27.204739	11.991801	6.208267	-3.604634	6.766965	0.414823	0.282161	0.136124	0.998783	0.031029	-0.018016	0.033821	
  245	    0	39.368463	34.049082	8.218531	6.020391	-2.409797	4.497169	0.384827	0.346436	0.097229	0.999221	0.030094	-0.012046	0.022480	
  246	    0	25.275986	38.409886	0.987908	4.500743	-1.443275	2.591638	0.247636	0.386950	0.020366	0.999637	0.022501	-0.007215	0.012957	
  247	    0	23.520821	50.039483	0.439098	2.352217	-0.704788	1.269572	0.231995	0.501770	0.011108	0.999904	0.011761	-0.003524	0.006348	
  248	    0	17.199295	52.684084	5.207394	0.063515	0.182724	-0.063515	0.172208	0.526770	0.052084	0.999999	0.000318	0.000914	-0.000318	
  249	    0	3.561943	36.953738	12.308046	-0.923935	0.827993	-1.523615	0.038940	0.369812	0.121216	0.999951	-0.004620	0.004140	-0.007618	
  250	    0	4.100608	32.260504	10.872178	-1.158968	0.846528	-3.327933	0.046827	0.322480	0.106663	0.999835	-0.005795	0.004232	-0.016639	
  251	    0	7.249034	23.885720	7.536697	-1.442655	1.229204	-4.196538	0.077942	0.237793	0.073181	0.999735	-0.007213	0.006145	-0.020981	
  252	    0	11.383229	12.087924	4.835586	-1.924917	1.349025	-4.560017	0.116873	0.118690	0.046425	0.999671	-0.009624	0.006744	-0.022798	
  253	    0	13.193787	3.224141	-0.818487	-1.770775	1.154447	-4.514780	0.132568	0.029175	-0.009216	0.999689	-0.008853	0.005772	-0.022572	
  254	    0	7.544499	13.220750	-22.494611	1.754187	-0.319706	-4.758584	0.078951	0.132322	-0.223661	0.999677	0.008770	-0.001598	-0.023790	
  255	    0	34.172031	67.397817	-83.071586	-0.357275	-3.805396	-11.515241	0.395386	0.650757	-0.824707	0.998160	-0.001785	-0.019015	-0.057541	
  256	    0	112.711336	-24.223609	52.628550	5.127803	5.316888	-5.464950	1.133033	-0.286013	0.489249	0.998944	0.025630	0.026575	-0.027315	
  257	    0	23.135941	28.465096	10.954725	-2.613008	-1.027765	-7.529186	0.241333	0.277100	0.107117	0.999192	-0.013062	-0.005137	-0.037636	
  258	    0	-2.682762	-4.044316	39.094825	2.254056	1.498253	-5.304548	-0.025039	-0.044168	0.390656	0.999557	0.011269	0.007490	-0.026519	
  259	    0	-15.985913	3.219524	17.326791	-2.123513	1.960415	-4.493485	-0.157349	0.037598	0.174438	0.999642	-0.010616	0.009801	-0.022465	
  260	    0	7.917365	21.869047	7.659408	1.451428	1.780092	-3.943213	0.084144	0.216504	0.077436	0.999740	0.007257	0.008900	-0.019714	
  261	    0	14.378401	4.187697	0.575107	-1.872993	2.457648	-3.449558	0.144531	0.039429	0.003601	0.999731	-0.009364	0.012287	-0.017246	
  262	    0	15.909300	0.955055	-1.702116	-1.215822	1.778907	-3.269404	0.159060	0.006841	-0.018483	0.999808	-0.006079	0.008894	-0.016346	
  263	    0	18.612557	2.750895	-2.174129	0.013161	1.429812	-2.931343	0.186340	0.024780	-0.023071	0.999866	0.000066	0.007149	-0.014656	
  264	    0	18.929112	16.476051	-6.722411	-0.978125	1.265192	-2.534007	0.190922	0.162013	-0.069225	0.999887	-0.004890	0.006326	-0.012670	
  265	    0	23.658244	1.832344	-4.960471	-0.864243	1.192506	-2.045495	0.236450	0.015686	-0.051086	0.999920	-0.004321	0.005962	-0.010227	
  266	    0	30.032608	-1.440228	-0.364810	-0.530637	1.028468	-2.129225	0.300126	-0.017611	-0.005148	0.999927	-0.002653	0.005142	-0.010646	
  267	    0	29.116038	-0.379203	-0.514916	-0.337035	0.830095	-2.042431	0.291077	-0.006775	-0.006348	0.999937	-0.001685	0.004150	-0.010212	
  268	    0	23.098842	-5.854748	-2.256338	-1.591724	0.604645	-1.834727	0.230369	-0.060843	-0.022782	0.999921	-0.007958	0.003023	-0.009173	
  269	    0	21.772881	-8.226008	2.418770	-2.278783	0.495164	-1.506091	0.217163	-0.083618	0.024597	0.999903	-0.011394	0.002476	-0.007530	
  270	    0	21.961526	-8.924932	2.132599	-3.574786	0.738381	-1.318633	0.219103	-0.090304	0.022124	0.999811	-0.017873	0.003692	-0.006593	
  271	    0	20.038079	-14.255667	-0.119701	-4.640466	1.149100	-0.943086	0.199707	-0.143494	0.000977	0.999702	-0.023200	0.005745	-0.004715	
  272	    0	14.673739	-18.177942	-3.714475	-4.897645	1.151400	-0.714760	0.145885	-0.183152	-0.033512	0.999677	-0.024486	0.005756	-0.003573	
  273	    0	12.264130	-13.310808	-4.336606	-3.844541	0.877444	-1.394755	0.121521	-0.134766	-0.041321	0.999781	-0.019221	0.004387	-0.006973	
  274	    0	17.327569	-8.354495	-7.542591	-1.011306	1.022751	-2.240819	0.171935	-0.085859	-0.075877	0.999911	-0.005056	0.005114	-0.011204	
  275	    0	24.927091	-0.264439	-8.349092	1.210092	1.402555	-3.241155	0.248596	-0.006165	-0.085266	0.999825	0.006050	0.007012	-0.016205	
  276	    0	28.254259	3.779427	-6.207449	2.533254	1.760115	-4.289172	0.282720	0.032536	-0.064128	0.999651	0.012665	0.008800	-0.021443	
  277	    0	19.421570	5.777283	-7.061067	2.229058	2.016740	-5.054439	0.194885	0.053650	-0.071960	0.999567	0.011144	0.010082	-0.025269	
  278	    0	18.287233	5.765331	-3.757868	2.436693	2.118490	-5.704566	0.184019	0.052883	-0.038860	0.999462	0.012181	0.010591	-0.028518	
  279	    0	25.159488	12.024168	-3.873863	1.867264	1.776648	-6.209208	0.254822	0.112732	-0.039917	0.999434	0.009335	0.008882	-0.031040	
  280	    0	24.990461	2.864147	-4.445179	0.906527	2.146325	-5.964535	0.250119	0.021393	-0.047028	0.999487	0.004532	0.010730	-0.029818	
  281	    0	22.506548	-6.710850	-2.862572	0.912041	1.784021	-5.664915	0.222778	-0.073303	-0.030945	0.999548	0.004560	0.008919	-0.028320	
  282	    0	23.702369	-10.286648	-4.829356	0.897930	1.738059	-5.827486	0.233463	-0.109480	-0.050815	0.999527	0.004489	0.008689	-0.029133	
  283	    0	22.853900	-14.077645	-7.416227	0.904416	1.581058	-5.858005	0.223694	-0.147034	-0.076599	0.999529	0.004521	0.007904	-0.029285	
  284	    0	21.636070	-13.920631	-7.436203	0.081647	1.361105	-5.958340	0.211575	-0.145527	-0.075871	0.999533	0.000408	0.006804	-0.029787	
  285	    0	20.826790	-14.233660	-6.613605	-0.987202	1.206389	-5.805317	0.203613	-0.148621	-0.066650	0.999548	-0.004935	0.006031	-0.029022	
  286	    0	19.593592	-14.847224	-5.861003	-2.201995	1.160421	-5.581008	0.191342	-0.154496	-0.058050	0.999533	-0.011008	0.005801	-0.027901	
  287	    0	16.592171	-15.259608	-5.129147	-3.138293	1.104917	-5.313217	0.161499	-0.157715	-0.049744	0.999508	-0.015689	0.005524	-0.026562	
  288	    0	14.248839	-14.661105	-4.408990	-3.531253	0.987400	-4.961419	0.138570	-0.150837	-0.042142	0.999524	-0.017653	0.004936	-0.024803	
  289	    0	12.785030	-13.710306	-3.284854	-3.504478	0.759993	-4.530965	0.124573	-0.140503	-0.030884	0.999582	-0.017520	0.003799	-0.022652	
  290	    0	11.691626	-12.989967	-2.521121	-3.210243	0.489672	-4.104511	0.114154	-0.132647	-0.023378	0.999657	-0.016049	0.002448	-0.020520	
  291	    0	11.086208	-13.227897	-1.928164	-2.753689	0.253509	-3.648695	0.108398	-0.134521	-0.017578	0.999738	-0.013767	0.001267	-0.018242	
  292	    0	11.063184	-13.362155	-1.749003	-2.107746	0.050548	-3.135677	0.108513	-0.135509	-0.016096	0.999821	-0.010538	0.000253	-0.015677	
  293	    0	10.784320	-12.591321	-2.122468	-1.128996	-0.229652	-2.529226	0.106262	-0.127380	-0.020386	0.999903	-0.005645	-0.001148	-0.012646	
  294	    0	9.377595	-11.037717	-2.786089	0.019455	-0.574119	-1.667617	0.092931	-0.111152	-0.027604	0.999961	0.000097	-0.002871	-0.008338	
  295	    0	6.020269	-6.868238	-4.754305	0.918586	-0.832945	-0.463871	0.060242	-0.068604	-0.047607	0.999978	0.004593	-0.004165	-0.002319	
  296	    0	0.329909	0.063570	-3.864148	1.483568	-1.161791	1.273183	0.003518	0.000944	-0.038615	0.999935	0.007418	-0.005809	0.006366	
  297	    0	-1.992853	1.198622	-3.599309	1.200168	-1.512799	3.026743	-0.019836	0.011902	-0.036072	0.999839	0.006001	-0.007564	0.015133	
  298	    0	-5.219093	-5.178413	-1.290825	1.029094	-1.938970	3.713323	-0.051088	-0.052670	-0.013677	0.999767	0.005145	-0.009694	0.018565	
  299	    0	-10.613277	2.699640	-2.980326	3.521004	-2.422753	4.830244	-0.106384	0.024963	-0.030640	0.999479	0.017602	-0.012112	0.024147	
  300	    0	-4.540764	5.269071	-4.620455	3.895513	-2.947533	5.606035	-0.046200	0.052299	-0.045860	0.999309	0.019473	-0.014734	0.028024	
  301	    0	0.879503	0.899917	-5.519974	2.658674	-3.046142	6.094193	0.009338	0.010010	-0.054932	0.999331	0.013290	-0.015227	0.030464	
  302	    0	4.026979	-3.282365	-5.500404	1.899786	-2.877724	6.691414	0.042114	-0.030914	-0.054707	0.999291	0.009497	-0.014385	0.033449	
  303	    0	6.072415	-4.067338	-3.828598	1.972708	-2.672313	7.137616	0.062622	-0.038086	-0.037842	0.999225	0.009861	-0.013358	0.035679	
  304	    0	7.273270	-3.101739	-3.608536	2.078064	-2.488449	7.514762	0.074264	-0.027875	-0.035468	0.999163	0.010387	-0.012439	0.037563	
  305	    0	8.538240	-0.978293	-2.805484	1.904857	-2.390038	7.824719	0.085999	-0.006165	-0.027100	0.999118	0.009521	-0.011947	0.039112	
  306	    0	7.266930	0.822907	-1.899732	1.789834	-2.525153	8.014855	0.072489	0.011301	-0.017989	0.999077	0.008946	-0.012622	0.040062	
  307	    0	6.264626	-0.075384	-1.563343	1.834153	-2.717744	8.379902	0.062805	0.002014	-0.014771	0.998987	0.009168	-0.013584	0.041885	
  308	    0	9.350703	-2.650115	-1.493467	2.031907	-2.897982	8.867771	0.094760	-0.022173	-0.013807	0.998860	0.010156	-0.014484	0.044322	
  309	    0	13.784980	-4.238444	-1.100334	1.971683	-2.843131	9.369739	0.139771	-0.035767	-0.009399	0.998753	0.009854	-0.014210	0.046829	
  310	    0	17.253804	-3.490593	-0.005830	2.221912	-2.866121	9.714091	0.173942	-0.026493	0.002103	0.998656	0.011105	-0.014324	0.048549	
  311	    0	20.540129	-1.164990	-0.524484	2.668547	-3.143900	10.042162	0.205688	-0.001282	-0.002075	0.998527	0.013336	-0.015712	0.050186	
  312	    0	26.266826	2.136015	-3.189506	2.046859	-3.232877	10.340969	0.261553	0.035203	-0.027347	0.998480	0.010229	-0.016156	0.051679	
  313	    0	32.604099	6.365486	-2.853420	0.751103	-3.011853	10.425366	0.322510	0.080627	-0.023376	0.998521	0.003754	-0.015052	0.052101	
  314	    0	36.959822	12.671158	0.243162	-0.211054	-2.934533	10.339183	0.362309	0.145579	0.007638	0.998555	-0.001055	-0.014666	0.051671	
  315	    0	40.366272	22.248307	1.001975	-1.098184	-2.747081	10.076957	0.391602	0.242493	0.014160	0.998621	-0.005488	-0.013729	0.050362	
  316	    0	41.294205	27.427813	3.618484	-2.791093	-2.211579	9.578867	0.398765	0.294118	0.036634	0.998694	-0.013949	-0.011053	0.047873	
  317	    0	41.575197	24.217441	8.869353	-4.308528	-1.763672	8.657507	0.403931	0.261719	0.086792	0.998792	-0.021534	-0.008815	0.043270	
  318	    0	32.621969	12.657754	13.948622	-3.170291	-1.533729	7.207705	0.320253	0.140408	0.139805	0.999195	-0.015847	-0.007667	0.036029	
  319	    0	20.188708	13.509956	6.626095	0.627990	-2.224861	5.402389	0.197388	0.140259	0.068909	0.999568	0.003139	-0.011123	0.027008	
  320	    0	25.223274	27.667604	1.284801	1.728172	-1.812291	3.087247	0.247779	0.280386	0.017519	0.999802	0.008640	-0.009061	0.015435	
  321	    0	20.099813	42.946656	12.125677	1.861614	-0.787180	1.140620	0.198059	0.429443	0.126038	0.999932	0.009308	-0.003936	0.005703	
  322	    0	12.919871	37.903894	22.775686	2.434794	-0.060083	-0.543990	0.130155	0.375875	0.232385	0.999922	0.012174	-0.000300	-0.002720	
  323	    0	9.268061	35.124154	22.990024	2.417868	0.477813	-2.255354	0.097168	0.347351	0.233887	0.999860	0.012089	0.002389	-0.011276	
  324	    0	8.023526	27.710093	16.663538	1.894883	0.915014	-3.336551	0.085594	0.274110	0.168859	0.999805	0.009474	0.004575	-0.016682	
  325	    0	8.428140	17.963954	12.645432	1.659720	1.261242	-3.913437	0.088562	0.176880	0.127380	0.999754	0.008298	0.006306	-0.019566	
  326	    0	8.492942	11.394944	10.969487	1.911155	1.471278	-4.128659	0.088052	0.111102	0.110126	0.999714	0.009555	0.007356	-0.020641	
  327	    0	10.799295	8.952463	2.997023	2.640242	1.117825	-4.154646	0.109985	0.086853	0.030518	0.999681	0.013200	0.005589	-0.020771	
  328	    0	7.003492	12.484400	-18.644326	5.047938	0.524615	-4.141976	0.072181	0.128019	-0.183426	0.999463	0.025235	0.002623	-0.020706	
  329	    0	11.609535	44.815640	-81.474676	3.474211	-4.667708	-7.530002	0.152039	0.456909	-0.803589	0.998868	0.017365	-0.023330	-0.037636	
  330	    0	142.313421	45.867279	0.534079	0.379941	4.016003	-10.126740	1.443641	0.385923	-0.022740	0.998514	0.001899	0.020070	-0.050609	
  331	    0	42.983477	-16.006423	16.798969	-2.205399	-0.894178	-7.009962	0.423157	-0.173096	0.171753	0.999314	-0.011024	-0.004470	-0.035042	
  332	    0	-8.462848	-8.300950	21.355985	-3.832158	0.331016	-7.172084	-0.087078	-0.075802	0.215201	0.999172	-0.019156	0.001655	-0.035851	
  333	    0	-32.388123	-8.624192	21.586426	0.371790	1.458166	-5.367974	-0.324463	-0.077942	0.218079	0.999611	0.001859	0.007290	-0.026836	
  334	    0	11.419739	37.202946	16.959822	0.139255	1.847327	-5.393187	0.125731	0.368625	0.168730	0.999593	0.000696	0.009235	-0.026962	
  335	    0	15.031526	12.478904	4.269056	-1.452031	2.629565	-4.117267	0.153381	0.121948	0.039795	0.999675	-0.007259	0.013146	-0.020584	
  336	    0	17.367844	-2.295191	1.956062	-2.211785	2.419134	-3.534468	0.173461	-0.025816	0.017736	0.999709	-0.011058	0.012094	-0.017671	
  337	    0	13.985452	-0.043633	2.352555	-0.194370	1.698403	-3.332714	0.140015	-0.002747	0.022339	0.999825	-0.000972	0.008492	-0.016663	
  338	    0	14.818030	12.325915	-1.672610	-0.637849	1.521758	-3.032644	0.149891	0.120938	-0.018250	0.999850	-0.003189	0.007608	-0.015162	
  339	    0	21.187481	13.006870	-2.604833	-1.117561	1.404629	-2.553662	0.213318	0.127197	-0.028259	0.999878	-0.005588	0.007023	-0.012768	
  340	    0	23.114643	1.073695	-4.137767	-1.215599	1.283694	-2.430626	0.230980	0.007671	-0.042913	0.999887	-0.006078	0.006418	-0.012153	
  341	    0	29.201037	-1.471039	0.069354	-0.437177	1.169811	-2.340767	0.291809	-0.018127	-0.000977	0.999911	-0.002186	0.005849	-0.011703	
  342	    0	28.284377	-0.905919	-1.606450	-0.824760	1.060897	-2.192748	0.282631	-0.012229	-0.017518	0.999917	-0.004124	0.005304	-0.010963	
  343	    0	22.967544	-5.634086	-1.809223	-2.321718	1.042408	-1.778483	0.229065	-0.058594	-0.018616	0.999879	-0.011608	0.005212	-0.008892	
  344	    0	19.086912	-4.026525	3.708741	-3.197276	1.141230	-1.352958	0.190804	-0.040968	0.036650	0.999832	-0.015985	0.005706	-0.006764	
  345	    0	17.252532	-6.993907	2.278633	-4.798646	1.340057	-1.077387	0.172302	-0.070312	0.023315	0.999675	-0.023991	0.006700	-0.005386	
  346	    0	14.009707	-15.714960	-0.444439	-6.144971	1.272794	-0.676077	0.139553	-0.157678	-0.000494	0.999501	-0.030720	0.006363	-0.003380	
  347	    0	11.892697	-18.970258	-1.851668	-5.250985	0.869092	-0.538699	0.118347	-0.190430	-0.014038	0.999641	-0.026252	0.004345	-0.002693	
  348	    0	16.668590	-15.743063	-1.689732	-1.808583	0.731864	-0.939006	0.165884	-0.158359	-0.016076	0.999941	-0.009043	0.003659	-0.004695	
  349	    0	18.889981	-10.824294	-7.043417	1.751178	0.740069	-1.414523	0.187866	-0.108948	-0.072083	0.999929	0.008756	0.003700	-0.007072	
  350	    0	20.038704	0.262606	-11.686103	3.713724	1.013458	-2.232927	0.199821	0.002575	-0.117826	0.999752	0.018567	0.005067	-0.011164	
  351	    0	18.850948	1.564532	-11.529201	4.286709	1.394249	-2.923173	0.187927	0.015381	-0.116272	0.999639	0.021431	0.006970	-0.014614	
  352	    0	17.508570	1.586595	-7.937783	3.681061	1.640520	-3.620400	0.174695	0.014176	-0.080541	0.999633	0.018403	0.008202	-0.018100	
  353	    0	15.814071	3.817321	-6.628874	3.073535	1.860488	-4.417253	0.158325	0.035706	-0.067200	0.999595	0.015366	0.009301	-0.022083	
  354	    0	18.972524	6.896012	-3.924447	2.759580	1.679097	-5.018216	0.191051	0.064725	-0.039932	0.999555	0.013796	0.008394	-0.025087	
  355	    0	18.400802	7.534202	-8.252410	1.623181	1.225446	-5.307721	0.185425	0.071106	-0.083069	0.999596	0.008115	0.006126	-0.026535	
  356	    0	15.742902	-6.282710	-5.588919	1.326522	1.162662	-4.933540	0.155492	-0.066302	-0.057229	0.999657	0.006632	0.005813	-0.024665	
  357	    0	17.387687	-12.410608	-3.995291	1.423810	0.826550	-5.008515	0.170532	-0.128113	-0.041565	0.999652	0.007118	0.004132	-0.025040	
  358	    0	17.278792	-13.091713	-4.926135	1.120501	0.562730	-5.005247	0.169304	-0.134903	-0.050489	0.999667	0.005602	0.002813	-0.025023	
  359	    0	16.556967	-11.461369	-4.767042	0.345834	0.495956	-4.663516	0.162720	-0.118347	-0.048279	0.999723	0.001729	0.002480	-0.023315	
  360	    0	16.204299	-9.660881	-5.265391	-0.668770	0.234814	-4.341476	0.159831	-0.100270	-0.052511	0.999758	-0.003344	0.001174	-0.021706	
  361	    0	14.923576	-8.942087	-5.828792	-2.073843	0.049786	-3.969143	0.147400	-0.092957	-0.057373	0.999749	-0.010368	0.000249	-0.019844	
  362	    0	13.481414	-10.091536	-6.079098	-3.273337	-0.077065	-3.641111	0.132958	-0.104323	-0.059051	0.999700	-0.016365	-0.000385	-0.018204	
  363	    0	13.180263	-11.591758	-5.288164	-4.164625	-0.104345	-3.399305	0.129822	-0.119202	-0.050354	0.999639	-0.020821	-0.000522	-0.016994	
  364	    0	12.917665	-11.937917	-4.255119	-4.724190	-0.145360	-3.195052	0.127267	-0.122381	-0.039591	0.999593	-0.023618	-0.000727	-0.015973	
  365	    0	12.077665	-11.875763	-3.464220	-4.982692	-0.142499	-2.956804	0.119019	-0.121338	-0.031555	0.999579	-0.024910	-0.000712	-0.014782	
  366	    0	11.289968	-11.679388	-3.000808	-4.958045	-0.116936	-2.669306	0.111338	-0.118981	-0.027011	0.999603	-0.024787	-0.000585	-0.013345	
  367	    0	11.668211	-11.477991	-2.275573	-4.456605	-0.051122	-2.295162	0.115356	-0.116577	-0.020142	0.999685	-0.022281	-0.000256	-0.011475	
  368	    0	12.693563	-9.931692	-2.767289	-3.181068	-0.195705	-1.901354	0.126007	-0.100940	-0.025952	0.999827	-0.015904	-0.000978	-0.009506	
  369	    0	14.017053	-9.171584	-3.924614	-1.672395	-0.552951	-1.226830	0.139709	-0.092896	-0.038086	0.999942	-0.008362	-0.002765	-0.006134	
  370	    0	13.178218	-6.387795	-4.907501	-0.498964	-0.793079	-0.276185	0.131886	-0.064181	-0.048392	0.999988	-0.002495	-0.003965	-0.001381	
  371	    0	7.011820	1.886955	-2.111591	0.119782	-1.005372	0.981148	0.070129	0.019226	-0.020752	0.999974	0.000599	-0.005027	0.004906	
  372	    0	3.750647	0.050999	-0.335294	0.322159	-1.202423	2.104049	0.037518	0.000910	-0.003126	0.999925	0.001611	-0.006012	0.010520	
  373	    0	6.807701	-3.649930	0.276758	1.110129	-1.592138	2.726873	0.068542	-0.035583	0.003113	0.999860	0.005550	-0.007960	0.013634	
  374	    0	3.433837	-1.710741	-0.600625	2.950403	-1.833344	3.592483	0.034692	-0.016398	-0.005935	0.999687	0.014750	-0.009166	0.017961	
  375	    0	-2.989479	1.928173	-3.775112	3.884938	-1.890104	4.446360	-0.029968	0.019348	-0.037659	0.999519	0.019422	-0.009449	0.022228	
  376	    0	0.066896	3.336324	-5.196396	3.534754	-1.964536	5.122140	0.000305	0.034286	-0.051359	0.999467	0.017671	-0.009821	0.025606	
  377	    0	5.057015	1.520705	-5.354698	2.735812	-2.070220	5.534578	0.050659	0.017334	-0.052795	0.999470	0.013677	-0.010349	0.027668	
  378	    0	6.927425	-0.289492	-5.534844	2.350868	-2.105918	5.931444	0.069884	-0.000183	-0.054627	0.999435	0.011752	-0.010528	0.029652	
  379	    0	7.768422	0.049829	-5.335281	2.263544	-1.981006	6.423771	0.078125	0.003601	-0.052551	0.999371	0.011315	-0.009903	0.032112	
  380	    0	8.382319	0.970392	-4.022134	2.246810	-1.840259	6.909653	0.083776	0.013044	-0.039316	0.999297	0.011231	-0.009199	0.034540	
  381	    0	8.224575	1.025353	-3.102566	2.127804	-1.954382	7.236786	0.082092	0.013550	-0.030090	0.999241	0.010636	-0.009769	0.036175	
  382	    0	7.930579	1.300247	-2.557138	2.075968	-2.230506	7.613217	0.079005	0.016273	-0.024531	0.999159	0.010377	-0.011149	0.038055	
  383	    0	9.607587	0.056479	-2.186925	1.984464	-2.381891	8.163757	0.096191	0.004700	-0.020691	0.999046	0.009919	-0.011906	0.040806	
  384	    0	13.441319	-2.020611	-1.378139	1.818343	-2.439022	8.674815	0.135273	-0.014234	-0.012282	0.998943	0.009089	-0.012191	0.043359	
  385	    0	16.778109	-2.586775	-0.930835	1.895297	-2.660628	9.024459	0.168823	-0.018188	-0.007263	0.998848	0.009473	-0.013298	0.045105	
  386	    0	21.323683	0.458788	-2.583437	1.841915	-2.884516	9.284946	0.213053	0.014703	-0.022655	0.998775	0.009206	-0.014417	0.046406	
  387	    0	27.112703	4.947718	-3.466025	1.029816	-2.895772	9.400193	0.268860	0.062317	-0.030457	0.998777	0.005147	-0.014473	0.046982	
  388	    0	30.396155	8.842058	-2.088052	0.156654	-2.894191	9.211877	0.299721	0.102308	-0.016445	0.998834	0.000783	-0.014465	0.046041	
  389	    0	31.810100	13.947254	-0.424146	-0.151117	-3.008415	8.865543	0.311523	0.153381	0.000366	0.998904	-0.000755	-0.015037	0.044312	
  390	    0	31.059221	19.593608	1.481117	-0.492071	-3.055267	8.443626	0.301686	0.208844	0.018963	0.998989	-0.002460	-0.015271	0.042204	
  391	    0	30.631026	23.070593	5.292036	-0.971510	-3.054000	7.811769	0.296143	0.242676	0.056335	0.999108	-0.004856	-0.015265	0.039047	
  392	    0	30.194099	21.766178	10.243597	-0.962286	-2.782883	6.778925	0.292871	0.228195	0.105473	0.999317	-0.004810	-0.013911	0.033887	
  393	    0	26.322954	20.297451	13.976298	0.371604	-2.257663	5.326063	0.256104	0.209595	0.143066	0.999579	0.001858	-0.011287	0.026627	
  394	    0	22.192382	23.222378	9.774925	1.862873	-1.825868	3.655169	0.216724	0.235280	0.101926	0.999747	0.009314	-0.009129	0.018274	
  395	    0	18.740013	26.537241	9.667277	3.045294	-1.439767	2.321024	0.183594	0.265991	0.102051	0.999790	0.015225	-0.007198	0.011604	
  396	    0	16.534395	37.293275	13.059096	3.213105	-1.128068	1.253578	0.162249	0.371784	0.137491	0.999835	0.016065	-0.005640	0.006268	
  397	    0	13.164823	39.771683	15.089986	2.464357	-0.243193	-0.004578	0.131470	0.395813	0.155945	0.999923	0.012321	-0.001216	-0.000023	
  398	    0	6.801983	36.660477	14.557604	1.459527	0.402457	-1.252767	0.070606	0.365093	0.148104	0.999951	0.007298	0.002012	-0.006264	
  399	    0	4.272201	33.159894	11.069350	0.116161	0.737018	-2.372040	0.047058	0.330994	0.110718	0.999922	0.000581	0.003685	-0.011860	
  400	    0	5.599248	24.209273	10.086784	-0.960778	1.142557	-3.062206	0.060266	0.241672	0.099370	0.999854	-0.004804	0.005713	-0.015310	
  401	    0	7.739171	14.547658	9.045017	-1.428132	1.530564	-3.520449	0.080627	0.144714	0.088806	0.999790	-0.007140	0.007652	-0.017601	
  402	    0	9.171480	9.313974	-1.440385	-0.665328	1.218114	-3.762497	0.093353	0.091344	-0.015275	0.999799	-0.003326	0.006090	-0.018811	
  403	    0	6.100429	22.424718	-27.187636	2.749937	0.084886	-4.345419	0.065796	0.226562	-0.268799	0.999669	0.013748	0.000424	-0.021725	
  404	    0	46.094996	91.438519	-118.515158	-3.134612	-6.052933	-12.799986	0.553132	0.862367	-1.183127	0.997372	-0.015659	-0.030238	-0.063944	
  405	    0	136.506225	-27.308898	66.503105	6.759988	6.815138	-5.334101	1.378113	-0.330933	0.607666	0.998492	0.033783	0.034059	-0.026657	
  406	    0	26.281432	5.327782	7.376367	-4.559802	-0.737323	-9.167118	0.264667	0.042852	0.073681	0.998683	-0.022789	-0.003685	-0.045815	
  407	    0	-11.982685	-19.245442	43.770803	0.677816	1.932147	-6.596160	-0.121887	-0.189941	0.438232	0.999403	0.003388	0.009659	-0.032974	
  408	    0	-19.768317	0.851737	17.552371	-1.484705	2.135778	-5.298812	-0.195454	0.015029	0.177524	0.999564	-0.007422	0.010677	-0.026490	
  409	    0	-1.874633	35.094799	5.212283	2.064242	1.685579	-5.274968	-0.009033	0.350708	0.055847	0.999563	0.010320	0.008427	-0.026371	
  410	    0	7.337935	8.487465	2.223097	-0.681371	2.374499	-4.156327	0.075377	0.083395	0.021058	0.999707	-0.003407	0.011871	-0.020780	
  411	    0	9.603506	4.932291	2.636929	-1.209926	2.049415	-3.611274	0.097168	0.047729	0.025085	0.999765	-0.006049	0.010246	-0.018055	
  412	    0	13.522270	3.702073	3.538436	0.505096	1.598262	-3.373536	0.136098	0.034642	0.034389	0.999823	0.002525	0.007991	-0.016867	
  413	    0	20.530376	16.461850	-6.166029	-1.113186	1.356004	-3.032839	0.207336	0.161133	-0.063965	0.999846	-0.005566	0.006780	-0.015163	
  414	    0	20.623548	8.282999	-3.503913	-0.373851	1.134524	-2.345344	0.206984	0.080338	-0.036364	0.999913	-0.001869	0.005672	-0.011726	
  415	    0	26.093819	-3.113024	2.309449	-0.369847	1.048314	-2.604762	0.260620	-0.034485	0.021790	0.999899	-0.001849	0.005241	-0.013023	
  416	    0	33.772799	3.175909	-0.145375	0.227743	0.838302	-2.373568	0.338063	0.027751	-0.002837	0.999920	0.001139	0.004191	-0.011868	
  417	    0	26.873483	-0.000653	-3.146663	-1.595352	0.622767	-1.985988	0.268616	-0.002930	-0.032288	0.999913	-0.007977	0.003114	-0.009930	
  418	    0	18.413411	-8.454092	-0.206152	-2.697486	0.562692	-1.580686	0.183454	-0.086015	-0.001425	0.999873	-0.013487	0.002813	-0.007903	
  419	    0	18.145928	-2.406915	1.501221	-3.673608	0.700425	-1.422214	0.181335	-0.025085	0.014832	0.999800	-0.018367	0.003502	-0.007111	
  420	    0	20.810843	-9.683269	-0.228510	-4.938094	1.000705	-0.929743	0.207648	-0.097833	-0.000917	0.999671	-0.024688	0.005003	-0.004648	
  421	    0	18.192571	-14.649402	-1.979788	-5.909095	1.064652	-0.426548	0.181519	-0.147400	-0.016418	0.999547	-0.029541	0.005322	-0.002132	
  422	    0	13.179368	-13.030557	-1.813887	-5.709868	0.789752	-0.283662	0.131545	-0.130949	-0.014926	0.999583	-0.028545	0.003948	-0.001418	
  423	    0	12.832090	-14.320225	-2.923152	-2.531321	0.656911	-0.754570	0.127686	-0.144043	-0.027832	0.999907	-0.012656	0.003284	-0.003773	
  424	    0	17.641547	-7.005216	-6.238165	0.932132	0.807962	-1.127447	0.175763	-0.070750	-0.063421	0.999965	0.004661	0.004040	-0.005637	
  425	    0	22.137471	1.460685	-9.903556	2.708003	1.133024	-1.957041	0.220947	0.013794	-0.100098	0.999844	0.013539	0.005665	-0.009785	
  426	    0	19.504964	1.093662	-7.601181	3.374560	1.146599	-2.544988	0.194739	0.009750	-0.076958	0.999760	0.016871	0.005733	-0.012724	
  427	    0	14.805147	5.729715	-6.290657	2.543101	1.648285	-3.450315	0.148499	0.055542	-0.063416	0.999736	0.012714	0.008241	-0.017250	
  428	    0	16.275753	12.205336	-3.851983	1.713365	2.025631	-4.329574	0.164959	0.118832	-0.039156	0.999678	0.008566	0.010127	-0.021646	
  429	    0	23.273846	14.267277	-6.266231	0.251034	1.727669	-4.728436	0.235474	0.137207	-0.064514	0.999682	0.001255	0.008637	-0.023640	
  430	    0	16.933204	0.474309	-9.109634	-0.828061	1.716971	-4.439213	0.168586	0.000614	-0.092554	0.999708	-0.004140	0.008584	-0.022194	
  431	    0	14.758190	-13.529347	-4.887152	-0.247026	1.603093	-4.568166	0.144043	-0.138672	-0.049866	0.999706	-0.001235	0.008015	-0.022839	
  432	    0	17.059364	-15.215046	-3.298819	0.677185	1.506022	-4.938684	0.166512	-0.156180	-0.034777	0.999660	0.003386	0.007529	-0.024691	
  433	    0	16.796063	-14.185133	-2.770330	0.752341	1.490375	-4.845196	0.164246	-0.145752	-0.029480	0.999671	0.003761	0.007451	-0.024223	
  434	    0	16.172989	-12.825001	-3.422400	0.220892	1.405851	-4.587042	0.158486	-0.131871	-0.035490	0.999711	0.001104	0.007029	-0.022933	
  435	    0	16.096533	-12.213603	-4.567461	-0.547075	1.247705	-4.365920	0.157959	-0.125732	-0.046326	0.999738	-0.002735	0.006238	-0.021828	
  436	    0	15.665949	-12.222856	-5.450888	-1.615283	1.043983	-4.144266	0.153792	-0.125875	-0.054310	0.999739	-0.008076	0.005219	-0.020720	
  437	    0	14.610425	-12.125658	-4.753153	-2.566007	0.779225	-3.930272	0.143494	-0.124695	-0.046509	0.999717	-0.012829	0.003896	-0.019650	
  438	    0	14.139595	-12.529762	-4.152160	-3.066366	0.501873	-3.754224	0.138902	-0.128541	-0.039918	0.999702	-0.015330	0.002509	-0.018769	
  439	    0	13.635263	-11.713281	-3.922303	-3.254829	0.284604	-3.596850	0.134155	-0.120178	-0.037476	0.999704	-0.016273	0.001423	-0.017982	
  440	    0	12.828954	-10.623214	-3.992118	-3.286476	0.087365	-3.387003	0.126442	-0.109021	-0.038200	0.999721	-0.016431	0.000437	-0.016933	
  441	    0	12.219134	-9.787241	-3.878749	-3.141849	-0.088508	-3.097786	0.120667	-0.100342	-0.037170	0.999756	-0.015708	-0.000443	-0.015488	
  442	    0	12.549465	-8.624094	-3.701892	-2.840041	-0.243966	-2.805706	0.124308	-0.088503	-0.035621	0.999800	-0.014199	-0.001220	-0.014028	
  443	    0	13.768551	-7.883705	-3.589921	-2.250010	-0.301947	-2.391161	0.136780	-0.080872	-0.034790	0.999864	-0.011250	-0.001510	-0.011955	
  444	    0	15.356313	-7.618454	-3.324845	-1.265170	-0.377663	-1.776732	0.152939	-0.077752	-0.032471	0.999938	-0.006326	-0.001888	-0.008883	
  445	    0	14.897530	-5.347596	-4.807981	-0.286104	-0.530818	-0.879673	0.148865	-0.054199	-0.047607	0.999986	-0.001431	-0.002654	-0.004398	
  446	    0	9.145208	1.114772	-4.074393	0.419237	-0.889973	0.407984	0.091609	0.011419	-0.040313	0.999986	0.002096	-0.004450	0.002040	
  447	    0	4.868509	1.200307	-3.855404	0.508891	-1.289966	1.687656	0.048828	0.012512	-0.038208	0.999940	0.002544	-0.006450	0.008438	
  448	    0	6.180679	-2.836813	-1.886512	1.049847	-1.665374	2.423957	0.062299	-0.027517	-0.018494	0.999878	0.005249	-0.008327	0.012119	
  449	    0	0.529810	1.149837	-2.128480	2.952117	-2.034016	3.449605	0.005310	0.011902	-0.021057	0.999690	0.014759	-0.010169	0.017246	
  450	    0	-4.405353	2.354356	-3.944373	4.013164	-2.205838	4.403664	-0.044134	0.023364	-0.039460	0.999495	0.020062	-0.011027	0.022015	
  451	    0	-0.605942	4.084281	-4.338043	3.543729	-2.339403	5.017230	-0.006592	0.041443	-0.042725	0.999459	0.017715	-0.011695	0.025082	
  452	    0	5.056176	1.892177	-4.771397	2.512619	-2.375838	5.575035	0.050557	0.020924	-0.046859	0.999461	0.012561	-0.011877	0.027870	
  453	    0	7.207250	-0.784755	-4.517808	2.019889	-2.221916	6.088663	0.072754	-0.005188	-0.044434	0.999423	0.010098	-0.011107	0.030437	
  454	    0	7.948577	-0.387134	-4.275879	1.890790	-1.968627	6.742629	0.079963	-0.000781	-0.041990	0.999338	0.009452	-0.009841	0.033706	
  455	    0	8.612193	0.688151	-2.968218	1.692807	-1.849820	7.261918	0.086060	0.010254	-0.028809	0.999262	0.008462	-0.009247	0.036301	
  456	    0	8.052892	1.577863	-2.055206	1.288558	-1.924824	7.551440	0.080046	0.018936	-0.019665	0.999220	0.006441	-0.009622	0.037747	
  457	    0	7.605462	0.753224	-1.266771	1.292030	-2.176341	7.930757	0.075806	0.010620	-0.011780	0.999133	0.006458	-0.010879	0.039642	
  458	    0	9.900520	-1.690081	-1.066211	1.507301	-2.392602	8.421424	0.099716	-0.012636	-0.009578	0.999013	0.007534	-0.011959	0.042093	
  459	    0	13.878793	-2.954222	-1.349759	1.595324	-2.486577	8.948012	0.140076	-0.023193	-0.011963	0.998890	0.007974	-0.012428	0.044724	
  460	    0	18.414102	-3.497580	-1.060963	1.581451	-2.518911	9.398069	0.185626	-0.026201	-0.008508	0.998785	0.007904	-0.012589	0.046971	
  461	    0	23.847469	-0.997771	-1.554657	2.102245	-2.817241	9.621821	0.238770	0.001648	-0.012207	0.998688	0.010507	-0.014080	0.048088	
  462	    0	29.228242	5.110825	-3.695812	1.419122	-3.094896	9.717847	0.289854	0.065475	-0.032028	0.998674	0.007092	-0.015468	0.048568	
  463	    0	30.539939	8.891091	-3.125986	0.078808	-3.046973	9.727111	0.301025	0.103638	-0.026611	0.998701	0.000394	-0.015228	0.048615	
  464	    0	31.680836	10.435586	-0.223673	0.075180	-3.231043	9.396222	0.311424	0.119075	0.002868	0.998766	0.000376	-0.016149	0.046962	
  465	    0	31.862138	16.952950	-0.341737	0.470147	-3.431268	8.819064	0.310730	0.183350	0.002380	0.998878	0.002350	-0.017150	0.044079	
  466	    0	31.090522	21.158902	1.510514	0.700805	-3.450982	8.265032	0.301484	0.224113	0.021133	0.998991	0.003503	-0.017249	0.041311	
  467	    0	32.100384	20.472852	6.018877	1.412596	-3.382103	7.329321	0.312134	0.215820	0.067017	0.999160	0.007061	-0.016906	0.036636	
  468	    0	30.111559	20.942262	10.224272	2.621641	-2.993464	5.975290	0.293107	0.216857	0.109481	0.999355	0.013105	-0.014964	0.029870	
  469	    0	27.523076	24.230899	7.362049	3.554320	-2.539263	4.230388	0.269043	0.246643	0.081421	0.999537	0.017769	-0.012694	0.021149	
  470	    0	23.774587	29.447757	6.901979	3.845831	-1.959636	2.811743	0.232860	0.296345	0.077004	0.999668	0.019227	-0.009797	0.014057	
  471	    0	21.099516	42.421954	9.736178	2.792700	-1.273415	1.876932	0.206360	0.424744	0.104614	0.999838	0.013963	-0.006367	0.009384	
  472	    0	15.891053	44.898014	10.562309	1.221286	-0.269320	0.681883	0.157235	0.448861	0.108577	0.999974	0.006106	-0.001347	0.003409	
  473	    0	5.317955	36.657560	11.850989	-0.342561	0.537302	-0.516511	0.054443	0.366638	0.117737	0.999991	-0.001713	0.002687	-0.002583	
  474	    0	4.351458	31.300372	9.256298	-1.548623	0.800538	-2.055230	0.047096	0.313235	0.089954	0.999908	-0.007743	0.004003	-0.010276	
  475	    0	5.507012	21.325850	7.521525	-1.853089	1.268837	-2.810058	0.058533	0.213135	0.072876	0.999838	-0.009265	0.006344	-0.014050	
  476	    0	7.279553	14.631011	7.871356	-2.173389	1.499474	-3.197327	0.075710	0.145955	0.076566	0.999784	-0.010866	0.007497	-0.015985	
  477	    0	7.993081	9.704393	7.694488	-2.065240	1.695377	-3.267912	0.082153	0.096497	0.075256	0.999777	-0.010325	0.008476	-0.016338	
  478	    0	6.780191	6.034256	6.841670	-2.076302	1.930188	-3.100051	0.069386	0.059977	0.067128	0.999779	-0.010381	0.009650	-0.015499	
  479	    0	5.592611	5.640144	0.366329	-1.781563	1.267504	-2.924509	0.056763	0.055603	0.002808	0.999833	-0.008907	0.006337	-0.014622	
  480	    0	5.876200	45.270176	-12.961509	1.177877	0.268194	-4.095770	0.067854	0.452127	-0.127038	0.999772	0.005889	0.001341	-0.020477	
  481	    0	55.714343	135.420789	-118.064084	-1.507259	-5.541063	-13.828222	0.680969	1.301086	-1.172852	0.997198	-0.007529	-0.027679	-0.069077	
  482	    0	117.525298	-102.091207	65.335281	8.038461	5.280356	-3.731856	1.171588	-1.067106	0.580096	0.998670	0.040174	0.026390	-0.018651	
  483	    0	25.457394	29.685030	6.375333	-2.933490	-0.615127	-8.248496	0.266357	0.286926	0.060303	0.999037	-0.014663	-0.003075	-0.041229	
  484	    0	-13.600209	3.621459	36.487104	1.030886	2.147042	-5.502190	-0.131044	0.037979	0.366488	0.999550	0.005154	0.010734	-0.027507	
  485	    0	-16.357807	-3.713110	15.134507	-0.973615	1.317928	-4.795588	-0.163391	-0.032471	0.152588	0.999679	-0.004868	0.006589	-0.023975	
  486	    0	9.552674	20.521470	5.645705	2.164699	1.769834	-4.328634	0.100436	0.202456	0.057784	0.999667	0.010822	0.008848	-0.021641	
  487	    0	21.735405	11.807440	7.215915	-1.116068	2.208865	-3.283160	0.220032	0.114868	0.069092	0.999788	-0.005580	0.011044	-0.016415	
  488	    0	15.937321	-6.833890	7.183191	-1.167381	1.888220	-3.502143	0.158820	-0.070708	0.070739	0.999784	-0.005836	0.009440	-0.017509	
  489	    0	16.905780	10.011888	-2.373192	-0.032808	1.645933	-3.037413	0.170349	0.097534	-0.025146	0.999850	-0.000164	0.008229	-0.015186	
  490	    0	19.272074	11.466361	-4.773064	-1.281222	1.449458	-2.596206	0.193829	0.111837	-0.049855	0.999868	-0.006406	0.007247	-0.012980	
  491	    0	23.079285	-0.264228	-3.286807	-0.804735	1.258888	-2.248451	0.230530	-0.005371	-0.034302	0.999908	-0.004024	0.006294	-0.011242	
  492	    0	31.666538	-0.945420	0.031815	-0.256546	1.134905	-2.356597	0.316520	-0.013186	-0.001463	0.999913	-0.001283	0.005674	-0.011783	
  493	    0	32.609700	1.702177	-4.219060	-0.790234	0.928520	-2.099661	0.326050	0.013428	-0.043762	0.999926	-0.003951	0.004642	-0.010498	
  494	    0	24.920113	-7.930509	-3.513113	-2.070116	0.663971	-1.865260	0.248328	-0.081987	-0.035117	0.999897	-0.010350	0.003320	-0.009326	
  495	    0	19.749307	-10.214683	1.555266	-2.513982	0.560210	-1.594604	0.196716	-0.103516	0.016296	0.999885	-0.012569	0.002801	-0.007973	
  496	    0	19.605802	-8.489046	3.313008	-3.637364	0.939241	-1.329510	0.195648	-0.085582	0.033763	0.999801	-0.018186	0.004696	-0.006647	
  497	    0	17.636456	-12.589052	0.683832	-5.536490	1.552041	-1.120918	0.175720	-0.126648	0.008972	0.999571	-0.027678	0.007759	-0.005604	
  498	    0	11.832175	-16.953744	-3.036963	-5.938710	1.448480	-0.861686	0.117388	-0.170863	-0.026161	0.999523	-0.029689	0.007241	-0.004308	
  499	    0	12.137562	-15.600738	-2.714001	-3.428869	1.156118	-1.491642	0.120056	-0.157349	-0.025146	0.999808	-0.017143	0.005780	-0.007458	
  500	    0	17.956874	-9.487095	-7.091469	0.139049	1.041436	-2.060173	0.178206	-0.096662	-0.071912	0.999932	0.000695	0.005207	-0.010301	
  501	    0	25.693334	1.451385	-10.154586	2.563080	1.379489	-2.823069	0.256409	0.012207	-0.103149	0.999794	0.012815	0.006897	-0.014114	
  502	    0	25.960363	4.634541	-6.983309	3.372015	1.693351	-3.719383	0.259821	0.042708	-0.071292	0.999649	0.016858	0.008466	-0.018595	
  503	    0	17.370338	7.083974	-8.769525	2.927033	1.663624	-4.604201	0.174561	0.068115	-0.088135	0.999593	0.014633	0.008317	-0.023018	
  504	    0	19.609010	9.469929	-3.968317	2.069006	1.866226	-5.153439	0.198074	0.090029	-0.040578	0.999571	0.010344	0.009330	-0.025764	
  505	    0	23.999513	10.316442	-5.970624	-0.086988	2.177943	-5.552734	0.242065	0.096436	-0.062378	0.999555	-0.000435	0.010888	-0.027760	
  506	    0	21.801879	-6.628485	-5.518692	-0.614057	2.172568	-5.170745	0.215590	-0.072054	-0.057323	0.999601	-0.003070	0.010861	-0.025850	
  507	    0	22.170673	-9.820270	-6.761223	-0.507998	1.974762	-5.406178	0.218262	-0.104309	-0.069519	0.999582	-0.002540	0.009872	-0.027027	
  508	    0	23.802638	-11.735696	-6.957583	-0.511819	2.062919	-5.639930	0.233856	-0.124173	-0.071691	0.999545	-0.002559	0.010313	-0.028195	
  509	    0	21.988378	-12.438224	-6.000836	-0.737875	1.889517	-5.703843	0.215637	-0.130798	-0.061584	0.999541	-0.003689	0.009446	-0.028515	
  510	    0	20.972802	-12.673008	-5.698615	-1.486443	1.705060	-5.762066	0.205463	-0.133119	-0.057776	0.999520	-0.007431	0.008524	-0.028806	
  511	    0	20.633191	-13.336324	-5.043060	-2.405754	1.610830	-5.580295	0.202087	-0.139648	-0.050415	0.999506	-0.012027	0.008053	-0.027897	
  512	    0	18.783859	-12.988800	-4.636169	-3.088318	1.542156	-5.274692	0.183960	-0.135484	-0.045727	0.999503	-0.015439	0.007710	-0.026369	
  513	    0	15.900026	-13.415611	-3.926863	-3.375777	1.446952	-4.938524	0.155334	-0.138672	-0.038086	0.999526	-0.016876	0.007234	-0.024689	
  514	    0	13.751448	-13.759635	-3.649432	-3.262595	1.255402	-4.619291	0.134056	-0.141299	-0.035058	0.999580	-0.016311	0.006276	-0.023093	
  515	    0	12.380536	-13.775460	-3.428202	-2.866508	1.019406	-4.333239	0.120605	-0.140869	-0.032898	0.999649	-0.014331	0.005096	-0.021664	
  516	    0	10.946647	-13.168584	-2.969857	-2.427903	0.786093	-4.022597	0.106670	-0.134201	-0.028502	0.999716	-0.012138	0.003930	-0.020111	
  517	    0	9.154068	-12.039119	-2.048082	-1.983600	0.570721	-3.700533	0.089233	-0.122253	-0.019531	0.999775	-0.009917	0.002853	-0.018501	
  518	    0	7.505894	-10.361801	-1.452090	-1.393395	0.323313	-3.347200	0.073287	-0.104953	-0.013912	0.999834	-0.006967	0.001616	-0.016735	
  519	    0	6.326910	-8.665259	-1.095178	-0.649094	0.040437	-2.876386	0.062012	-0.087585	-0.010681	0.999891	-0.003245	0.000202	-0.014381	
  520	    0	5.837639	-7.134146	-1.817905	0.265126	-0.216870	-2.100030	0.057643	-0.071925	-0.018211	0.999943	0.001326	-0.001084	-0.010500	
  521	    0	4.792450	-4.529640	-4.139622	1.428241	-0.390439	-0.950635	0.047791	-0.045227	-0.041626	0.999961	0.007141	-0.001952	-0.004753	
  522	    0	2.181893	-0.270586	-4.996580	2.410765	-0.604074	0.679226	0.021977	-0.002029	-0.049927	0.999916	0.012053	-0.003020	0.003396	
  523	    0	1.151257	-0.345545	-4.628497	1.499219	-0.753615	2.023374	0.011719	-0.002991	-0.046265	0.999913	0.007496	-0.003768	0.010117	
  524	    0	-3.788770	-1.858926	-2.437051	1.955894	-1.116428	2.662794	-0.037500	-0.018849	-0.024764	0.999847	0.009779	-0.005582	0.013313	
  525	    0	-6.323322	2.723742	-5.203267	3.849547	-1.744886	3.795371	-0.063293	0.027039	-0.052063	0.999597	0.019245	-0.008723	0.018974	
  526	    0	-1.065509	2.067788	-6.663730	4.592468	-2.240624	4.616887	-0.010408	0.021960	-0.066260	0.999407	0.022958	-0.011201	0.023080	
  527	    0	3.135757	-1.137634	-7.764379	3.823868	-2.350904	5.356162	0.032532	-0.009033	-0.077454	0.999389	0.019115	-0.011752	0.026775	
  528	    0	5.774113	-1.331992	-5.824504	3.129486	-2.141077	6.094715	0.058713	-0.010633	-0.057800	0.999355	0.015644	-0.010703	0.030467	
  529	    0	7.578855	-1.333754	-3.855067	3.046559	-1.988686	6.559002	0.076538	-0.010254	-0.037964	0.999296	0.015229	-0.009941	0.032787	
  530	    0	7.861043	0.754635	-4.615439	2.639674	-1.759401	7.109148	0.078663	0.010944	-0.045333	0.999242	0.013195	-0.008795	0.035537	
  531	    0	8.153772	2.787420	-4.423285	1.933805	-1.645909	7.593276	0.080750	0.031372	-0.043274	0.999198	0.009666	-0.008227	0.037956	
  532	    0	8.606501	3.073299	-3.244889	1.130046	-1.425198	8.088521	0.084951	0.034365	-0.031653	0.999141	0.005649	-0.007124	0.040431	
  533	    0	8.912316	2.989865	-1.579092	0.488438	-1.440702	8.646117	0.087830	0.033752	-0.015076	0.999036	0.002441	-0.007201	0.043217	
  534	    0	10.523913	0.053707	-1.611460	0.051708	-1.673530	9.083161	0.105200	0.005321	-0.015233	0.998934	0.000258	-0.008365	0.045400	
  535	    0	11.861530	-2.495190	-1.489661	0.025187	-1.851421	9.485503	0.119751	-0.019287	-0.013794	0.998832	0.000126	-0.009254	0.047409	
  536	    0	14.274041	-4.318339	-0.830899	0.352246	-1.946514	9.907931	0.144716	-0.036032	-0.006974	0.998724	0.001760	-0.009728	0.049519	
  537	    0	17.211214	-5.015406	-0.043643	1.265707	-2.373033	9.969180	0.174316	-0.041504	0.001343	0.998667	0.006326	-0.011860	0.049824	
  538	    0	21.712974	0.284624	-2.275384	2.211672	-3.023828	10.025040	0.216926	0.013953	-0.019359	0.998569	0.011053	-0.015112	0.050101	
  539	    0	23.729310	5.863323	-5.192990	1.289995	-3.095796	10.267289	0.234619	0.071045	-0.047852	0.998542	0.006447	-0.015471	0.051311	
  540	    0	26.941012	6.723062	-3.858907	0.862545	-3.058028	10.383939	0.265978	0.081258	-0.034173	0.998526	0.004311	-0.015283	0.051894	
  541	    0	31.810187	11.677590	-3.607940	1.361147	-3.220344	9.987722	0.312256	0.132690	-0.030151	0.998600	0.006803	-0.016094	0.049915	
  542	    0	34.815860	20.939497	-4.008534	1.882802	-3.363932	9.478126	0.338297	0.225916	-0.032263	0.998692	0.009410	-0.016812	0.047370	
  543	    0	37.263994	26.422105	-1.463475	2.118703	-3.514444	8.477865	0.361145	0.279785	-0.005310	0.998891	0.010590	-0.017566	0.042374	
  544	    0	40.694869	26.158958	4.122968	2.758357	-3.345441	7.734162	0.395643	0.276374	0.051657	0.999017	0.013787	-0.016722	0.038658	
  545	    0	38.933417	29.162338	8.598985	2.949444	-2.520382	6.364388	0.378662	0.302429	0.095215	0.999305	0.014744	-0.012599	0.031815	
  546	    0	27.286198	29.372710	4.958278	2.403182	-1.526835	4.720332	0.265432	0.299410	0.055203	0.999619	0.012014	-0.007633	0.023599	
  547	    0	23.110712	36.697830	-1.629655	0.621830	-1.031360	3.425023	0.224854	0.370911	-0.013977	0.999835	0.003109	-0.005157	0.017124	
  548	    0	21.390909	46.424519	-1.000059	-1.348529	-0.427066	1.971865	0.209344	0.466245	-0.012690	0.999926	-0.006742	-0.002135	0.009859	
  549	    0	10.503189	42.031551	6.852024	-2.864750	0.210579	0.636314	0.103760	0.421570	0.062378	0.999891	-0.014323	0.001053	0.003181	
  550	    0	7.051411	29.940286	17.168890	-3.274897	0.491168	-1.218859	0.072762	0.301720	0.166584	0.999844	-0.016374	0.002456	-0.006094	
  551	    0	6.257688	21.316666	17.524356	-2.284365	0.968414	-2.623891	0.066223	0.214294	0.172485	0.999837	-0.011421	0.004842	-0.013119	
  552	    0	7.299304	14.381469	14.722627	-1.621544	1.535899	-3.300504	0.076488	0.143756	0.145482	0.999801	-0.008107	0.007679	-0.016501	
  553	    0	9.198009	9.117649	12.069842	-1.171201	1.800864	-3.686040	0.094727	0.090149	0.119324	0.999772	-0.005856	0.009004	-0.018429	
  554	    0	9.120282	5.376360	9.514819	-0.610017	1.781219	-3.850850	0.093060	0.052272	0.094164	0.999770	-0.003050	0.008905	-0.019253	
  555	    0	7.391849	1.628712	8.673516	-0.394467	1.729133	-3.703568	0.074951	0.015076	0.086060	0.999789	-0.001972	0.008645	-0.018517	
  556	    0	6.847638	4.464029	-4.408308	1.844729	1.063995	-3.551355	0.069025	0.043824	-0.044043	0.999785	0.009223	0.005320	-0.017756	
  557	    0	1.129358	83.337846	-77.278589	0.178583	-3.505845	-7.903464	0.057739	0.832397	-0.771301	0.999064	0.000893	-0.017524	-0.039505	
  558	    0	110.832243	38.693589	-13.690054	6.561414	1.526944	-9.597172	1.124290	0.337646	-0.133826	0.998281	0.032788	0.007630	-0.047958	
  559	    0	68.612241	-50.253106	23.236745	2.957752	-1.060510	-6.222268	0.668762	-0.526917	0.228271	0.999393	0.014786	-0.005301	-0.031105	
  560	    0	20.648597	34.880392	25.057754	-3.008980	1.061185	-7.849371	0.221360	0.344016	0.244228	0.999103	-0.015040	0.005304	-0.039235	
  561	    0	-28.390593	-20.870487	24.050600	-0.034335	1.538397	-4.051526	-0.286194	-0.202881	0.242737	0.999764	-0.000172	0.007691	-0.020256	
  562	    0	-4.408104	14.450456	14.950893	0.196099	1.832418	-5.033905	-0.039056	0.145383	0.150024	0.999640	0.000980	0.009161	-0.025167	
  563	    0	11.607648	14.215450	-3.369193	0.548595	1.691757	-3.898156	0.118530	0.139954	-0.034302	0.999770	0.002743	0.008458	-0.019489	
  564	    0	20.517830	3.506786	5.173555	-2.175706	1.946614	-3.430847	0.206234	0.032082	0.049372	0.999746	-0.010878	0.009732	-0.017153	
  565	    0	15.065063	-3.191854	6.329438	-0.356885	1.377946	-3.395272	0.150513	-0.034363	0.062317	0.999830	-0.001784	0.006889	-0.016975	
  566	    0	16.789693	15.730592	-1.051098	-0.385873	1.299150	-2.894525	0.170075	0.154833	-0.011911	0.999872	-0.001929	0.006495	-0.014472	
  567	    0	18.649742	12.328734	-3.368188	-1.009401	1.178970	-2.285076	0.187683	0.120972	-0.035400	0.999904	-0.005047	0.005895	-0.011425	
  568	    0	22.083477	2.116000	-3.882086	-0.656714	1.028465	-1.937718	0.220821	0.018890	-0.040021	0.999934	-0.003284	0.005142	-0.009688	
  569	    0	31.518031	1.265102	-0.557613	-0.109102	0.873007	-1.750974	0.315247	0.009888	-0.006958	0.999951	-0.000546	0.004365	-0.008755	
  570	    0	29.860270	0.543562	-4.378833	-0.708207	0.641449	-1.393907	0.298488	0.003198	-0.044760	0.999964	-0.003541	0.003207	-0.006969	
  571	    0	24.031458	-5.679810	-3.465614	-1.895944	0.264173	-1.172663	0.239929	-0.058533	-0.034424	0.999936	-0.009480	0.001321	-0.005863	
  572	    0	23.477016	-5.267141	2.153387	-2.346101	0.098994	-0.944735	0.234529	-0.053523	0.022042	0.999920	-0.011730	0.000495	-0.004724	
  573	    0	22.550508	-9.255100	1.681430	-4.326217	0.454176	-0.701961	0.225220	-0.092957	0.018311	0.999757	-0.021629	0.002271	-0.003510	
  574	    0	18.762722	-13.861369	-1.295463	-5.928175	1.025927	-0.397742	0.187295	-0.139308	-0.009793	0.999545	-0.029636	0.005129	-0.001988	
  575	    0	12.586920	-17.807164	-2.805202	-6.024354	1.129519	-0.405185	0.125366	-0.179077	-0.023376	0.999528	-0.030117	0.005647	-0.002026	
  576	    0	14.353480	-13.468775	-5.249706	-4.194630	1.134782	-1.525632	0.142206	-0.136848	-0.050451	0.999735	-0.020971	0.005673	-0.007627	
  577	    0	19.302634	-1.295590	-6.217097	-1.265009	1.200347	-2.738310	0.192444	-0.015991	-0.063232	0.999867	-0.006325	0.006001	-0.013691	
  578	    0	26.534173	9.273654	-3.555391	0.859525	1.687003	-4.108779	0.266864	0.087422	-0.037417	0.999743	0.004297	0.008434	-0.020542	
  579	    0	26.194718	13.807480	-3.608765	1.268367	2.295994	-5.046762	0.264893	0.131653	-0.038269	0.999596	0.006341	0.011478	-0.025230	
  580	    0	21.014544	12.319509	-8.166145	0.664632	2.256962	-5.889544	0.212720	0.117231	-0.083656	0.999496	0.003323	0.011283	-0.029443	
  581	    0	23.712692	12.189018	-6.665095	-0.225109	1.777410	-6.468652	0.240295	0.114075	-0.068909	0.999436	-0.001125	0.008885	-0.032337	
  582	    0	28.336600	7.935596	-5.423364	-1.625798	2.406074	-6.632155	0.285094	0.069457	-0.058249	0.999345	-0.008127	0.012028	-0.033154	
  583	    0	30.299567	-6.441227	-2.713877	-1.578087	3.019007	-6.191779	0.300354	-0.073975	-0.031128	0.999375	-0.007889	0.015092	-0.030952	
  584	    0	29.464303	-10.460735	-3.293147	-0.944908	2.940603	-6.380082	0.290583	-0.114089	-0.036700	0.999372	-0.004724	0.014700	-0.031894	
  585	    0	26.474379	-10.693712	-6.958617	-0.717315	2.777114	-6.518406	0.260071	-0.115723	-0.072815	0.999366	-0.003586	0.013883	-0.032585	
  586	    0	23.842019	-13.153439	-8.115112	-0.516805	2.610353	-6.436504	0.232937	-0.139305	-0.083862	0.999393	-0.002584	0.013049	-0.032176	
  587	    0	22.462711	-14.267119	-7.848461	-0.558393	2.369404	-6.513000	0.218872	-0.150085	-0.080688	0.999395	-0.002791	0.011845	-0.032558	
  588	    0	20.677337	-14.578802	-7.635128	-0.991443	2.173658	-6.415857	0.201108	-0.152684	-0.077812	0.999413	-0.004956	0.010866	-0.032073	
  589	    0	18.869575	-15.171186	-6.677102	-1.476558	2.168098	-6.081739	0.183228	-0.157837	-0.067627	0.999452	-0.007381	0.010839	-0.030403	
  590	    0	17.389248	-15.884741	-5.807528	-1.573249	2.191714	-5.678158	0.168641	-0.164145	-0.058665	0.999506	-0.007865	0.010957	-0.028386	
  591	    0	14.883915	-16.362752	-6.042270	-1.267990	1.956447	-5.269589	0.143860	-0.167847	-0.060791	0.999584	-0.006339	0.009781	-0.026344	
  592	    0	12.690954	-16.403668	-6.617872	-0.957215	1.547223	-4.848641	0.122366	-0.167357	-0.066341	0.999664	-0.004786	0.007735	-0.024240	
  593	    0	12.054761	-16.124414	-6.679780	-0.863724	1.152332	-4.394923	0.116577	-0.164124	-0.066772	0.999732	-0.004318	0.005761	-0.021973	
  594	    0	12.191665	-15.617821	-5.681067	-0.825941	0.930090	-3.952118	0.118532	-0.158777	-0.056715	0.999785	-0.004129	0.004650	-0.019759	
  595	    0	11.735924	-14.841065	-4.726642	-0.585970	0.716630	-3.505899	0.114563	-0.150574	-0.047241	0.999835	-0.002930	0.003583	-0.017529	
  596	    0	10.678883	-13.870397	-3.960446	-0.151068	0.409905	-2.965275	0.104635	-0.140296	-0.039715	0.999887	-0.000755	0.002049	-0.014826	
  597	    0	9.611181	-11.959989	-3.368805	0.593007	0.027466	-2.195024	0.094788	-0.120544	-0.034058	0.999935	0.002965	0.000137	-0.010975	
  598	    0	7.868722	-8.589473	-4.310396	1.487373	-0.382620	-1.161593	0.078271	-0.086027	-0.043593	0.999953	0.007437	-0.001913	-0.005808	
  599	    0	4.454306	-4.571493	-5.603593	1.721216	-0.681124	0.019074	0.044739	-0.045227	-0.056274	0.999957	0.008606	-0.003406	0.000095	
  600	    0	-0.468377	0.171210	-5.268216	1.538503	-0.950454	1.485286	-0.004448	0.002084	-0.052689	0.999931	0.007692	-0.004752	0.007426	
  601	    0	-3.118897	-1.547577	-2.263910	1.615228	-1.187006	2.945865	-0.030823	-0.015747	-0.022949	0.999841	0.008076	-0.005935	0.014729	
  602	    0	0.155804	-1.117915	-4.611734	1.586302	-1.498174	4.242536	0.002135	-0.010772	-0.046189	0.999715	0.007931	-0.007490	0.021211	
  603	    0	-4.083874	3.814720	-5.034975	2.456277	-1.383993	5.355126	-0.041504	0.037659	-0.050171	0.999541	0.012280	-0.006919	0.026772	
  604	    0	-7.778543	5.286170	-4.974638	2.287543	-1.458259	6.239378	-0.079033	0.050978	-0.049729	0.999421	0.011436	-0.007290	0.031191	
  605	    0	-2.696952	2.071590	-5.110535	1.518567	-1.902978	6.655751	-0.027161	0.020203	-0.051208	0.999372	0.007591	-0.009513	0.033272	
  606	    0	2.892560	-2.556962	-5.578071	0.983458	-1.920176	7.004016	0.030325	-0.024250	-0.055615	0.999329	0.004916	-0.009599	0.035012	
  607	    0	6.957553	-2.042186	-4.786549	0.955446	-1.679471	7.615331	0.070679	-0.017517	-0.047363	0.999228	0.004776	-0.008395	0.038067	
  608	    0	8.772716	-0.230780	-3.632013	1.015393	-1.527668	8.245631	0.087992	0.001499	-0.035647	0.999107	0.005075	-0.007636	0.041216	
  609	    0	8.953187	0.048478	-2.557893	0.883197	-1.615665	8.616373	0.089600	0.004456	-0.024841	0.999029	0.004415	-0.008076	0.043068	
  610	    0	8.268058	-0.128747	-2.219885	0.833223	-1.888728	8.804842	0.082832	0.002448	-0.021412	0.998978	0.004165	-0.009440	0.044009	
  611	    0	7.951655	-0.211391	-1.956582	0.974631	-2.227646	9.058648	0.079712	0.001587	-0.018677	0.998900	0.004871	-0.011134	0.045277	
  612	    0	10.360007	-2.589838	-1.464557	1.223296	-2.471779	9.459507	0.104838	-0.020873	-0.013493	0.998786	0.006114	-0.012354	0.047278	
  613	    0	13.525766	-3.593436	-1.269848	1.539726	-2.685217	9.866914	0.136963	-0.029114	-0.011108	0.998663	0.007695	-0.013420	0.049313	
  614	    0	16.710671	-3.732580	-0.921360	1.477750	-2.761622	10.186247	0.168823	-0.028696	-0.007123	0.998580	0.007385	-0.013802	0.050907	
  615	    0	20.461292	-2.169107	0.094776	1.912874	-3.080559	10.284942	0.205322	-0.011169	0.003967	0.998513	0.009560	-0.015395	0.051399	
  616	    0	25.375032	2.221987	-1.869571	1.987136	-3.509023	10.306086	0.252424	0.035409	-0.013949	0.998469	0.009931	-0.017536	0.051504	
  617	    0	30.693648	7.673991	-2.557251	0.838310	-3.529566	10.236811	0.302856	0.092407	-0.019836	0.998526	0.004189	-0.017639	0.051159	
  618	    0	34.678220	12.360188	0.411380	0.435078	-3.537870	9.945917	0.339922	0.140607	0.010463	0.998605	0.002174	-0.017681	0.049706	
  619	    0	34.898190	18.309693	0.621056	1.114577	-3.651522	9.586009	0.339478	0.199463	0.013550	0.998669	0.005570	-0.018250	0.047909	
  620	    0	34.937919	24.798503	0.983807	1.524605	-3.679852	9.160607	0.337261	0.263505	0.018089	0.998753	0.007620	-0.018392	0.045784	
  621	    0	38.666233	22.537943	6.691098	1.804441	-3.601632	8.470970	0.375366	0.240784	0.075867	0.998899	0.009019	-0.018002	0.042339	
  622	    0	37.250137	25.710445	9.769683	2.110105	-2.930871	7.253151	0.361370	0.269258	0.105846	0.999179	0.010548	-0.014650	0.036256	
  623	    0	32.624811	27.263756	8.061954	2.609122	-1.779475	5.529957	0.317810	0.280396	0.087097	0.999493	0.013043	-0.008896	0.027645	
  624	    0	25.640979	29.473988	3.550740	2.115050	-1.338502	3.797859	0.250498	0.299125	0.040345	0.999741	0.010574	-0.006692	0.018988	
  625	    0	23.917514	46.531559	2.897642	0.721952	-0.862147	2.390359	0.233459	0.468018	0.031677	0.999912	0.003610	-0.004311	0.011951	
  626	    0	18.553099	51.444182	4.994955	-0.923354	-0.095559	0.961883	0.183030	0.515550	0.047659	0.999977	-0.004617	-0.000478	0.004809	
  627	    0	5.663591	37.761698	12.543825	-2.389403	0.865961	-0.593584	0.058289	0.378906	0.120667	0.999914	-0.011947	0.004330	-0.002968	
  628	    0	5.613582	32.148698	14.312088	-2.487900	1.139517	-2.560384	0.061059	0.322471	0.138775	0.999824	-0.012439	0.005697	-0.012801	
  629	    0	7.261152	25.610505	10.398353	-2.275287	1.593349	-3.675404	0.078125	0.255859	0.100464	0.999734	-0.011375	0.007966	-0.018375	
  630	    0	11.416140	16.666170	8.508291	-2.565112	1.794834	-4.273914	0.118447	0.165225	0.081907	0.999649	-0.012824	0.008973	-0.021367	
  631	    0	12.671734	7.977134	-2.117313	-1.801488	1.397279	-4.460610	0.128296	0.076721	-0.022766	0.999686	-0.009007	0.006986	-0.022301	
  632	    0	6.771756	23.539858	-29.167034	2.404699	-0.249321	-4.856896	0.073824	0.237139	-0.288736	0.999632	0.012022	-0.001246	-0.024282	
  633	    0	60.737979	69.275197	-78.274127	-1.207538	-2.366599	-11.987203	0.656433	0.649658	-0.779175	0.998116	-0.006034	-0.011826	-0.059898	
  634	    0	115.773209	-26.866540	71.312737	5.339925	5.789864	-6.105851	1.168273	-0.322535	0.671265	0.998758	0.026689	0.028937	-0.030517	
  635	    0	14.831363	6.692053	6.803735	-3.438899	-0.506562	-8.016466	0.150696	0.062073	0.067322	0.999045	-0.017189	-0.002532	-0.040070	
  636	    0	-19.854087	-6.679852	37.018015	2.313268	1.693077	-5.924340	-0.197350	-0.065229	0.371094	0.999458	0.011564	0.008464	-0.029616	
  637	    0	-13.124991	12.291272	9.335554	-1.408566	1.988665	-4.975001	-0.127197	0.126770	0.093750	0.999616	-0.007042	0.009942	-0.024872	
  638	    0	7.065018	23.425230	3.960866	1.717561	2.091823	-4.299435	0.076081	0.232308	0.040833	0.999677	0.008587	0.010458	-0.021495	
  639	    0	11.764489	10.657040	-0.968284	-1.279562	2.706575	-3.481599	0.119324	0.104431	-0.011963	0.999736	-0.006397	0.013532	-0.017406	
  640	    0	16.145373	-3.852203	1.641740	-0.970908	2.215539	-3.279913	0.160964	-0.041090	0.014828	0.999792	-0.004854	0.011077	-0.016398	
  641	    0	16.805448	9.760429	-3.611212	0.225841	1.671869	-2.880993	0.169128	0.095215	-0.037415	0.999860	0.001129	0.008359	-0.014404	
  642	    0	18.024135	13.572199	-3.099536	-1.193477	1.462043	-2.510365	0.181687	0.133254	-0.033120	0.999876	-0.005967	0.007310	-0.012551	
  643	    0	21.580733	1.917996	2.061173	-0.282295	1.372755	-2.073724	0.216125	0.016968	0.019104	0.999921	-0.001411	0.006864	-0.010368	
  644	    0	28.296363	3.507347	4.445072	-0.048448	1.201848	-2.031564	0.283561	0.032206	0.042740	0.999929	-0.000242	0.006009	-0.010158	
  645	    0	28.269960	3.720917	-0.944173	-0.593578	1.060697	-1.774631	0.282959	0.034668	-0.011047	0.999942	-0.002968	0.005303	-0.008873	
  646	    0	23.400545	-9.181331	-2.148704	-1.371984	0.753227	-1.546509	0.233204	-0.093767	-0.021728	0.999939	-0.006860	0.003766	-0.007732	
  647	    0	26.696772	-9.018242	2.134340	-1.331922	0.487526	-1.317617	0.266418	-0.091797	0.021301	0.999952	-0.006660	0.002438	-0.006588	
  648	    0	26.509770	-5.474665	1.636456	-2.579393	0.428786	-1.058041	0.264839	-0.055936	0.016513	0.999900	-0.012897	0.002144	-0.005290	
  649	    0	19.906771	-7.004061	0.203346	-4.609345	0.792195	-0.640166	0.198853	-0.070618	0.002869	0.999721	-0.023045	0.003961	-0.003201	
  650	    0	11.284830	-14.286501	-2.253442	-6.015564	0.962979	-0.182180	0.112621	-0.143570	-0.018765	0.999536	-0.030073	0.004814	-0.000911	
  651	    0	10.161897	-13.789039	-2.186286	-5.122957	0.945580	-0.299106	0.101318	-0.138550	-0.018799	0.999660	-0.025612	0.004727	-0.001495	
  652	    0	16.918300	-11.385607	-6.129197	-1.995905	1.090843	-1.228748	0.168143	-0.115501	-0.061064	0.999916	-0.009979	0.005454	-0.006144	
  653	    0	22.712265	-2.065157	-10.463007	0.410662	1.347384	-1.950883	0.226196	-0.022644	-0.106201	0.999928	0.002053	0.006737	-0.009754	
  654	    0	26.764911	2.041075	-8.211652	2.120739	1.683925	-3.078486	0.267227	0.017180	-0.084174	0.999789	0.010603	0.008419	-0.015391	
  655	    0	17.713049	5.133019	-6.831006	2.509020	1.925114	-4.141704	0.177490	0.048523	-0.069397	0.999660	0.012544	0.009624	-0.020706	
  656	    0	16.267674	8.844898	-3.658346	2.582628	2.222647	-5.575409	0.164655	0.084355	-0.037299	0.999466	0.012911	0.011111	-0.027872	
  657	    0	26.233634	16.410404	-3.002619	1.071370	2.206266	-6.274074	0.266968	0.155945	-0.032104	0.999433	0.005356	0.011029	-0.031364	
  658	    0	24.031548	2.392558	-6.293924	-0.554943	2.540454	-5.881369	0.240051	0.016683	-0.066043	0.999483	-0.002774	0.012700	-0.029402	
  659	    0	21.688965	-11.967418	-5.884028	-0.525752	2.241314	-5.855000	0.212585	-0.126099	-0.060913	0.999505	-0.002628	0.011205	-0.029270	
  660	    0	23.133496	-14.496434	-6.148474	-0.059138	2.029949	-5.999042	0.226210	-0.151820	-0.063754	0.999498	-0.000296	0.010148	-0.029990	
  661	    0	22.977142	-14.044224	-5.494505	-0.531665	2.052644	-5.902304	0.224915	-0.147278	-0.056885	0.999508	-0.002658	0.010262	-0.029507	
  662	    0	22.884723	-13.290604	-5.438794	-1.404798	2.143442	-5.662685	0.224362	-0.139690	-0.055843	0.999516	-0.007023	0.010715	-0.028309	
  663	    0	22.066648	-13.661640	-5.467842	-2.122648	2.111393	-5.442159	0.216248	-0.143127	-0.055481	0.999517	-0.010612	0.010555	-0.027206	
  664	    0	19.552228	-13.748489	-5.219523	-2.818763	2.070769	-5.231767	0.191284	-0.143262	-0.052198	0.999504	-0.014091	0.010352	-0.026155	
  665	    0	18.136559	-14.138026	-4.353388	-3.049958	2.112346	-4.973637	0.177307	-0.146484	-0.043213	0.999518	-0.015247	0.010560	-0.024864	
  666	    0	17.268839	-14.435185	-3.820587	-2.668371	2.010244	-4.719820	0.168828	-0.148874	-0.037950	0.999581	-0.013340	0.010050	-0.023596	
  667	    0	15.616426	-14.178732	-3.918260	-2.028696	1.748093	-4.481252	0.152588	-0.145630	-0.039062	0.999659	-0.010142	0.008739	-0.022404	
  668	    0	14.331251	-13.976169	-3.831608	-1.448383	1.443995	-4.219442	0.140041	-0.143017	-0.038307	0.999724	-0.007241	0.007219	-0.021095	
  669	    0	13.476079	-13.166325	-3.538006	-0.852837	1.162803	-3.889744	0.131958	-0.134399	-0.035583	0.999784	-0.004264	0.005814	-0.019447	
  670	    0	13.064045	-12.029007	-3.243816	-0.156983	0.911953	-3.495979	0.128362	-0.122573	-0.032931	0.999836	-0.000785	0.004560	-0.017479	
  671	    0	12.869879	-10.840094	-2.624545	0.717382	0.627161	-2.921410	0.127014	-0.110168	-0.027039	0.999882	0.003587	0.003136	-0.014606	
  672	    0	12.085860	-8.855030	-3.118902	1.734979	0.248154	-2.120848	0.119873	-0.089549	-0.032112	0.999905	0.008675	0.001241	-0.010604	
  673	    0	8.295175	-3.926349	-4.770642	2.273621	-0.136379	-1.126129	0.082764	-0.039185	-0.048096	0.999919	0.011368	-0.000682	-0.005630	
  674	    0	3.234157	2.537068	-5.565435	2.264265	-0.543416	0.224882	0.032463	0.026034	-0.055274	0.999931	0.011321	-0.002717	0.001124	
  675	    0	0.388805	1.723390	-5.267264	1.881464	-0.861193	1.672413	0.003967	0.017761	-0.052490	0.999911	0.009407	-0.004306	0.008362	
  676	    0	1.134925	-1.195545	-5.398597	1.184707	-1.315748	2.755097	0.011865	-0.011475	-0.053978	0.999866	0.005923	-0.006578	0.013775	
  677	    0	-4.725276	3.434784	-6.360318	2.154165	-1.535937	3.860063	-0.047424	0.034119	-0.063599	0.999725	0.010770	-0.007679	0.019299	
  678	    0	-7.654232	3.853138	-6.127394	2.568813	-1.996525	4.971472	-0.076868	0.037413	-0.061555	0.999558	0.012842	-0.009981	0.024854	
  679	    0	-2.925812	2.360817	-5.784761	1.949061	-2.495225	5.453632	-0.029175	0.023376	-0.057983	0.999502	0.009744	-0.012474	0.027264	
  680	    0	1.285173	-0.419796	-5.809025	1.192127	-2.683000	6.048579	0.013741	-0.003446	-0.057932	0.999434	0.005960	-0.013412	0.030237	
  681	    0	4.398160	-2.106454	-2.721007	0.885960	-2.531779	6.606929	0.044983	-0.019470	-0.026733	0.999364	0.004429	-0.012656	0.033028	
  682	    0	5.762332	-2.192465	-1.347088	1.150410	-2.436656	7.133877	0.058514	-0.019773	-0.012879	0.999272	0.005751	-0.012180	0.035661	
  683	    0	6.210654	-0.305597	-1.315005	1.197379	-2.468592	7.613161	0.062317	-0.000610	-0.012390	0.999181	0.005985	-0.012340	0.038055	
  684	    0	5.933051	1.224050	-0.946743	0.969216	-2.496877	7.934600	0.058893	0.014627	-0.008663	0.999123	0.004845	-0.012481	0.039661	
  685	    0	4.788278	0.743189	-0.738906	1.015039	-2.643489	8.356134	0.047607	0.009460	-0.006714	0.999026	0.005074	-0.013213	0.041767	
  686	    0	6.640699	-2.415645	-0.717255	1.350513	-2.797956	8.820696	0.067477	-0.021151	-0.006383	0.998906	0.006750	-0.013985	0.044087	
  687	    0	10.911171	-4.458878	-0.512389	1.741738	-2.964275	9.275785	0.111084	-0.039429	-0.003845	0.998776	0.008705	-0.014815	0.046360	
  688	    0	15.168922	-4.866524	-1.072083	1.953411	-2.921435	9.651421	0.153936	-0.041178	-0.008909	0.998681	0.009763	-0.014601	0.048236	
  689	    0	18.638565	-3.551731	0.366890	2.580126	-3.069971	9.776276	0.187744	-0.026428	0.006165	0.998604	0.012895	-0.015343	0.048859	
  690	    0	21.787435	1.063407	-0.894798	3.108432	-3.364907	9.940340	0.217091	0.021539	-0.005012	0.998503	0.015534	-0.016816	0.049677	
  691	    0	24.858267	6.808808	-1.972552	1.906181	-3.382236	10.105489	0.244995	0.080688	-0.014832	0.998535	0.009526	-0.016903	0.050503	
  692	    0	26.899499	10.106453	0.381986	0.866915	-3.241342	10.061784	0.263349	0.114382	0.008596	0.998593	0.004333	-0.016199	0.050285	
  693	    0	29.637423	17.956970	0.251901	0.896286	-3.316467	9.817352	0.286987	0.193787	0.008179	0.998648	0.004479	-0.016575	0.049065	
  694	    0	31.768385	25.546389	0.776907	0.364839	-3.196543	9.549939	0.304831	0.270207	0.013195	0.998731	0.001823	-0.015976	0.047729	
  695	    0	34.842649	28.725730	4.293941	-0.220572	-3.233587	8.879343	0.334473	0.302368	0.048096	0.998883	-0.001102	-0.016162	0.044380	
  696	    0	37.992548	22.918115	13.249145	0.040448	-2.747974	8.001234	0.368490	0.244051	0.137656	0.999105	0.000202	-0.013736	0.039994	
  697	    0	35.829144	24.603891	11.362516	0.979805	-2.012072	6.458014	0.348938	0.256836	0.118408	0.999415	0.004898	-0.010058	0.032284	
  698	    0	27.635670	26.488793	7.473455	1.751498	-1.189539	4.349370	0.270060	0.270129	0.078704	0.999707	0.008757	-0.005947	0.021745	
  699	    0	23.211119	38.427677	4.661425	1.118702	-1.008644	2.588750	0.226868	0.386963	0.049927	0.999887	0.005593	-0.005043	0.012943	
  700	    0	21.272535	48.720056	6.866343	-0.402262	-0.322344	1.062781	0.210022	0.488459	0.068022	0.999982	-0.002011	-0.001612	0.005314	
  701	    0	10.715420	42.877021	11.460713	-1.751543	0.466925	-0.230411	0.107910	0.429626	0.110596	0.999958	-0.008758	0.002335	-0.001152	
  702	    0	4.987261	30.140985	18.492105	-2.554245	1.117947	-1.737482	0.053520	0.303282	0.180763	0.999865	-0.012771	0.005589	-0.008687	
  703	    0	6.039625	26.085732	16.873796	-2.328668	1.661236	-3.166439	0.065918	0.261780	0.165161	0.999772	-0.011642	0.008306	-0.015831	
  704	    0	7.807237	18.161690	13.381790	-2.779910	2.386759	-3.896415	0.083183	0.181857	0.130319	0.999642	-0.013898	0.011932	-0.019480	
  705	    0	9.111828	10.857746	7.919856	-2.518601	2.527948	-4.306592	0.094421	0.107544	0.076660	0.999609	-0.012591	0.012638	-0.021530	
  706	    0	9.295865	6.197989	-10.061728	-0.564052	1.266780	-4.334061	0.093628	0.059670	-0.101379	0.999741	-0.002820	0.006333	-0.021668	
  707	    0	4.221166	56.123539	-72.261209	0.078603	-2.121323	-7.540533	0.070984	0.559204	-0.721741	0.999232	0.000393	-0.010604	-0.037693	
  708	    0	113.775886	29.332113	7.081281	6.391275	3.299073	-9.062098	1.150474	0.239329	0.060124	0.998327	0.031939	0.016486	-0.045285	
  709	    0	79.845435	-36.636915	6.688593	3.156365	-0.233331	-7.379607	0.784119	-0.396484	0.061707	0.999194	0.015778	-0.001166	-0.036888	
  710	    0	7.141542	35.281861	43.637298	-0.794781	1.468609	-7.173634	0.087238	0.351607	0.434372	0.999322	-0.003973	0.007341	-0.035860	
  711	    0	-22.606436	-19.074659	24.292905	-2.558301	2.748490	-4.392091	-0.226746	-0.182617	0.248413	0.999582	-0.012790	0.013741	-0.021957	
  712	    0	-6.432551	19.588599	13.878779	1.028739	2.147133	-4.372667	-0.058532	0.196488	0.140447	0.999690	0.005143	0.010735	-0.021861	
  713	    0	8.695319	17.160130	6.606125	-0.301388	2.604337	-3.827247	0.091064	0.169983	0.064636	0.999730	-0.001507	0.013021	-0.019135	
  714	    0	14.727559	-4.586505	1.632057	-1.553091	2.305411	-3.467464	0.146630	-0.048291	0.014997	0.999753	-0.007765	0.011526	-0.017336	
  715	    0	18.809803	9.643775	-0.861215	0.341817	1.777945	-3.312117	0.189575	0.093323	-0.010132	0.999822	0.001709	0.008889	-0.016560	
  716	    0	15.800464	12.443025	-9.665928	-0.921666	1.397568	-2.543738	0.158883	0.121963	-0.098333	0.999884	-0.004608	0.006988	-0.012718	
  717	    0	16.292850	7.740633	-0.883471	-0.269324	1.312479	-2.018024	0.163635	0.075745	-0.010010	0.999927	-0.001347	0.006562	-0.010090	
  718	    0	27.095584	2.234134	2.687948	-0.086023	1.354438	-1.865238	0.271322	0.019823	0.025034	0.999933	-0.000430	0.006772	-0.009326	
  719	    0	34.672245	1.840438	-1.749266	-0.017548	1.210233	-1.602200	0.346741	0.015625	-0.019592	0.999949	-0.000088	0.006051	-0.008011	
  720	    0	30.563142	0.755097	-4.558695	-0.662621	0.849353	-1.356142	0.305475	0.005325	-0.046905	0.999962	-0.003313	0.004247	-0.006781	
  721	    0	21.934530	-10.672855	-1.098849	-1.560808	0.486000	-1.058214	0.218750	-0.107971	-0.010681	0.999952	-0.007804	0.002430	-0.005291	
  722	    0	20.406791	-4.412563	0.672357	-2.710628	0.456444	-0.896676	0.203883	-0.044948	0.006864	0.999895	-0.013553	0.002282	-0.004483	
  723	    0	22.865871	-9.299826	-1.595000	-4.502312	0.759955	-0.573781	0.228333	-0.093994	-0.014709	0.999735	-0.022510	0.003799	-0.002869	
  724	    0	20.716012	-15.376334	-4.880967	-5.550547	0.932054	-0.275267	0.206730	-0.155341	-0.045477	0.999602	-0.027749	0.004660	-0.001376	
  725	    0	18.747049	-16.394287	-4.415126	-4.139071	0.884314	-0.624895	0.186768	-0.165405	-0.041565	0.999771	-0.020694	0.004421	-0.003124	
  726	    0	22.598862	-6.948874	-7.484767	-1.503806	1.229901	-2.129628	0.224764	-0.072453	-0.075695	0.999896	-0.007519	0.006149	-0.010648	
  727	    0	24.875819	6.508487	-5.175741	0.837972	1.774754	-4.161439	0.249573	0.060120	-0.053711	0.999735	0.004189	0.008873	-0.020805	
  728	    0	26.423708	15.979667	-3.866100	1.926202	2.488019	-5.828015	0.268254	0.152402	-0.040490	0.999452	0.009629	0.012438	-0.029135	
  729	    0	25.410044	9.706576	-4.546668	2.404038	2.918958	-6.665144	0.256470	0.089111	-0.048096	0.999266	0.012017	0.014591	-0.033318	
  730	    0	31.135920	10.716787	-3.909172	2.565399	2.789009	-7.647165	0.314591	0.095706	-0.042188	0.999089	0.012823	0.013941	-0.038224	
  731	    0	34.935733	0.168633	-4.016522	2.620959	3.200787	-7.702038	0.348389	-0.011169	-0.045837	0.999044	0.013101	0.015999	-0.038498	
  732	    0	31.593556	-7.815635	-3.887626	3.479485	2.542121	-7.356392	0.312255	-0.088949	-0.044347	0.999091	0.017392	0.012707	-0.036771	
  733	    0	27.610141	-4.464010	-4.105470	3.686917	2.310333	-7.507390	0.273682	-0.054138	-0.045166	0.999059	0.018429	0.011548	-0.037525	
  734	    0	25.773402	-3.350387	-5.799360	2.805340	1.878494	-7.405036	0.255716	-0.042157	-0.060953	0.999171	0.014023	0.009390	-0.037015	
  735	    0	25.545464	-1.535346	-7.401439	1.140881	1.647028	-7.505397	0.254028	-0.024475	-0.076233	0.999246	0.005703	0.008233	-0.037518	
  736	    0	25.759475	-1.869999	-7.504774	-0.902215	1.697974	-7.586699	0.255981	-0.028777	-0.077111	0.999234	-0.004510	0.008488	-0.037924	
  737	    0	26.305554	-5.156481	-6.539312	-2.987771	1.962275	-7.518651	0.260193	-0.062378	-0.067078	0.999133	-0.014935	0.009809	-0.037582	
  738	    0	26.648792	-10.150793	-4.254113	-4.507047	2.430776	-7.354718	0.261970	-0.112169	-0.043296	0.998996	-0.022528	0.012150	-0.036761	
  739	    0	25.446714	-13.498300	-1.418763	-5.119413	2.905536	-7.073418	0.249268	-0.144226	-0.014221	0.998941	-0.025588	0.014523	-0.035355	
  740	    0	22.850856	-15.580904	0.667435	-5.091294	3.156015	-6.740565	0.223201	-0.163214	0.007216	0.998983	-0.025448	0.015775	-0.033691	
  741	    0	20.072307	-17.471391	1.833594	-4.525599	3.322271	-6.406814	0.195312	-0.180603	0.019104	0.999093	-0.022621	0.016606	-0.032024	
  742	    0	17.806949	-19.459389	1.700639	-3.194611	3.197282	-6.027884	0.172379	-0.199572	0.017382	0.999290	-0.015969	0.015983	-0.030132	
  743	    0	16.541983	-19.675148	0.612777	-1.560293	2.862286	-5.594849	0.159912	-0.201233	0.005371	0.999475	-0.007800	0.014309	-0.027969	
  744	    0	15.169646	-17.706976	-0.293287	-0.122087	2.507551	-5.133183	0.147035	-0.180886	-0.004686	0.999592	-0.000610	0.012536	-0.025662	
  745	    0	12.297639	-15.485989	-2.109025	1.057738	2.015139	-4.531583	0.119202	-0.157471	-0.023132	0.999678	0.005288	0.010075	-0.022655	
  746	    0	8.972181	-11.686472	-4.984224	1.801639	1.328578	-3.844578	0.087121	-0.118097	-0.051487	0.999752	0.009007	0.006642	-0.019221	
  747	    0	5.971323	-8.627548	-7.285618	2.059486	0.572238	-3.093902	0.058167	-0.086426	-0.073914	0.999823	0.010297	0.002861	-0.015469	
  748	    0	2.307462	-6.168684	-9.457987	2.074701	-0.175101	-2.168356	0.022494	-0.060947	-0.095195	0.999887	0.010373	-0.000875	-0.010841	
  749	    0	-2.126814	-3.491136	-9.933113	1.503778	-0.767339	-0.995652	-0.021057	-0.034058	-0.099670	0.999951	0.007519	-0.003837	-0.004978	
  750	    0	-8.043222	-2.011821	-8.236849	0.212480	-1.123817	0.511173	-0.079916	-0.020235	-0.082840	0.999980	0.001062	-0.005619	0.002556	
  751	    0	-19.369183	-4.241332	-2.998031	-0.254638	-1.435130	2.176729	-0.192993	-0.044556	-0.031311	0.999914	-0.001273	-0.007175	0.010883	
  752	    0	-23.550453	-4.776156	-2.514319	1.501614	-1.936724	4.231493	-0.234166	-0.052524	-0.027798	0.999701	0.007507	-0.009683	0.021155	
  753	    0	-10.262607	-6.986962	-2.612566	2.337283	-2.325647	5.494867	-0.100342	-0.072327	-0.028137	0.999486	0.011684	-0.011626	0.027470	
  754	    0	-3.158803	-7.284066	-2.791237	2.088391	-2.341356	6.169024	-0.028993	-0.073462	-0.029027	0.999401	0.010440	-0.011704	0.030839	
  755	    0	-1.677950	-7.414126	-1.647619	2.300265	-2.488567	6.962036	-0.013977	-0.074463	-0.017517	0.999250	0.011498	-0.012440	0.034801	
  756	    0	-0.050163	-5.039878	-2.708692	2.263534	-2.674687	7.568073	0.001764	-0.050050	-0.027641	0.999130	0.011314	-0.013370	0.037829	
  757	    0	2.294457	-3.009761	-3.564109	1.803582	-2.671888	8.048480	0.024597	-0.028809	-0.035583	0.999060	0.009015	-0.013355	0.040230	
  758	    0	3.337987	-3.628694	-3.325366	1.402372	-2.577694	8.484256	0.035298	-0.034584	-0.033053	0.998992	0.007010	-0.012884	0.042407	
  759	    0	4.624083	-4.275672	-3.069524	1.503732	-2.553730	8.891499	0.048462	-0.040405	-0.030396	0.998901	0.007516	-0.012764	0.044441	
  760	    0	7.409162	-5.733293	-2.774314	1.926617	-2.595409	9.227995	0.076978	-0.053560	-0.027285	0.998805	0.009629	-0.012972	0.046122	
  761	    0	10.199978	-7.087773	-2.586593	2.443407	-2.605028	9.490455	0.105530	-0.065613	-0.025330	0.998714	0.012212	-0.013020	0.047432	
  762	    0	11.525068	-6.622201	-2.836513	2.915561	-2.523996	9.699647	0.118619	-0.060114	-0.027788	0.998638	0.014571	-0.012614	0.048476	
  763	    0	10.966767	-4.794823	-3.471567	3.108144	-2.407247	9.844238	0.112244	-0.041931	-0.034058	0.998595	0.015533	-0.012031	0.049198	
  764	    0	10.222198	-2.239783	-4.546525	3.070229	-2.320848	10.106433	0.103676	-0.016493	-0.044551	0.998538	0.015344	-0.011599	0.050508	
  765	    0	10.888864	-1.281286	-5.425968	2.382527	-2.189215	10.520905	0.109924	-0.006409	-0.053162	0.998486	0.011907	-0.010941	0.052578	
  766	    0	12.871585	-0.226832	-4.856920	1.996913	-2.279350	10.889509	0.129109	0.005232	-0.047071	0.998403	0.009979	-0.011391	0.054419	
  767	    0	16.333327	0.877468	-5.601958	1.404586	-2.622721	11.134396	0.163208	0.018250	-0.053772	0.998340	0.007019	-0.013106	0.055641	
  768	    0	21.993097	2.758743	-4.150175	0.073282	-2.774987	11.092315	0.218498	0.039751	-0.038449	0.998365	0.000366	-0.013867	0.055431	
  769	    0	26.639600	5.964497	-2.231513	-1.094444	-2.902233	10.838716	0.262939	0.073853	-0.018860	0.998411	-0.005469	-0.014503	0.054165	
  770	    0	30.538128	10.803092	-1.482721	-1.895174	-3.017279	10.594733	0.299286	0.123879	-0.011404	0.998438	-0.009471	-0.015079	0.052946	
  771	    0	36.484013	16.111109	-0.036015	-1.813455	-3.015872	10.339153	0.355835	0.179688	0.003479	0.998508	-0.009063	-0.015072	0.051670	
  772	    0	42.331949	20.915495	5.057373	-1.556165	-2.940971	10.018995	0.411343	0.230384	0.054945	0.998607	-0.007777	-0.014698	0.050072	
  773	    0	48.822480	27.307708	11.201293	-1.620175	-2.630137	9.279516	0.473328	0.296204	0.115967	0.998804	-0.008098	-0.013145	0.046379	
  774	    0	53.223853	31.243184	14.074638	-1.985799	-1.913297	8.282239	0.517303	0.335474	0.142488	0.999047	-0.009926	-0.009563	0.041398	
  775	    0	43.881944	28.605154	14.106280	-1.616812	-1.473540	6.691598	0.427856	0.301636	0.141846	0.999380	-0.008082	-0.007366	0.033451	
  776	    0	29.291843	28.069242	5.756084	-0.595717	-1.178081	4.365918	0.286354	0.287165	0.058412	0.999740	-0.002978	-0.005890	0.021828	
  777	    0	24.599884	31.958301	6.015264	0.840970	-0.818653	2.064563	0.242432	0.321838	0.062500	0.999929	0.004205	-0.004093	0.010323	
  778	    0	17.600751	33.030798	14.440343	2.706805	-0.607510	0.131993	0.175342	0.328424	0.149390	0.999903	0.013534	-0.003037	0.000660	
  779	    0	10.208241	34.674194	18.302852	3.574615	-0.066190	-1.899086	0.105286	0.342407	0.189209	0.999795	0.017872	-0.000331	-0.009495	
  780	    0	7.301596	32.308575	16.243734	3.064818	0.547078	-3.505265	0.079086	0.319198	0.167138	0.999724	0.015323	0.002735	-0.017525	
  781	    0	11.009986	23.152986	12.477746	1.869579	1.011759	-4.406415	0.115784	0.227844	0.126343	0.999701	0.009347	0.005058	-0.022030	
  782	    0	14.618474	15.157960	5.507360	1.012718	1.256503	-4.764678	0.150081	0.147757	0.054893	0.999683	0.005063	0.006282	-0.023821	
  783	    0	8.920166	9.012042	-9.168901	1.351297	0.897495	-4.552140	0.090820	0.088684	-0.091492	0.999707	0.006756	0.004487	-0.022758	
  784	    0	-0.064948	11.231945	-47.552399	2.759537	-2.104657	-4.452534	0.006940	0.118768	-0.473868	0.999601	0.013796	-0.010522	-0.022260	
  785	    0	55.229681	28.402433	-70.764105	-4.531929	-2.916518	-9.789792	0.575073	0.240234	-0.705139	0.998439	-0.022648	-0.014575	-0.048923	
  786	    0	102.939952	24.256178	44.368587	0.653487	5.248690	-7.260093	1.048437	0.203333	0.417039	0.998991	0.003266	0.026235	-0.036288	
  787	    0	7.634677	-1.150914	1.630251	-4.219338	-0.058764	-7.246233	0.075867	-0.013916	0.016602	0.999121	-0.021091	-0.000294	-0.036221	
  788	    0	-13.509178	-5.783032	33.476513	1.764525	1.222196	-5.130284	-0.134520	-0.057330	0.335081	0.999613	0.008821	0.006110	-0.025648	
  789	    0	-17.626291	8.398174	8.481815	-0.930120	1.746741	-4.584980	-0.173523	0.088379	0.085938	0.999688	-0.004650	0.008733	-0.022923	
  790	    0	12.081917	22.486786	9.157267	0.949002	2.187761	-4.327451	0.126639	0.221736	0.091266	0.999695	0.004745	0.010938	-0.021635	
  791	    0	19.274263	1.207830	2.711106	-0.702721	2.567680	-3.373215	0.193237	0.008911	0.024597	0.999768	-0.003513	0.012837	-0.016865	
  792	    0	21.648678	-2.521487	5.571054	-0.114067	2.005702	-3.296485	0.216577	-0.028753	0.053555	0.999813	-0.000570	0.010028	-0.016481	
  793	    0	15.841454	6.660255	0.171388	0.317399	1.670352	-3.083961	0.159424	0.064148	0.000488	0.999845	0.001587	0.008351	-0.015419	
  794	    0	19.651836	17.897151	-4.706537	-0.687244	1.481114	-2.577119	0.198442	0.176256	-0.049139	0.999884	-0.003436	0.007405	-0.012885	
  795	    0	24.395277	-0.996651	-2.513524	-0.743698	1.247445	-2.309489	0.243652	-0.012878	-0.026611	0.999907	-0.003718	0.006237	-0.011547	
  796	    0	33.765233	1.573594	0.096693	-0.103381	0.964952	-2.263508	0.337801	0.011913	-0.000669	0.999924	-0.000517	0.004825	-0.011317	
  797	    0	29.767830	0.965855	-4.019531	-1.019122	0.730915	-2.125603	0.297607	0.006287	-0.041321	0.999924	-0.005095	0.003654	-0.010628	
  798	    0	21.141749	-8.776903	-2.854324	-2.022048	0.435462	-1.948994	0.210485	-0.090109	-0.028099	0.999899	-0.010110	0.002177	-0.009745	
  799	    0	21.128258	-8.646439	3.162353	-2.694629	0.371568	-1.763993	0.210571	-0.087891	0.032410	0.999868	-0.013473	0.001858	-0.008820	
  800	    0	23.608981	-8.801582	3.627787	-4.058975	0.706158	-1.562054	0.235527	-0.089108	0.037247	0.999757	-0.020293	0.003531	-0.007810	
  801	    0	20.582253	-14.635147	2.473084	-5.512233	1.153914	-1.141514	0.205139	-0.146790	0.027588	0.999587	-0.027557	0.005769	-0.005707	
  802	    0	13.338955	-19.170808	-2.383070	-5.935649	1.265343	-0.970230	0.132325	-0.192963	-0.018955	0.999527	-0.029674	0.006326	-0.004850	
  803	    0	10.492908	-14.541265	-2.494268	-4.359647	1.004884	-1.439799	0.103760	-0.146667	-0.022278	0.999723	-0.021796	0.005024	-0.007198	
  804	    0	16.683692	-8.579233	-5.842820	-1.343770	1.017412	-2.204203	0.165577	-0.088016	-0.058686	0.999904	-0.006719	0.005087	-0.011021	
  805	    0	25.146769	0.427176	-9.115378	1.200926	1.397965	-2.920677	0.250854	0.001160	-0.092896	0.999850	0.006004	0.006989	-0.014603	
  806	    0	30.803216	4.289531	-7.637759	2.511468	1.739296	-3.852279	0.308118	0.037938	-0.078560	0.999698	0.012556	0.008696	-0.019259	
  807	    0	23.801784	7.470742	-8.450821	1.558299	2.022794	-4.704846	0.238831	0.069763	-0.086365	0.999641	0.007791	0.010113	-0.023521	
  808	    0	19.595986	6.827129	-6.161035	0.979760	2.381679	-5.390015	0.196960	0.063280	-0.063634	0.999554	0.004898	0.011907	-0.026946	
  809	    0	23.973685	8.678259	-6.010541	0.356353	2.159672	-5.960321	0.241516	0.079712	-0.062561	0.999496	0.001781	0.010797	-0.029797	
  810	    0	24.230038	-2.015212	-6.753870	-0.135255	2.641194	-5.974306	0.240634	-0.027405	-0.070707	0.999466	-0.000676	0.013204	-0.029866	
  811	    0	21.540782	-15.409429	-5.656966	0.456500	2.260180	-5.671815	0.210266	-0.159973	-0.059326	0.999531	0.002282	0.011299	-0.028355	
  812	    0	21.123726	-17.602859	-6.343434	1.255997	1.845270	-5.739738	0.205475	-0.181570	-0.066477	0.999525	0.006279	0.009225	-0.028694	
  813	    0	20.856083	-17.065465	-6.949747	0.938554	1.665170	-5.627507	0.203064	-0.176086	-0.072021	0.999558	0.004692	0.008325	-0.028133	
  814	    0	17.187471	-16.061081	-5.361214	0.110830	1.585009	-5.168972	0.167216	-0.164943	-0.055040	0.999634	0.000554	0.007924	-0.025842	
  815	    0	13.435925	-14.859106	-5.179041	-0.638457	1.423033	-4.797109	0.130371	-0.151917	-0.052246	0.999681	-0.003192	0.007114	-0.023983	
  816	    0	10.827708	-14.008125	-5.821319	-1.448008	1.126208	-4.454090	0.104790	-0.142860	-0.057782	0.999709	-0.007239	0.005630	-0.022268	
  817	    0	10.106739	-13.662481	-6.559523	-2.034747	0.783607	-4.032488	0.098022	-0.139282	-0.064575	0.999737	-0.010173	0.003918	-0.020161	
  818	    0	10.522761	-13.703247	-6.259495	-2.316272	0.522463	-3.581132	0.102582	-0.139600	-0.061258	0.999769	-0.011580	0.002612	-0.017904	
  819	    0	10.139769	-13.318602	-5.405640	-2.312618	0.348113	-3.153431	0.099182	-0.135376	-0.052673	0.999806	-0.011562	0.001740	-0.015766	
  820	    0	9.493428	-12.672629	-4.226285	-2.228282	0.277534	-2.753784	0.093116	-0.128478	-0.040968	0.999842	-0.011141	0.001388	-0.013768	
  821	    0	9.362723	-11.733077	-2.711229	-1.861641	0.239763	-2.320185	0.092224	-0.118652	-0.026123	0.999888	-0.009308	0.001199	-0.011600	
  822	    0	10.117020	-10.176436	-2.289635	-0.916497	0.052453	-1.793892	0.100245	-0.102770	-0.022453	0.999949	-0.004582	0.000262	-0.008969	
  823	    0	10.582457	-8.534576	-3.013959	0.245859	-0.292970	-1.075750	0.105408	-0.085876	-0.030090	0.999983	0.001229	-0.001465	-0.005379	
  824	    0	9.549219	-6.029981	-5.381116	1.070221	-0.735479	-0.143434	0.095647	-0.060081	-0.053782	0.999978	0.005351	-0.003677	-0.000717	
  825	    0	5.757425	0.198756	-5.866260	1.227781	-1.031511	1.174183	0.057861	0.002686	-0.058350	0.999950	0.006139	-0.005157	0.005871	
  826	    0	1.311429	1.796094	-4.323638	1.331006	-1.265390	2.654763	0.013144	0.018422	-0.043032	0.999869	0.006655	-0.006327	0.013273	
  827	    0	1.417062	-1.049985	-4.545958	1.232429	-1.539726	3.732577	0.014709	-0.009949	-0.045410	0.999777	0.006162	-0.007698	0.018661	
  828	    0	4.742189	0.573194	-3.282486	2.288539	-1.756893	4.727968	0.047548	0.007227	-0.032331	0.999616	0.011441	-0.008783	0.023637	
  829	    0	-4.558758	4.908896	-5.283328	3.108769	-1.799904	5.465910	-0.046448	0.048645	-0.052490	0.999465	0.015541	-0.008998	0.027325	
  830	    0	-2.989397	6.302874	-6.445090	2.398776	-1.956184	6.168827	-0.031207	0.062849	-0.063997	0.999404	0.011992	-0.009779	0.030838	
  831	    0	3.511829	2.708459	-6.174283	1.127086	-2.096784	6.489329	0.034851	0.028564	-0.061218	0.999402	0.005634	-0.010482	0.032440	
  832	    0	6.837226	-0.619253	-6.119507	0.453666	-2.121242	6.885689	0.069172	-0.003682	-0.060474	0.999348	0.002268	-0.010604	0.034421	
  833	    0	8.812974	-0.898878	-5.370051	0.318988	-2.065597	7.417607	0.088928	-0.005615	-0.052795	0.999257	0.001595	-0.010325	0.037079	
  834	    0	9.789701	0.147969	-3.439217	0.281984	-2.077292	7.845173	0.098087	0.005373	-0.033368	0.999175	0.001410	-0.010384	0.039215	
  835	    0	9.274642	-0.210342	-1.960733	0.266535	-2.396330	8.021601	0.092957	0.001648	-0.018494	0.999123	0.001332	-0.011978	0.040096	
  836	    0	8.558120	-0.291034	-1.586564	0.473744	-2.855057	8.205522	0.085818	0.000644	-0.014643	0.999053	0.002368	-0.014271	0.041015	
  837	    0	10.220439	-0.953839	-1.566847	0.746420	-3.226662	8.614355	0.102722	-0.005066	-0.014038	0.998935	0.003731	-0.016128	0.043056	
  838	    0	14.319901	-3.166601	-0.594048	0.879826	-3.447751	9.067496	0.144512	-0.025113	-0.003576	0.998814	0.004397	-0.017232	0.045320	
  839	    0	18.776217	-1.722862	0.108653	1.498492	-3.736976	9.388237	0.188232	-0.008423	0.004517	0.998695	0.007489	-0.018677	0.046921	
  840	    0	24.389050	3.163012	-0.281613	1.351774	-3.961629	9.513177	0.242008	0.043171	0.002257	0.998650	0.006756	-0.019799	0.047544	
  841	    0	29.554184	9.053253	-0.562553	0.157426	-3.959879	9.502793	0.290833	0.104431	0.000244	0.998674	0.000787	-0.019791	0.047493	
  842	    0	32.154590	12.281738	2.624728	-0.616143	-3.829472	9.279538	0.314813	0.137625	0.031911	0.998735	-0.003079	-0.019139	0.046378	
  843	    0	34.762998	16.122308	4.226890	-0.160279	-3.772473	8.846641	0.339172	0.176392	0.048584	0.998843	-0.000801	-0.018855	0.044216	
  844	    0	34.913546	22.810263	6.359752	0.196907	-3.493761	8.438947	0.337921	0.242455	0.069801	0.998957	0.000984	-0.017463	0.042180	
  845	    0	34.132110	23.962458	9.650704	0.272639	-3.190779	7.721669	0.330139	0.252380	0.102173	0.999126	0.001363	-0.015949	0.038597	
  846	    0	31.904228	22.441168	12.299541	1.292317	-2.750227	6.522823	0.309773	0.233797	0.128789	0.999352	0.006460	-0.013748	0.032607	
  847	    0	25.742723	22.019503	12.220145	3.079126	-2.152584	4.785894	0.250732	0.224304	0.128357	0.999537	0.015393	-0.010761	0.023926	
  848	    0	21.746485	28.203632	5.576504	4.525196	-1.873830	2.639348	0.213155	0.283480	0.064179	0.999613	0.022623	-0.009368	0.013195	
  849	    0	18.427822	31.118043	4.099647	4.924557	-1.189364	0.967514	0.182495	0.310913	0.049744	0.999667	0.024620	-0.005946	0.004837	
  850	    0	14.697562	38.520159	12.228198	4.820157	-0.680419	-0.284986	0.147083	0.381888	0.132013	0.999702	0.024098	-0.003402	-0.001425	
  851	    0	11.230877	42.253025	16.994509	3.827168	-0.000572	-1.364993	0.115173	0.418396	0.177979	0.999793	0.019135	-0.000003	-0.006824	
  852	    0	5.577586	34.843550	13.830978	2.444965	0.304619	-2.499327	0.060325	0.345976	0.142460	0.999846	0.012224	0.001523	-0.012496	
  853	    0	2.067271	30.524845	5.771874	1.038600	0.304427	-3.157190	0.025574	0.304565	0.059265	0.999861	0.005193	0.001522	-0.015785	
  854	    0	7.069783	21.619498	4.293798	-0.572427	0.640333	-3.560074	0.074668	0.215011	0.042087	0.999832	-0.002862	0.003201	-0.017799	
  855	    0	10.166233	10.904120	5.786500	-1.249023	1.183597	-3.825659	0.104065	0.107422	0.056580	0.999780	-0.006245	0.005918	-0.019127	
  856	    0	12.025261	5.060926	3.223123	-1.637414	1.337742	-4.106124	0.121471	0.048381	0.031019	0.999733	-0.008186	0.006688	-0.020529	
  857	    0	7.878397	8.034668	-11.131465	-0.754411	0.665332	-4.062949	0.080017	0.078308	-0.111877	0.999781	-0.003772	0.003326	-0.020313	
  858	    0	5.057781	51.014158	-61.394685	-0.263079	-2.757650	-6.529269	0.075633	0.507137	-0.613688	0.999371	-0.001315	-0.013785	-0.032640	
  859	    0	112.003548	38.518211	-24.436219	-0.561762	2.056422	-9.864415	1.134583	0.328735	-0.256958	0.998727	-0.002808	0.010278	-0.049301	
  860	    0	55.133428	-37.666475	5.970203	2.145807	-1.219608	-6.406898	0.538521	-0.394690	0.058842	0.999411	0.010727	-0.006097	-0.032028	
  861	    0	4.332170	17.955052	25.372830	-2.354321	-0.434042	-7.797877	0.049805	0.180664	0.251709	0.999167	-0.011768	-0.002170	-0.038979	
  862	    0	-24.913860	1.140957	25.664132	0.692440	1.140332	-4.824570	-0.247313	0.016499	0.258106	0.999686	0.003462	0.005701	-0.024120	
  863	    0	3.279262	22.272943	14.510410	0.040631	1.351325	-5.148923	0.039490	0.221741	0.144897	0.999645	0.000203	0.006756	-0.025742	
  864	    0	12.176561	17.709437	6.727411	0.068670	2.200295	-3.682419	0.125729	0.174781	0.065966	0.999769	0.000343	0.011001	-0.018411	
  865	    0	18.237370	-5.597639	9.281250	-0.690316	2.201991	-3.283149	0.182434	-0.058655	0.091003	0.999798	-0.003451	0.011009	-0.016415	
  866	    0	16.525221	7.218585	-3.085262	0.181208	1.606452	-3.132601	0.166101	0.069617	-0.032121	0.999845	0.000906	0.008032	-0.015662	
  867	    0	15.915266	16.627688	-6.338146	-0.928343	1.297048	-2.616985	0.160889	0.163879	-0.065186	0.999882	-0.004642	0.006485	-0.013084	
  868	    0	20.340862	4.576116	-1.131364	-0.676554	1.053266	-2.179012	0.203827	0.043501	-0.012536	0.999921	-0.003383	0.005266	-0.010895	
  869	    0	27.393977	2.651297	2.144640	-0.528729	0.904295	-2.104998	0.274292	0.023682	0.020142	0.999930	-0.002644	0.004521	-0.010525	
  870	    0	32.314055	5.627882	-1.737862	-0.759331	0.702109	-1.940576	0.323602	0.053071	-0.018720	0.999939	-0.003797	0.003510	-0.009703	
  871	    0	29.250494	-6.734362	-1.578673	-1.625864	0.441180	-1.735730	0.291870	-0.070007	-0.015869	0.999927	-0.008129	0.002206	-0.008678	
  872	    0	25.746802	-10.219724	1.249250	-2.508444	0.318157	-1.481109	0.256723	-0.103936	0.013380	0.999892	-0.012542	0.001591	-0.007405	
  873	    0	24.224532	-9.780684	2.316100	-3.907287	0.553361	-1.120837	0.241760	-0.098694	0.024414	0.999789	-0.019535	0.002767	-0.005604	
  874	    0	20.140634	-11.157987	-1.206408	-5.743856	0.919093	-0.909746	0.200847	-0.112797	-0.009760	0.999566	-0.028715	0.004595	-0.004548	
  875	    0	15.034956	-19.077808	-5.282095	-6.562306	0.972165	-0.724927	0.149414	-0.192932	-0.047241	0.999443	-0.032805	0.004860	-0.003624	
  876	    0	13.550866	-18.562105	-3.632385	-4.883899	0.800408	-0.871941	0.134561	-0.187031	-0.032308	0.999684	-0.024417	0.004002	-0.004359	
  877	    0	17.453681	-15.144305	-5.849242	-1.053447	0.761427	-1.597623	0.173096	-0.153137	-0.058350	0.999947	-0.005267	0.003807	-0.007988	
  878	    0	21.244944	-2.065185	-10.709402	1.944816	0.853003	-2.405651	0.211729	-0.022153	-0.108209	0.999871	0.009724	0.004265	-0.012028	
  879	    0	25.227902	1.430193	-10.207940	2.884935	1.282045	-3.423619	0.251831	0.011475	-0.103516	0.999728	0.014423	0.006410	-0.017117	
  880	    0	21.511707	3.332265	-6.960137	2.134731	1.564185	-4.173322	0.215209	0.029585	-0.070955	0.999694	0.010673	0.007820	-0.020864	
  881	    0	17.420046	6.636545	-6.598682	1.186701	1.750389	-4.874231	0.175171	0.062500	-0.067139	0.999647	0.005933	0.008751	-0.024368	
  882	    0	22.794843	8.096043	-4.609408	0.046545	1.567653	-5.215717	0.229586	0.074998	-0.047872	0.999629	0.000233	0.007837	-0.026075	
  883	    0	23.416005	3.055375	-6.986745	-1.387227	1.737658	-5.497021	0.234253	0.023621	-0.072083	0.999560	-0.006935	0.008687	-0.027481	
  884	    0	19.880353	-11.594287	-6.302923	-0.843154	1.680395	-5.160599	0.195184	-0.121280	-0.064176	0.999622	-0.004215	0.008401	-0.025800	
  885	    0	21.989337	-17.312868	-5.916975	-0.520966	1.473431	-5.409192	0.214661	-0.179138	-0.060303	0.999603	-0.002604	0.007366	-0.027042	
  886	    0	23.114970	-18.093703	-4.780728	-0.452106	1.395997	-5.660100	0.225566	-0.187484	-0.048976	0.999572	-0.002260	0.006979	-0.028296	
  887	    0	21.003476	-17.767157	-3.534471	-0.741673	1.472853	-5.306927	0.204956	-0.183289	-0.036194	0.999614	-0.003708	0.007363	-0.026531	
  888	    0	18.177359	-17.547120	-3.232566	-0.984112	1.414268	-4.905109	0.177165	-0.180015	-0.032711	0.999661	-0.004920	0.007071	-0.024523	
  889	    0	15.058488	-16.167395	-3.802479	-1.463467	1.128693	-4.588023	0.146606	-0.165344	-0.037659	0.999694	-0.007317	0.005643	-0.022938	
  890	    0	12.656343	-14.913029	-4.518390	-2.122126	0.799827	-4.190841	0.123218	-0.152207	-0.044077	0.999716	-0.010610	0.003999	-0.020952	
  891	    0	12.295523	-14.660766	-4.985520	-2.535472	0.507590	-3.818087	0.119995	-0.149536	-0.048279	0.999734	-0.012676	0.002538	-0.019089	
  892	    0	12.109778	-13.891402	-5.148700	-2.633111	0.224894	-3.447613	0.118615	-0.141636	-0.049768	0.999763	-0.013165	0.001124	-0.017237	
  893	    0	11.344020	-13.393502	-4.705558	-2.591877	-0.021173	-3.035175	0.111389	-0.136230	-0.045288	0.999801	-0.012959	-0.000106	-0.015175	
  894	    0	10.620140	-12.609502	-3.891577	-2.405866	-0.227177	-2.608627	0.104584	-0.127921	-0.037265	0.999842	-0.012029	-0.001136	-0.013042	
  895	    0	10.377353	-11.318228	-2.895530	-1.981234	-0.341809	-2.140885	0.102600	-0.114563	-0.027649	0.999891	-0.009906	-0.001709	-0.010704	
  896	    0	10.330581	-9.478327	-3.206362	-1.215003	-0.543413	-1.605826	0.102625	-0.095800	-0.031204	0.999945	-0.006075	-0.002717	-0.008029	
  897	    0	10.488815	-7.015108	-4.164276	-0.298120	-0.879675	-0.772862	0.104797	-0.070618	-0.041077	0.999981	-0.001491	-0.004398	-0.003864	
  898	    0	9.138441	-2.088035	-5.654836	0.151063	-1.258478	0.366595	0.091776	-0.020670	-0.055987	0.999978	0.000755	-0.006292	0.001833	
  899	    0	5.355392	2.557902	-5.773357	-0.003052	-1.571502	1.802106	0.053772	0.026062	-0.057312	0.999928	-0.000015	-0.007857	0.009010	
  900	    0	3.410975	-0.640035	-4.743623	-0.374243	-1.763442	3.182779	0.034623	-0.005940	-0.047121	0.999832	-0.001871	-0.008817	0.015913	
  901	    0	3.784854	-2.322982	-1.775695	0.901119	-2.104200	4.240065	0.038513	-0.022339	-0.017456	0.999709	0.004505	-0.010520	0.021198	
  902	    0	-4.055865	3.166292	-3.550788	2.998334	-2.452350	5.420352	-0.040971	0.031089	-0.035540	0.999445	0.014989	-0.012259	0.027097	
  903	    0	-3.568292	3.918823	-4.795573	3.434806	-2.455532	6.258353	-0.036316	0.038879	-0.047729	0.999288	0.017170	-0.012275	0.031284	
  904	    0	3.858147	2.203475	-4.607040	2.598823	-2.519649	6.733054	0.038371	0.023921	-0.045283	0.999269	0.012991	-0.012595	0.033657	
  905	    0	8.582354	-1.783516	-4.943969	2.041565	-2.481700	7.053615	0.086975	-0.014282	-0.048523	0.999249	0.010205	-0.012405	0.035259	
  906	    0	10.882348	-1.433199	-5.436411	1.822010	-2.242122	7.517748	0.109848	-0.009727	-0.053239	0.999188	0.009108	-0.011208	0.037579	
  907	    0	12.168238	0.599063	-4.115501	1.692896	-2.002551	8.049126	0.121704	0.011230	-0.039856	0.999104	0.008462	-0.010010	0.040234	
  908	    0	11.372028	0.489454	-2.760610	1.572347	-2.037316	8.358949	0.113650	0.009857	-0.026383	0.999043	0.007859	-0.010183	0.041781	
  909	    0	9.924586	0.647317	-2.485487	1.643359	-2.332337	8.579124	0.099121	0.010925	-0.023621	0.998978	0.008214	-0.011658	0.042881	
  910	    0	10.859044	0.137605	-1.907540	1.883458	-2.623409	8.979580	0.108615	0.006424	-0.017606	0.998861	0.009414	-0.013112	0.044881	
  911	    0	14.545599	-1.624215	-2.246404	2.355633	-2.863777	9.446191	0.146301	-0.009094	-0.020508	0.998713	0.011773	-0.014313	0.047211	
  912	    0	20.340875	-1.679195	-2.061068	3.272119	-3.059346	9.819409	0.204181	-0.006472	-0.017653	0.998544	0.016353	-0.015289	0.049073	
  913	    0	27.762002	4.564941	-2.575349	3.777959	-3.265568	10.047078	0.275208	0.059937	-0.020203	0.998426	0.018880	-0.016319	0.050209	
  914	    0	30.691260	15.254304	-3.411937	2.164566	-3.121762	10.159704	0.299096	0.168197	-0.027644	0.998529	0.010818	-0.015601	0.050774	
  915	    0	28.962911	18.154253	-0.773143	1.021472	-2.829513	10.047940	0.280090	0.195801	-0.002747	0.998625	0.005105	-0.014141	0.050217	
  916	    0	31.340976	22.460795	-1.410607	1.683008	-2.867028	9.618904	0.302271	0.239411	-0.007745	0.998705	0.008411	-0.014329	0.048074	
  917	    0	34.626742	33.015713	-3.798021	1.867648	-2.872645	9.099348	0.331238	0.345764	-0.029968	0.998818	0.009335	-0.014358	0.045479	
  918	    0	36.838823	34.381483	1.251971	1.590110	-3.032925	8.226064	0.353570	0.358420	0.020769	0.999007	0.007948	-0.015160	0.041117	
  919	    0	33.914115	35.423050	4.383238	1.581953	-2.843967	6.856657	0.326050	0.365173	0.051392	0.999280	0.007908	-0.014216	0.034275	
  920	    0	26.536081	34.096848	8.953937	2.374802	-2.323105	4.865396	0.255886	0.346151	0.096639	0.999566	0.011872	-0.011614	0.024323	
  921	    0	21.599463	37.883456	5.380518	1.813796	-1.835731	2.510969	0.210693	0.380981	0.059204	0.999838	0.009068	-0.009178	0.012554	
  922	    0	22.430934	48.027702	10.892883	0.801861	-1.208132	1.138322	0.220901	0.481095	0.112198	0.999957	0.004009	-0.006041	0.005692	
  923	    0	20.570448	54.976857	15.779685	-0.640680	-0.387574	-0.038147	0.205505	0.550232	0.156433	0.999992	-0.003203	-0.001938	-0.000191	
  924	    0	6.135483	43.031174	18.068819	-1.889463	0.837917	-1.103045	0.064478	0.431642	0.176349	0.999931	-0.009447	0.004189	-0.005515	
  925	    0	6.432686	36.815952	15.953326	-2.413913	1.222312	-2.993215	0.070801	0.369019	0.154663	0.999796	-0.012069	0.006111	-0.014965	
  926	    0	9.005501	26.090118	10.887055	-2.075408	1.621031	-4.202320	0.096389	0.260026	0.105405	0.999692	-0.010376	0.008104	-0.021009	
  927	    0	13.462697	17.009994	9.435953	-1.985231	1.733620	-4.864359	0.139526	0.167664	0.091492	0.999617	-0.009925	0.008667	-0.024319	
  928	    0	15.703952	9.902372	7.908933	-1.374043	1.883181	-5.090425	0.160232	0.095506	0.076926	0.999608	-0.006869	0.009415	-0.025449	
  929	    0	14.079871	3.834010	2.454036	-0.989462	1.737424	-5.008541	0.141907	0.034912	0.023132	0.999636	-0.004947	0.008686	-0.025040	
  930	    0	2.053894	-14.562779	-32.245327	1.614316	-0.668578	-3.979424	0.018751	-0.143404	-0.323552	0.999763	0.008071	-0.003343	-0.019896	
  931	    0	20.936570	-21.501365	-84.099711	3.640282	-4.964940	-5.661135	0.224304	-0.205933	-0.839355	0.999125	0.018196	-0.024817	-0.028297	
  932	    0	135.152364	43.650142	36.527766	3.663984	6.122736	-9.845121	1.381071	0.362706	0.330380	0.998152	0.018309	0.030595	-0.049195	
  933	    0	34.864545	9.442157	9.196538	1.092791	-0.717144	-7.474022	0.351501	0.080811	0.093689	0.999280	0.005463	-0.003585	-0.037361	
  934	    0	-9.125846	8.310388	28.197323	0.144021	0.641134	-5.214338	-0.088150	0.085226	0.282320	0.999655	0.000720	0.003205	-0.026069	
  935	    0	-26.797063	-11.363121	11.514688	-1.822074	0.506068	-4.412503	-0.270081	-0.106628	0.116821	0.999711	-0.009109	0.002530	-0.022060	
  936	    0	8.041127	26.083544	9.062857	-1.154453	1.367527	-4.783578	0.087236	0.259318	0.088548	0.999674	-0.005772	0.006837	-0.023915	
  937	    0	21.667553	5.271298	1.418053	-1.241980	1.867072	-3.926421	0.217773	0.048523	0.011841	0.999744	-0.006209	0.009335	-0.019630	
  938	    0	23.562328	-11.366676	-0.023401	-1.252651	1.431956	-3.831202	0.233382	-0.118157	-0.001180	0.999771	-0.006263	0.007159	-0.019155	
  939	    0	14.936903	6.913764	-3.602949	0.077062	1.148485	-3.659282	0.150391	0.066406	-0.036865	0.999816	0.000385	0.005742	-0.018295	
  940	    0	15.482679	17.482003	-5.069627	-0.643379	1.353136	-2.994677	0.157069	0.172313	-0.052311	0.999860	-0.003217	0.006765	-0.014973	
  941	    0	20.312054	4.669190	-5.005190	-1.741693	1.596917	-2.682638	0.203308	0.043518	-0.052063	0.999840	-0.008708	0.007984	-0.013412	
  942	    0	28.995218	-3.530605	-1.343313	-1.152090	1.656034	-2.582856	0.289340	-0.039131	-0.015613	0.999866	-0.005760	0.008280	-0.012914	
  943	    0	31.380921	0.777936	-1.971551	-0.991095	1.422362	-2.401821	0.313721	0.003906	-0.021973	0.999890	-0.004955	0.007112	-0.012009	
  944	    0	29.180885	-5.030419	-4.027621	-2.235706	1.196344	-2.143958	0.290998	-0.053885	-0.041430	0.999862	-0.011178	0.005981	-0.010719	
  945	    0	25.205027	-12.131757	0.761925	-3.045631	0.992639	-1.715945	0.251038	-0.123352	0.008240	0.999834	-0.015227	0.004963	-0.008579	
  946	    0	18.501460	-9.136880	0.630283	-4.299570	1.314669	-1.560931	0.184340	-0.092663	0.007072	0.999717	-0.021496	0.006573	-0.007804	
  947	    0	15.549355	-14.450539	-2.552521	-5.060430	1.507179	-1.146074	0.154480	-0.145996	-0.023010	0.999635	-0.025299	0.007535	-0.005730	
  948	    0	15.431242	-17.792572	-5.007019	-4.373379	1.287197	-1.107508	0.153010	-0.179828	-0.047139	0.999724	-0.021865	0.006435	-0.005537	
  949	    0	15.954122	-15.877176	-5.491828	-1.723338	1.062804	-1.615951	0.157959	-0.160522	-0.054382	0.999916	-0.008616	0.005314	-0.008080	
  950	    0	17.149836	-10.622542	-8.996802	1.260795	0.897244	-2.189511	0.169918	-0.107518	-0.091408	0.999909	0.006304	0.004486	-0.010947	
  951	    0	23.999811	-2.536757	-10.576297	2.816989	1.327045	-2.963485	0.238892	-0.027405	-0.107727	0.999768	0.014084	0.006635	-0.014816	
  952	    0	25.913406	-0.187763	-6.756364	2.628787	1.841162	-3.780371	0.258411	-0.005857	-0.070004	0.999692	0.013143	0.009205	-0.018900	
  953	    0	17.528273	2.186918	-6.656383	1.659575	1.817711	-4.493442	0.175110	0.018494	-0.067993	0.999671	0.008297	0.009088	-0.022465	
  954	    0	19.130691	1.097207	-4.540495	1.105825	1.834521	-4.970585	0.191078	0.006478	-0.047114	0.999634	0.005528	0.009171	-0.024850	
  955	    0	21.928502	5.183730	-8.577139	-0.144025	1.619948	-5.571003	0.219910	0.045654	-0.087585	0.999578	-0.000720	0.008099	-0.027851	
  956	    0	20.098154	-10.501786	-8.418213	-0.520203	1.523411	-5.414538	0.197390	-0.110616	-0.085412	0.999600	-0.002601	0.007616	-0.027069	
  957	    0	20.201171	-16.375935	-7.229356	-0.530122	1.156004	-5.455730	0.197021	-0.169373	-0.072998	0.999607	-0.002650	0.005779	-0.027275	
  958	    0	20.594358	-14.693275	-5.841039	-0.999014	1.072648	-5.516610	0.201468	-0.152824	-0.058745	0.999592	-0.004994	0.005363	-0.027579	
  959	    0	19.163688	-14.055899	-4.719135	-1.716635	1.037726	-5.066545	0.187744	-0.145752	-0.046936	0.999628	-0.008582	0.005188	-0.025330	
  960	    0	16.380459	-13.689086	-5.176315	-2.450274	0.857644	-4.603159	0.160368	-0.141234	-0.050743	0.999650	-0.012250	0.004288	-0.023013	
  961	    0	14.518455	-14.516865	-5.457986	-3.051343	0.656394	-4.200461	0.141907	-0.148987	-0.052795	0.999658	-0.015255	0.003282	-0.021000	
  962	    0	13.740300	-15.230203	-5.085737	-3.390305	0.472502	-3.846975	0.134313	-0.155742	-0.048556	0.999668	-0.016950	0.002362	-0.019233	
  963	    0	13.058586	-15.764508	-4.394342	-3.428808	0.367774	-3.535821	0.127686	-0.160645	-0.041443	0.999695	-0.017142	0.001839	-0.017677	
  964	    0	11.502215	-15.825640	-3.063055	-3.135373	0.230809	-3.211482	0.112423	-0.160531	-0.028256	0.999747	-0.015676	0.001154	-0.016056	
  965	    0	9.405119	-14.810396	-1.929700	-2.568021	0.028230	-2.855858	0.091919	-0.149658	-0.017395	0.999815	-0.012839	0.000141	-0.014278	
  966	    0	7.830192	-12.912163	-1.332178	-1.818344	-0.156218	-2.401824	0.076753	-0.130163	-0.012081	0.999886	-0.009091	-0.000781	-0.012009	
  967	    0	7.507905	-10.833856	-2.020652	-0.768292	-0.362974	-1.759366	0.074158	-0.109070	-0.019653	0.999951	-0.003841	-0.001815	-0.008797	
  968	    0	7.960701	-8.676228	-3.881932	0.487330	-0.574115	-0.853162	0.079348	-0.087007	-0.038803	0.999984	0.002437	-0.002871	-0.004266	
  969	    0	7.589368	-4.373196	-5.849954	1.601624	-0.823986	0.453193	0.076233	-0.043091	-0.058533	0.999956	0.008008	-0.004120	0.002266	
  970	    0	4.512810	1.654840	-5.928217	1.998790	-1.222850	2.017292	0.045315	0.017594	-0.058833	0.999880	0.009994	-0.006114	0.010086	
  971	    0	4.690916	1.363805	-4.464877	0.750203	-1.467980	3.333475	0.046997	0.014587	-0.044250	0.999826	0.003751	-0.007339	0.016666	
  972	    0	3.998896	-3.705923	-2.560041	0.890233	-1.620235	4.035709	0.040931	-0.036126	-0.025434	0.999753	0.004451	-0.008101	0.020177	
  973	    0	-4.489636	1.364046	-3.160580	2.936467	-1.994653	5.198765	-0.044922	0.012939	-0.031860	0.999504	0.014680	-0.009972	0.025990	
  974	    0	-2.911028	2.263710	-4.711159	3.931051	-2.383814	6.116643	-0.029243	0.022669	-0.047014	0.999268	0.019650	-0.011916	0.030576	
  975	    0	4.464769	2.374954	-5.833093	3.170049	-2.766162	6.540039	0.044617	0.026123	-0.057312	0.999244	0.015846	-0.013827	0.032692	
  976	    0	9.029580	0.756706	-5.142908	2.000345	-2.699941	6.889313	0.090634	0.011191	-0.050107	0.999265	0.009999	-0.013496	0.034438	
  977	    0	10.821986	0.556236	-4.079531	1.092808	-2.438023	7.355850	0.108398	0.009766	-0.039429	0.999234	0.005463	-0.012187	0.036770	
  978	    0	11.725168	0.953203	-2.692240	0.623874	-2.238696	7.764843	0.117053	0.014161	-0.025572	0.999179	0.003119	-0.011190	0.038814	
  979	    0	11.172251	0.496885	-1.641529	0.280842	-2.161074	8.007058	0.111572	0.009460	-0.015198	0.999139	0.001404	-0.010802	0.040024	
  980	    0	10.128218	0.901623	-1.284299	0.160075	-2.403991	8.198562	0.100944	0.013169	-0.011619	0.999087	0.000800	-0.012016	0.040980	
  981	    0	11.011677	-0.381297	-0.704058	0.484822	-2.810858	8.553923	0.110229	0.000916	-0.005493	0.998983	0.002423	-0.014050	0.042755	
  982	    0	14.286771	-2.391455	-0.461343	0.763228	-3.164343	8.949991	0.143796	-0.017480	-0.002418	0.998866	0.003815	-0.015816	0.044733	
  983	    0	19.208611	-2.185724	0.196051	1.347146	-3.526813	9.226996	0.192749	-0.013000	0.005249	0.998757	0.006733	-0.017627	0.046116	
  984	    0	24.984786	2.043988	-0.996580	1.561662	-3.840612	9.409662	0.248644	0.032212	-0.004961	0.998678	0.007805	-0.019195	0.047028	
  985	    0	31.727276	10.081402	-3.080805	0.545168	-3.916352	9.443210	0.312561	0.115723	-0.024353	0.998690	0.002725	-0.019573	0.047195	
  986	    0	33.562213	13.439011	-1.274557	-0.820501	-3.663631	9.251622	0.329099	0.149681	-0.007269	0.998754	-0.004101	-0.018311	0.046239	
  987	    0	35.314944	14.765369	2.130067	-0.337919	-3.658146	8.766422	0.345764	0.162964	0.027405	0.998871	-0.001689	-0.018284	0.043816	
  988	    0	37.349838	22.062472	4.478508	0.624103	-3.786596	8.118305	0.363197	0.235354	0.052447	0.998992	0.003119	-0.018927	0.040578	
  989	    0	35.833456	24.264662	10.353260	1.313593	-3.643336	7.417172	0.347046	0.254944	0.111572	0.999125	0.006566	-0.018211	0.037075	
  990	    0	30.296838	23.616861	15.365053	2.138610	-2.765122	6.385306	0.293076	0.243941	0.160330	0.999337	0.010691	-0.013823	0.031919	
  991	    0	22.238624	20.536388	12.813472	3.584848	-2.002074	4.533330	0.216370	0.207947	0.134033	0.999532	0.017921	-0.010009	0.022663	
  992	    0	20.975459	23.898029	3.695549	4.123391	-1.826111	2.607450	0.206244	0.240829	0.043802	0.999660	0.020615	-0.009130	0.013036	
  993	    0	22.065216	34.827637	2.279784	3.154349	-0.964406	1.329874	0.218201	0.349304	0.029358	0.999842	0.015771	-0.004822	0.006649	
  994	    0	16.796158	41.566823	7.710176	2.434221	-0.420772	0.251967	0.167269	0.414897	0.082507	0.999923	0.012171	-0.002104	0.001260	
  995	    0	8.382140	36.412816	13.151841	1.273358	0.388531	-0.720222	0.085388	0.362976	0.133667	0.999970	0.006367	0.001943	-0.003601	
  996	    0	5.013531	33.263318	14.504935	0.449572	0.729004	-2.113579	0.054174	0.331748	0.145603	0.999934	0.002248	0.003645	-0.010568	
  997	    0	3.963418	25.584468	10.155593	-0.369089	1.191767	-3.093863	0.044189	0.255371	0.100830	0.999861	-0.001845	0.005959	-0.015469	
  998	    0	6.044012	17.759269	8.166954	-0.984449	1.356025	-3.654726	0.064224	0.176840	0.080371	0.999798	-0.004922	0.006780	-0.018272	
  999	    0	8.488987	10.642082	7.049115	-1.071246	1.503292	-3.766908	0.087402	0.105164	0.069275	0.999780	-0.005356	0.007516	-0.018833	
 1000	    0	8.888752	5.811134	6.551262	-0.798090	1.663895	-3.627455	0.090465	0.056739	0.064536	0.999792	-0.003990	0.008319	-0.018136	
 1001	    0	8.500607	3.065123	4.058860	-0.804764	1.717492	-3.541040	0.085876	0.029297	0.039734	0.999798	-0.004024	0.008587	-0.017704	
 1002	    0	8.487400	9.202372	-5.916744	1.775868	1.224224	-3.531517	0.086126	0.091034	-0.058881	0.999785	0.008879	0.006121	-0.017656	
 1003	    0	14.333966	87.798192	-85.874720	-3.260835	-3.652983	-9.522982	0.200256	0.855225	-0.869507	0.998567	-0.016296	-0.018256	-0.047592	
 1004	    0	123.595543	9.335444	1.368570	5.814746	3.173275	-7.653833	1.238347	0.045929	-0.004160	0.998719	0.029061	0.015860	-0.038253	
 1005	    0	36.524684	-37.916775	11.700952	0.696144	-1.614734	-7.037370	0.350647	-0.392090	0.118530	0.999342	0.003480	-0.008072	-0.035179	
 1006	    0	11.584785	26.658563	35.175451	-2.043512	1.264722	-7.676668	0.128262	0.265391	0.348253	0.999191	-0.010215	0.006322	-0.038373	
 1007	    0	-25.267175	-10.089293	21.560472	-0.224133	1.629019	-4.298017	-0.252991	-0.095215	0.217773	0.999735	-0.001121	0.008144	-0.021488	
 1008	    0	2.811083	16.417874	12.817609	0.185419	2.050100	-5.253726	0.033720	0.163223	0.128001	0.999601	0.000927	0.010249	-0.026265	
 1009	    0	14.971551	16.827458	2.462547	0.073249	2.445623	-3.843258	0.153198	0.165344	0.022827	0.999740	0.000366	0.012227	-0.019215	
 1010	    0	18.886366	-3.200245	6.302455	-1.605171	2.381146	-3.492653	0.189007	-0.034807	0.061047	0.999744	-0.008025	0.011905	-0.017462	
 1011	    0	15.098380	1.109549	0.468064	-0.070767	1.909003	-3.538752	0.151184	0.008423	0.003235	0.999798	-0.000354	0.009544	-0.017693	
 1012	    0	19.101128	16.188298	-5.703337	-0.501657	1.662335	-2.926777	0.192866	0.158923	-0.059032	0.999855	-0.002508	0.008311	-0.014633	
 1013	    0	21.747777	5.654132	-6.104416	-1.015324	1.364192	-2.646746	0.217773	0.053345	-0.062805	0.999876	-0.005076	0.006821	-0.013233	
 1014	    0	27.105713	-3.064005	0.395197	-0.202377	1.226277	-2.615066	0.270643	-0.034178	0.002325	0.999895	-0.001012	0.006131	-0.013075	
 1015	    0	30.943456	4.520802	-1.021438	-0.103573	1.114693	-2.663514	0.309937	0.041077	-0.011963	0.999895	-0.000518	0.005573	-0.013317	
 1016	    0	25.228282	-5.787208	-3.052509	-1.180876	0.874355	-2.278016	0.251465	-0.060923	-0.031272	0.999907	-0.005904	0.004372	-0.011390	
 1017	    0	20.351123	-8.770811	1.646084	-1.936406	0.709748	-1.961584	0.202698	-0.089539	0.016602	0.999898	-0.009682	0.003549	-0.009808	
 1018	    0	22.110566	-5.911623	2.989004	-3.111246	0.840233	-1.642317	0.220738	-0.060465	0.029896	0.999836	-0.015555	0.004201	-0.008211	
 1019	    0	22.571674	-13.445356	2.363361	-4.751140	1.233042	-1.234568	0.225037	-0.135254	0.025452	0.999680	-0.023753	0.006165	-0.006172	
 1020	    0	18.159715	-21.793164	-1.028587	-5.758570	1.332291	-0.882280	0.180587	-0.218928	-0.005197	0.999553	-0.028789	0.006660	-0.004411	
 1021	    0	13.839890	-16.750487	-1.740362	-4.175913	1.012695	-1.178076	0.137329	-0.168640	-0.014587	0.999751	-0.020878	0.005063	-0.005890	
 1022	    0	15.216329	-14.603568	-4.481150	-0.489817	0.897997	-1.893271	0.150569	-0.147576	-0.045130	0.999942	-0.002449	0.004490	-0.009466	
 1023	    0	19.271374	-5.245536	-8.381678	2.505053	1.069698	-2.288939	0.191650	-0.053589	-0.085510	0.999842	0.012525	0.005348	-0.011444	
 1024	    0	23.342216	-1.895426	-9.014735	4.145740	1.550098	-3.053842	0.232406	-0.020609	-0.092367	0.999639	0.020726	0.007750	-0.015267	
 1025	    0	18.592493	0.416186	-6.936570	4.497466	1.748358	-3.758063	0.185364	0.002258	-0.070923	0.999532	0.022484	0.008740	-0.018787	
 1026	    0	15.488016	0.560511	-5.259481	4.437453	1.898332	-4.277398	0.154462	0.003486	-0.053969	0.999479	0.022183	0.009490	-0.021383	
 1027	    0	19.984117	5.682384	-3.133685	4.680839	1.659927	-4.997524	0.200928	0.052551	-0.031738	0.999379	0.023399	0.008298	-0.024982	
 1028	    0	17.537612	5.120914	-8.621489	3.173934	1.204294	-5.035984	0.176094	0.048152	-0.086493	0.999538	0.015867	0.006021	-0.025176	
 1029	    0	12.070321	-10.407731	-6.455479	2.067784	0.870034	-4.507159	0.118042	-0.106079	-0.066162	0.999682	0.010338	0.004350	-0.022533	
 1030	    0	13.694232	-15.830998	-4.800012	1.340604	0.472302	-4.406560	0.133300	-0.160946	-0.049391	0.999732	0.006702	0.002361	-0.022031	
 1031	    0	13.679439	-15.582039	-5.102359	0.397712	0.353268	-4.239214	0.133362	-0.158569	-0.051575	0.999771	0.001988	0.001766	-0.021194	
 1032	    0	12.573143	-12.050895	-4.698684	-0.781493	0.180829	-3.927685	0.123288	-0.123129	-0.046621	0.999799	-0.003907	0.000904	-0.019637	
 1033	    0	12.500538	-9.141538	-4.646510	-2.359769	-0.024416	-3.686818	0.123291	-0.094238	-0.045349	0.999760	-0.011798	-0.000122	-0.018433	
 1034	    0	12.771873	-9.786549	-4.609470	-3.850593	-0.107968	-3.361687	0.126064	-0.100856	-0.044104	0.999673	-0.019251	-0.000540	-0.016807	
 1035	    0	12.530853	-11.663266	-4.343383	-4.769579	-0.127428	-3.036141	0.123535	-0.119507	-0.040527	0.999599	-0.023845	-0.000637	-0.015179	
 1036	    0	12.686080	-13.333485	-3.443568	-5.082076	-0.117128	-2.758220	0.125017	-0.135883	-0.030931	0.999581	-0.025407	-0.000586	-0.013789	
 1037	    0	13.055577	-13.399926	-2.339705	-4.959558	-0.122849	-2.544733	0.128845	-0.136169	-0.019958	0.999611	-0.024795	-0.000614	-0.012722	
 1038	    0	12.739479	-11.655338	-2.159218	-4.659417	-0.131240	-2.334859	0.126032	-0.118489	-0.018764	0.999660	-0.023294	-0.000656	-0.011673	
 1039	    0	11.607669	-10.002327	-2.075096	-4.262942	-0.177591	-2.062418	0.115051	-0.101624	-0.018494	0.999719	-0.021313	-0.000888	-0.010311	
 1040	    0	10.936091	-8.744931	-2.182622	-3.501162	-0.345634	-1.711955	0.108641	-0.088743	-0.020092	0.999808	-0.017505	-0.001728	-0.008559	
 1041	    0	11.611558	-6.972780	-3.230558	-2.375676	-0.588245	-1.205482	0.115784	-0.070801	-0.031128	0.999907	-0.011878	-0.002941	-0.006027	
 1042	    0	12.623844	-3.916684	-4.585952	-1.385705	-0.842104	-0.485235	0.126333	-0.039787	-0.045053	0.999964	-0.006928	-0.004210	-0.002426	
 1043	    0	10.681387	1.061345	-4.657834	-0.601774	-1.217663	0.728614	0.107056	0.010864	-0.045959	0.999969	-0.003009	-0.006088	0.003643	
 1044	    0	8.330162	2.039949	-4.453450	-0.630777	-1.483957	1.954894	0.083426	0.021075	-0.043982	0.999919	-0.003154	-0.007420	0.009774	
 1045	    0	7.876784	-2.155193	-1.394374	0.080875	-1.790504	2.628437	0.079163	-0.020508	-0.013245	0.999873	0.000404	-0.008952	0.013142	
 1046	    0	1.826906	0.190310	-1.552717	1.928692	-2.378484	3.458712	0.018414	0.002369	-0.015287	0.999733	0.009643	-0.011891	0.017292	
 1047	    0	-3.177946	2.160429	-3.734562	3.289716	-2.668399	4.244868	-0.031738	0.021545	-0.037415	0.999550	0.016446	-0.013340	0.021221	
 1048	    0	1.374697	2.712028	-4.163736	3.255657	-2.809449	4.891497	0.013646	0.028126	-0.040993	0.999470	0.016275	-0.014045	0.024453	
 1049	    0	6.994709	0.545065	-4.424574	2.637400	-2.847820	5.438481	0.070374	0.007935	-0.043152	0.999441	0.013185	-0.014236	0.027187	
 1050	    0	9.473804	-0.690985	-3.928686	2.221165	-2.820191	5.877894	0.095420	-0.003685	-0.037997	0.999407	0.011104	-0.014098	0.029384	
 1051	    0	9.702591	0.053887	-3.149115	1.958309	-2.699089	6.308559	0.097351	0.003906	-0.030151	0.999363	0.009789	-0.013493	0.031536	
 1052	    0	9.781274	0.568904	-2.299533	1.917140	-2.652594	6.711039	0.097836	0.009184	-0.021621	0.999303	0.009583	-0.013260	0.033547	
 1053	    0	9.209698	0.519822	-2.003196	1.937591	-2.785240	6.996391	0.092102	0.008606	-0.018677	0.999244	0.009686	-0.013923	0.034973	
 1054	    0	8.892387	0.802218	-1.961312	2.027887	-2.953209	7.358506	0.088820	0.011481	-0.018196	0.999163	0.010137	-0.014762	0.036782	
 1055	    0	10.581785	-0.212752	-1.598730	2.089016	-3.087828	7.868391	0.106018	0.002197	-0.014343	0.999052	0.010442	-0.015434	0.039330	
 1056	    0	14.278884	-1.676792	-1.318776	2.058190	-3.154353	8.445697	0.143509	-0.010595	-0.011058	0.998931	0.010287	-0.015766	0.042213	
 1057	    0	19.312333	-0.502159	-1.116491	2.390665	-3.270492	8.874979	0.193237	0.003662	-0.007996	0.998810	0.011949	-0.016346	0.044357	
 1058	    0	25.938788	4.262584	-1.361237	2.077007	-3.366908	9.138258	0.257252	0.054523	-0.008743	0.998760	0.010381	-0.016828	0.045672	
 1059	    0	30.272994	10.744404	-1.218217	0.497825	-3.174328	9.228372	0.297485	0.121277	-0.007141	0.998806	0.002488	-0.015865	0.046124	
 1060	    0	28.671347	13.723715	2.359511	-0.619362	-2.991293	9.072907	0.279706	0.150116	0.027363	0.998854	-0.003096	-0.014951	0.045347	
 1061	    0	27.584513	17.559606	2.976420	-0.711121	-3.027653	8.679221	0.267395	0.187439	0.033203	0.998938	-0.003554	-0.015133	0.043381	
