// Start Time: Unknown
// Update Rate: 100.0Hz
// Filter Profile: human (34.3)
// Firmware Version: 2.1.4
PacketCounter	SampleTimeFine	Acc_X	Acc_Y	Acc_Z	Gyr_X	Gyr_Y	Gyr_Z	VelInc_X	VelInc_Y	VelInc_Z	OriInc_q0	OriInc_q1	OriInc_q2	OriInc_q3	
27585	    0	13.091894	-5.112402	2.043045	-2.028511	0.197606	1.133754	0.131226	-0.050171	0.020813	0.999931	-0.010142	0.000988	0.005669	
27586	    0	13.036628	-5.401562	2.153268	-0.881969	0.157930	1.470965	0.130775	-0.052959	0.021665	0.999963	-0.004410	0.000790	0.007355	
27587	    0	12.265365	-5.958203	1.702659	0.273137	0.064279	1.941712	0.123230	-0.058411	0.016907	0.999951	0.001366	0.000321	0.009708	
27588	    0	12.553339	-5.835102	1.474558	0.884272	-0.133327	2.460359	0.126229	-0.056866	0.014576	0.999914	0.004421	-0.000667	0.012301	
27589	    0	13.097427	-4.781231	0.898522	1.014943	-0.339522	2.981692	0.131653	-0.045898	0.008972	0.999874	0.005075	-0.001698	0.014908	
27590	    0	13.684746	-3.521540	-0.883112	0.760878	-0.466369	3.258288	0.137417	-0.032947	-0.008639	0.999857	0.003804	-0.002332	0.016291	
27591	    0	14.356977	-1.382927	-3.695289	0.249493	-0.482772	3.296815	0.143860	-0.011414	-0.036621	0.999860	0.001247	-0.002414	0.016483	
27592	    0	15.233037	1.623022	-6.227276	-0.047304	-0.516343	3.263240	0.152199	0.018700	-0.061884	0.999863	-0.000237	-0.002582	0.016315	
27593	    0	16.085120	3.117612	-7.158381	-0.041773	-0.603513	3.302157	0.160522	0.033813	-0.071106	0.999859	-0.000209	-0.003017	0.016510	
27594	    0	16.192733	2.425518	-7.118141	0.022889	-0.560025	3.366252	0.161687	0.026986	-0.070725	0.999854	0.000114	-0.002800	0.016830	
27595	    0	15.258327	1.632461	-6.390734	0.045016	-0.399609	3.386852	0.152405	0.018921	-0.063599	0.999854	0.000225	-0.001998	0.016933	
27596	    0	13.887948	2.025774	-5.305705	0.156601	-0.242626	3.370636	0.138576	0.022636	-0.052872	0.999856	0.000783	-0.001213	0.016852	
27597	    0	11.971511	2.803332	-4.595837	0.553158	-0.168427	3.334968	0.119263	0.030151	-0.045776	0.999856	0.002766	-0.000842	0.016674	
27598	    0	10.083359	3.703662	-5.215444	0.971079	-0.242817	3.270881	0.100270	0.038932	-0.051847	0.999853	0.004855	-0.001214	0.016354	
27599	    0	9.142964	4.909746	-6.188617	1.175747	-0.415631	3.173982	0.090759	0.050903	-0.061401	0.999854	0.005878	-0.002078	0.015869	
27600	    0	8.791387	6.686509	-6.931347	1.281606	-0.566127	2.982465	0.087094	0.068609	-0.068630	0.999864	0.006408	-0.002831	0.014912	
27601	    0	8.369952	8.833434	-7.736466	1.332336	-0.702695	2.696335	0.082764	0.089966	-0.076477	0.999880	0.006661	-0.003513	0.013481	
27602	    0	8.066330	10.349071	-6.877607	1.389932	-0.862342	2.347454	0.079731	0.104903	-0.067705	0.999897	0.006949	-0.004312	0.011737	
27603	    0	7.137926	10.363965	-6.506520	1.333085	-0.968961	2.056181	0.070618	0.104797	-0.064026	0.999912	0.006665	-0.004845	0.010281	
27604	    0	5.630544	11.209938	-5.931389	1.290930	-0.945118	2.030620	0.055438	0.113044	-0.058323	0.999916	0.006454	-0.004725	0.010153	
27605	    0	4.768024	14.074784	-5.735276	1.060514	-0.884079	2.099665	0.046448	0.141541	-0.056396	0.999921	0.005302	-0.004420	0.010498	
27606	    0	6.531178	13.628780	0.447107	1.793919	-0.702499	2.005642	0.063922	0.136885	0.005923	0.999903	0.008969	-0.003512	0.010028	
27607	    0	6.555234	8.489199	2.793753	1.957187	-0.682088	1.637316	0.064758	0.085144	0.028992	0.999912	0.009786	-0.003410	0.008186	
27608	    0	5.373610	8.675621	2.790484	1.290340	-0.654993	1.157205	0.053141	0.086882	0.028640	0.999957	0.006452	-0.003275	0.005786	
27609	    0	3.607084	11.232690	0.375225	0.595096	-0.696377	0.624851	0.035706	0.112427	0.004211	0.999984	0.002975	-0.003482	0.003124	
27610	    0	2.726020	12.501473	1.039816	0.514987	-0.957875	0.263406	0.027044	0.125023	0.010850	0.999984	0.002575	-0.004789	0.001317	
27611	    0	2.615286	8.398188	1.662835	0.827798	-1.344123	0.090028	0.026001	0.083923	0.017151	0.999969	0.004139	-0.006721	0.000450	
27612	    0	4.058728	4.133325	1.851688	1.186962	-1.549555	0.205043	0.040399	0.041263	0.019075	0.999951	0.005935	-0.007748	0.001025	
27613	    0	7.812356	-1.557561	1.908533	2.018030	-1.546330	0.374614	0.078003	-0.015625	0.019531	0.999917	0.010090	-0.007731	0.001873	
27614	    0	10.676816	-5.502266	0.144046	1.971669	-1.053070	0.425729	0.106877	-0.054810	0.001462	0.999935	0.009858	-0.005265	0.002129	
27615	    0	12.444259	-8.584116	0.219021	1.222429	-0.263979	0.452426	0.124634	-0.085571	0.001831	0.999977	0.006112	-0.001320	0.002262	
27616	    0	13.734001	-9.940090	0.473484	0.948530	0.534442	0.301363	0.137501	-0.099214	0.003897	0.999984	0.004743	0.002672	0.001507	
27617	    0	14.775380	-9.499290	0.355856	0.930218	0.418093	-0.115967	0.147705	-0.095093	0.002808	0.999987	0.004651	0.002090	-0.000580	
27618	    0	15.639718	-8.420823	1.795912	1.173030	0.425724	-0.797660	0.156096	-0.084933	0.017130	0.999972	0.005865	0.002129	-0.003988	
27619	    0	14.989876	-2.814156	3.759379	0.674443	0.435832	-0.966651	0.149841	-0.028992	0.037170	0.999980	0.003372	0.002179	-0.004833	
27620	    0	11.655143	6.513639	1.617707	0.071144	-0.088120	-0.603868	0.116740	0.064778	0.016252	0.999995	0.000356	-0.000441	-0.003019	
27621	    0	9.606300	12.531526	-3.946988	-0.675776	-0.202180	-0.629427	0.096497	0.124878	-0.039795	0.999989	-0.003379	-0.001011	-0.003147	
27622	    0	9.128780	13.191268	-5.322235	-1.929513	0.117877	-1.077292	0.091963	0.130897	-0.054543	0.999938	-0.009647	0.000589	-0.005386	
27623	    0	8.989126	10.187036	-4.648626	-2.909982	0.445767	-1.445835	0.090515	0.100525	-0.048157	0.999866	-0.014549	0.002229	-0.007229	
27624	    0	8.986385	7.066016	-3.237719	-2.868219	0.672564	-1.726807	0.090355	0.069405	-0.033682	0.999854	-0.014340	0.003363	-0.008634	
27625	    0	9.304803	5.170058	-0.572077	-1.888913	0.572224	-2.104260	0.093567	0.050659	-0.006470	0.999895	-0.009444	0.002861	-0.010521	
27626	    0	10.956990	5.899348	-0.057553	-0.940540	0.024224	-2.411719	0.110271	0.057663	-0.000862	0.999916	-0.004703	0.000121	-0.012058	
27627	    0	14.520994	7.598843	-3.002424	-0.369082	-0.600450	-2.517772	0.146240	0.074097	-0.029724	0.999914	-0.001845	-0.003002	-0.012589	
27628	    0	18.044686	8.610677	-8.204702	-0.473610	-1.171150	-2.498518	0.181979	0.083647	-0.081184	0.999902	-0.002368	-0.005856	-0.012492	
27629	    0	21.534216	1.600406	-8.612234	-0.682853	-1.460123	-2.287367	0.216125	0.013245	-0.084595	0.999902	-0.003414	-0.007300	-0.011436	
27630	    0	22.549281	-4.916967	-6.848412	-0.634783	-0.888848	-2.286972	0.225210	-0.051961	-0.067321	0.999919	-0.003174	-0.004444	-0.011435	
27631	    0	17.874283	-2.447097	-3.687292	-0.856042	0.116161	-2.426215	0.178406	-0.026794	-0.036865	0.999917	-0.004280	0.000581	-0.012131	
27632	    0	11.153671	7.191409	1.354459	-0.894960	1.289223	-2.485174	0.112502	0.070578	0.012504	0.999891	-0.004475	0.006446	-0.012425	
27633	    0	6.711247	11.903782	5.938120	-0.361647	1.674907	-2.507878	0.069092	0.118286	0.058594	0.999885	-0.001808	0.008374	-0.012539	
27634	    0	7.304729	7.310650	5.741074	-0.045015	1.213122	-2.837103	0.074421	0.072070	0.056946	0.999881	-0.000225	0.006065	-0.014185	
27635	    0	10.174806	2.188551	3.456544	-0.312626	0.692012	-2.925221	0.102173	0.020447	0.034180	0.999886	-0.001563	0.003460	-0.014626	
27636	    0	14.025413	0.342618	1.889077	-1.129765	0.470751	-2.740772	0.140328	0.001609	0.018548	0.999887	-0.005649	0.002354	-0.013703	
27637	    0	17.316448	-0.958714	0.962583	-2.137857	0.256550	-2.581146	0.173035	-0.011719	0.009521	0.999858	-0.010689	0.001283	-0.012905	
27638	    0	18.083851	-6.198690	0.114228	-2.988229	-0.004959	-2.296774	0.180111	-0.064032	0.002093	0.999822	-0.014940	-0.000025	-0.011483	
27639	    0	17.474985	-11.705948	-1.675018	-3.591223	-0.041202	-2.076870	0.173523	-0.119141	-0.014587	0.999784	-0.017955	-0.000206	-0.010384	
27640	    0	15.559446	-12.648667	-3.907723	-3.392637	0.271815	-2.106616	0.154195	-0.128757	-0.037116	0.999800	-0.016962	0.001359	-0.010532	
27641	    0	13.443883	-10.527907	-3.933928	-2.251337	0.740845	-2.095882	0.133179	-0.107117	-0.038635	0.999874	-0.011256	0.003704	-0.010479	
27642	    0	12.111791	-9.841527	-3.546413	-1.183540	1.071766	-1.874208	0.119997	-0.099753	-0.035522	0.999924	-0.005918	0.005359	-0.009371	
27643	    0	10.740808	-9.202092	-3.097718	-0.754563	1.280429	-1.646457	0.106445	-0.093018	-0.031311	0.999938	-0.003773	0.006402	-0.008232	
27644	    0	9.690474	-7.086842	-2.570561	-0.894564	1.271273	-1.520187	0.096197	-0.071717	-0.025999	0.999941	-0.004473	0.006356	-0.007601	
27645	    0	9.583323	-5.242091	-2.854812	-1.090834	1.151298	-1.479369	0.095276	-0.053284	-0.028809	0.999941	-0.005454	0.005756	-0.007397	
27646	    0	9.884048	-4.754068	-4.568793	-0.963609	1.077289	-1.432062	0.098248	-0.048467	-0.045986	0.999948	-0.004818	0.005386	-0.007160	
27647	    0	10.075023	-5.708570	-6.212174	-0.704203	1.037803	-1.352711	0.100037	-0.057983	-0.062439	0.999957	-0.003521	0.005189	-0.006763	
27648	    0	9.338436	-7.804641	-7.934848	-0.253680	0.950824	-1.333252	0.092483	-0.078766	-0.079690	0.999966	-0.001268	0.004754	-0.006666	
27649	    0	8.892342	-8.664406	-8.828258	0.257114	0.933277	-1.423663	0.087891	-0.087158	-0.088806	0.999963	0.001286	0.004666	-0.007118	
27650	    0	9.189641	-7.473306	-6.890672	0.990504	1.069470	-1.493100	0.090965	-0.075070	-0.069766	0.999945	0.004952	0.005347	-0.007465	
27651	    0	9.582908	-4.942789	-2.013576	1.612323	1.088742	-1.522866	0.095337	-0.049988	-0.021057	0.999924	0.008061	0.005444	-0.007614	
27652	    0	9.570472	-2.337120	0.476561	1.737632	0.526630	-1.368361	0.095553	-0.024064	0.004307	0.999935	0.008688	0.002633	-0.006842	
27653	    0	8.566223	-2.534222	0.427961	1.262108	0.065614	-1.193252	0.085510	-0.025879	0.004089	0.999962	0.006310	0.000328	-0.005966	
27654	    0	7.174244	-1.889085	1.174788	0.414087	-0.172997	-0.973897	0.071639	-0.019264	0.011770	0.999985	0.002070	-0.000865	-0.004869	
27655	    0	6.923132	-2.088714	3.347554	-0.489618	-0.122834	-0.552369	0.069153	-0.020996	0.033569	0.999992	-0.002448	-0.000614	-0.002762	
27656	    0	7.673215	-1.438840	3.557261	-1.285180	0.004387	-0.151063	0.076722	-0.014217	0.035663	0.999979	-0.006426	0.000022	-0.000755	
27657	    0	8.930221	-2.531142	1.163940	-1.486793	0.241091	0.311282	0.089355	-0.025085	0.011719	0.999969	-0.007434	0.001205	0.001556	
27658	    0	10.541727	-5.658016	1.299680	-1.325239	0.287631	0.681693	0.105628	-0.056133	0.013218	0.999970	-0.006626	0.001438	0.003408	
27659	    0	11.831729	-8.560302	2.586097	-0.444033	0.288583	0.985723	0.118774	-0.084961	0.025879	0.999984	-0.002220	0.001443	0.004929	
27660	    0	12.064598	-10.430132	3.168579	0.609594	0.271037	1.355756	0.121392	-0.103576	0.031205	0.999971	0.003048	0.001355	0.006779	
27661	    0	10.972144	-9.195280	3.363340	1.563492	0.148014	1.858566	0.110596	-0.091187	0.032837	0.999926	0.007817	0.000740	0.009293	
27662	    0	10.590305	-7.230870	1.840823	1.853824	-0.100521	2.420329	0.106760	-0.071187	0.017798	0.999884	0.009269	-0.000503	0.012101	
27663	    0	12.707123	-5.045597	-1.082378	1.252228	-0.323500	2.923708	0.127808	-0.048523	-0.010925	0.999872	0.006261	-0.001617	0.014618	
27664	    0	16.275637	-2.128891	-4.043846	0.560405	-0.450346	3.252180	0.163163	-0.018525	-0.040126	0.999861	0.002802	-0.002252	0.016260	
27665	    0	19.499917	0.743449	-5.790669	0.235951	-0.598174	3.385330	0.195007	0.010803	-0.057312	0.999851	0.001180	-0.002991	0.016926	
27666	    0	20.899499	3.320473	-6.230641	0.161370	-0.724450	3.530885	0.208589	0.036940	-0.061522	0.999837	0.000807	-0.003622	0.017653	
27667	    0	20.259485	4.968036	-5.746742	0.193036	-0.647585	3.814173	0.201782	0.053589	-0.056763	0.999812	0.000965	-0.003238	0.019070	
27668	    0	17.864022	5.237124	-4.719887	0.195517	-0.534096	4.137531	0.177630	0.056099	-0.046670	0.999782	0.000978	-0.002670	0.020686	
27669	    0	15.253790	4.499855	-3.865206	0.213831	-0.518077	4.344525	0.151611	0.048340	-0.038208	0.999760	0.001069	-0.002590	0.021721	
27670	    0	13.154133	3.908723	-3.554571	0.446165	-0.491182	4.345099	0.130736	0.042012	-0.035132	0.999758	0.002231	-0.002456	0.021724	
27671	    0	11.678336	4.199007	-3.726961	0.782835	-0.506440	4.165203	0.115967	0.044556	-0.036804	0.999772	0.003914	-0.002532	0.020824	
27672	    0	10.994321	5.389965	-4.128346	1.060367	-0.568047	3.861118	0.108989	0.056227	-0.040679	0.999795	0.005301	-0.002840	0.019304	
27673	    0	10.555351	7.308267	-4.482090	1.148483	-0.621833	3.547117	0.104370	0.075195	-0.044067	0.999821	0.005742	-0.003109	0.017735	
27674	    0	9.879468	9.659411	-4.555570	1.237933	-0.599701	3.240180	0.097344	0.098457	-0.044657	0.999845	0.006189	-0.002998	0.016200	
27675	    0	8.764408	11.334358	-4.279788	1.439161	-0.523401	2.962631	0.086060	0.114929	-0.041748	0.999861	0.007195	-0.002617	0.014812	
27676	    0	7.309189	12.313088	-5.072637	1.528422	-0.490972	2.717131	0.071529	0.124492	-0.049602	0.999875	0.007642	-0.002455	0.013585	
27677	    0	6.680057	12.840364	-4.763772	1.757120	-0.536940	2.504831	0.065308	0.129639	-0.046326	0.999879	0.008785	-0.002685	0.012524	
27678	    0	5.794753	14.222944	-6.561171	1.546530	-0.513476	2.332385	0.056446	0.143394	-0.064360	0.999898	0.007732	-0.002567	0.011662	
27679	    0	4.728981	18.228452	-6.960696	0.875876	-0.350770	2.255305	0.045349	0.183105	-0.068726	0.999925	0.004379	-0.001754	0.011276	
27680	    0	5.339575	18.503410	-1.482218	0.939391	0.000763	2.156117	0.051396	0.185662	-0.013951	0.999930	0.004697	0.000004	0.010780	
27681	    0	4.825200	14.288142	2.427189	0.892844	0.035096	1.760130	0.046997	0.143188	0.024902	0.999950	0.004464	0.000175	0.008801	
27682	    0	3.263518	13.889929	2.082669	0.271417	-0.183297	1.173599	0.031800	0.139059	0.021045	0.999981	0.001357	-0.000916	0.005868	
27683	    0	1.784557	16.010947	-0.275901	-0.644496	-0.459292	0.647738	0.017334	0.160156	-0.003235	0.999987	-0.003222	-0.002296	0.003239	
27684	    0	1.467912	14.280811	0.273640	-0.584987	-0.877385	0.344087	0.014422	0.142840	0.002382	0.999984	-0.002925	-0.004387	0.001720	
27685	    0	2.519937	9.859807	1.958813	-0.078393	-1.316843	0.215913	0.024963	0.098633	0.019714	0.999977	-0.000392	-0.006584	0.001080	
27686	    0	5.630105	5.011248	2.618365	0.996036	-1.856266	0.175670	0.056009	0.050029	0.026954	0.999944	0.004980	-0.009281	0.000878	
27687	    0	9.959787	-2.038354	-1.217310	1.674706	-2.232243	0.046541	0.099731	-0.020264	-0.011230	0.999902	0.008373	-0.011161	0.000233	
27688	    0	12.512022	-8.242778	-4.453410	1.219777	-1.967665	-0.068285	0.125525	-0.082202	-0.043802	0.999932	0.006099	-0.009838	-0.000341	
27689	    0	14.408081	-12.163173	-2.932271	0.796514	-0.961882	-0.092316	0.144165	-0.121582	-0.029114	0.999980	0.003983	-0.004809	-0.000462	
27690	    0	17.026547	-11.453954	2.600573	1.299487	0.477413	-0.203516	0.170209	-0.114877	0.024854	0.999975	0.006497	0.002387	-0.001018	
27691	    0	18.271001	-9.436645	6.011650	2.014972	1.286538	-0.347909	0.182922	-0.095276	0.057983	0.999927	0.010075	0.006433	-0.001740	
27692	    0	15.836338	-6.067001	6.367481	1.641870	0.764668	-0.567254	0.158430	-0.061636	0.062566	0.999954	0.008209	0.003823	-0.002836	
27693	    0	11.014639	-0.760906	6.671197	0.303651	-0.575831	-0.740054	0.109924	-0.008118	0.067017	0.999988	0.001518	-0.002879	-0.003700	
27694	    0	8.303174	5.319775	3.313341	-0.890932	-0.959216	-0.920878	0.083117	0.052963	0.033296	0.999968	-0.004455	-0.004796	-0.004604	
27695	    0	7.573523	8.737321	-1.922045	-1.942487	-0.440035	-1.185634	0.076294	0.086731	-0.019897	0.999932	-0.009712	-0.002200	-0.005928	
27696	    0	7.179105	9.542561	-3.169297	-2.901587	0.116163	-1.474446	0.072471	0.094419	-0.033110	0.999866	-0.014507	0.000581	-0.007372	
27697	    0	7.651943	9.842784	-1.617065	-3.264044	0.461033	-1.742655	0.077332	0.097473	-0.017944	0.999825	-0.016319	0.002305	-0.008713	
27698	    0	9.084378	9.041257	-0.108469	-3.021601	0.620114	-2.006453	0.091738	0.089462	-0.002725	0.999830	-0.015107	0.003100	-0.010032	
27699	    0	10.573587	6.226031	0.437775	-2.563604	0.438140	-2.281303	0.106445	0.061096	0.003357	0.999850	-0.012817	0.002191	-0.011406	
27700	    0	13.424450	2.680028	-1.708473	-2.414826	0.059703	-2.516302	0.134561	0.024899	-0.017433	0.999847	-0.012074	0.000299	-0.012581	
27701	    0	17.204152	-4.464211	-6.043259	-2.026270	-0.952955	-2.464408	0.171753	-0.047363	-0.059143	0.999861	-0.010131	-0.004765	-0.012321	
27702	    0	21.286353	-14.727233	-11.395008	-0.959241	-1.967121	-2.009656	0.212468	-0.149946	-0.111144	0.999889	-0.004796	-0.009835	-0.010048	
27703	    0	21.191599	-8.870549	-15.285372	-0.332459	-0.916313	-2.220208	0.211609	-0.091309	-0.151733	0.999926	-0.001662	-0.004581	-0.011101	
27704	    0	13.730822	7.642807	-12.571364	0.405326	0.775555	-2.739429	0.137852	0.074798	-0.126095	0.999896	0.002027	0.003878	-0.013697	
27705	    0	6.868395	20.562717	-3.132255	0.860643	1.600163	-3.141957	0.071655	0.204651	-0.031006	0.999835	0.004303	0.008000	-0.015709	
27706	    0	6.381520	17.367625	2.670274	0.467902	1.279339	-3.634872	0.067127	0.172414	0.026685	0.999811	0.002339	0.006396	-0.018173	
27707	    0	8.005591	4.409594	3.855323	0.559463	0.850735	-3.887438	0.081055	0.042419	0.038330	0.999798	0.002797	0.004253	-0.019436	
27708	    0	12.063790	1.966785	6.284948	-0.273528	0.578910	-3.476515	0.121138	0.017651	0.062474	0.999844	-0.001368	0.002894	-0.017382	
27709	    0	18.014117	4.553581	5.079992	-0.753815	0.445765	-2.984739	0.180908	0.043030	0.050232	0.999879	-0.003769	0.002229	-0.014923	
27710	    0	18.495166	4.029762	3.015062	-1.521553	0.342383	-2.667915	0.185520	0.038052	0.029538	0.999880	-0.007607	0.001712	-0.013339	
27711	    0	16.671494	-1.663141	1.236757	-2.156930	0.278677	-2.542233	0.166504	-0.018616	0.012329	0.999860	-0.010784	0.001393	-0.012711	
27712	    0	16.001757	-7.276591	-1.598370	-2.892484	0.367569	-2.539411	0.159046	-0.075013	-0.015203	0.999813	-0.014462	0.001838	-0.012696	
27713	    0	15.796259	-9.238921	-3.613475	-3.639532	0.625855	-2.623973	0.156616	-0.095093	-0.034912	0.999743	-0.018196	0.003129	-0.013119	
27714	    0	15.285938	-8.134098	-3.534574	-3.459645	1.015366	-2.630643	0.151589	-0.083944	-0.034680	0.999750	-0.017297	0.005076	-0.013152	
27715	    0	14.472082	-6.051230	-3.610410	-2.603877	1.245191	-2.444604	0.143738	-0.062744	-0.036194	0.999821	-0.013019	0.006226	-0.012222	
27716	    0	12.954222	-4.071044	-3.103400	-1.787642	1.369343	-2.226541	0.128861	-0.042428	-0.031544	0.999874	-0.008938	0.006846	-0.011132	
27717	    0	10.374829	-3.355641	-1.362378	-1.452490	1.164281	-1.953947	0.103333	-0.034668	-0.013977	0.999908	-0.007262	0.005821	-0.009769	
27718	    0	9.101168	-4.217736	-0.568644	-1.633112	0.779362	-1.605645	0.090647	-0.042953	-0.005692	0.999927	-0.008165	0.003897	-0.008028	
27719	    0	9.947926	-6.551348	-2.844888	-1.746407	0.782221	-1.302367	0.098938	-0.066406	-0.028259	0.999932	-0.008732	0.003911	-0.006512	
27720	    0	11.268522	-8.452663	-6.310778	-1.403453	1.141188	-1.110479	0.111852	-0.085592	-0.063149	0.999943	-0.007017	0.005706	-0.005552	
27721	    0	11.785775	-10.406786	-9.018646	-0.697337	1.394103	-1.124590	0.116638	-0.105042	-0.090637	0.999953	-0.003487	0.006970	-0.005623	
27722	    0	11.729076	-11.515694	-9.425560	0.212100	1.354620	-1.353666	0.115866	-0.115844	-0.095166	0.999953	0.001060	0.006773	-0.006768	
27723	    0	11.041981	-11.515558	-9.260385	1.234653	1.127649	-1.532778	0.109009	-0.115417	-0.093933	0.999935	0.006173	0.005638	-0.007664	
27724	    0	9.958357	-11.642969	-7.860462	1.926856	0.772306	-1.491969	0.098408	-0.116400	-0.080108	0.999918	0.009634	0.003861	-0.007460	
27725	    0	9.478135	-10.530361	-5.367293	2.175393	0.498977	-1.351967	0.093933	-0.105347	-0.055054	0.999914	0.010877	0.002495	-0.006760	
27726	    0	8.405801	-9.756125	-2.457815	2.246534	0.240332	-1.099806	0.083490	-0.097736	-0.025776	0.999921	0.011232	0.001202	-0.005499	
27727	    0	5.785103	-8.555532	0.280188	1.824219	0.020027	-0.830855	0.057495	-0.085815	0.002014	0.999949	0.009121	0.000100	-0.004154	
27728	    0	4.384170	-5.495415	2.028136	1.160630	-0.191118	-0.554470	0.043670	-0.055192	0.020003	0.999978	0.005803	-0.000956	-0.002772	
27729	    0	6.017161	-3.188744	1.950513	1.132972	-0.283624	-0.152589	0.060120	-0.032043	0.019409	0.999982	0.005665	-0.001418	-0.000763	
27730	    0	8.956317	-3.814381	2.100121	1.287661	-0.255777	0.306323	0.089595	-0.038141	0.020870	0.999977	0.006438	-0.001279	0.001532	
27731	    0	11.518661	-3.802069	2.025991	1.098069	-0.260927	0.714880	0.115295	-0.037720	0.020203	0.999977	0.005490	-0.001305	0.003574	
27732	    0	12.841639	-4.629464	2.756133	0.805099	-0.199510	1.153574	0.128654	-0.045664	0.027505	0.999974	0.004025	-0.000998	0.005768	
27733	    0	13.368788	-5.065169	4.329243	0.534826	-0.172235	1.528948	0.134033	-0.049744	0.043274	0.999967	0.002674	-0.000861	0.007645	
27734	    0	13.299045	-3.373464	4.465831	0.614367	-0.181392	1.872284	0.133259	-0.032625	0.044678	0.999950	0.003072	-0.000907	0.009361	
27735	    0	12.921126	-2.039238	3.554235	0.972963	-0.210577	2.259884	0.129395	-0.019104	0.035583	0.999924	0.004865	-0.001053	0.011299	
27736	    0	13.618801	-0.888620	1.845561	1.024663	-0.311481	2.656646	0.136262	-0.007172	0.018628	0.999897	0.005123	-0.001557	0.013283	
27737	    0	15.259093	0.347548	-0.498003	0.849950	-0.499556	3.019078	0.152527	0.005798	-0.004578	0.999873	0.004250	-0.002498	0.015095	
27738	    0	17.898852	1.409839	-3.136139	0.811235	-0.842517	3.234260	0.178858	0.017117	-0.030542	0.999851	0.004056	-0.004212	0.016171	
27739	    0	22.107752	1.326094	-5.556209	0.770803	-1.177281	3.383063	0.221130	0.017212	-0.054199	0.999832	0.003854	-0.005886	0.016914	
27740	    0	26.549450	2.101395	-7.468623	0.461607	-1.270946	3.622090	0.265521	0.025992	-0.072943	0.999813	0.002308	-0.006354	0.018109	
27741	    0	27.288875	3.765842	-7.207852	-0.075536	-0.948973	4.005715	0.272400	0.043091	-0.070801	0.999787	-0.000378	-0.004745	0.020027	
27742	    0	23.557866	6.016244	-5.128221	-0.426711	-0.470202	4.508599	0.234264	0.065345	-0.050866	0.999741	-0.002133	-0.002351	0.022541	
27743	    0	18.957743	7.796548	-3.249355	-0.204297	-0.112163	4.872614	0.187622	0.082520	-0.032471	0.999702	-0.001021	-0.000561	0.024361	
27744	    0	14.902788	8.257963	-2.935247	0.235391	0.031856	4.947978	0.146919	0.086267	-0.029276	0.999693	0.001177	0.000159	0.024737	
27745	    0	11.183965	7.778925	-3.090581	0.421374	0.042729	4.795538	0.109924	0.080505	-0.030762	0.999710	0.002107	0.000214	0.023975	
27746	    0	8.510966	7.630949	-3.135575	0.330571	-0.094040	4.467003	0.083391	0.078237	-0.031188	0.999748	0.001653	-0.000470	0.022333	
27747	    0	7.069045	8.182938	-2.709499	0.300809	-0.330375	3.969838	0.069092	0.083252	-0.026855	0.999800	0.001504	-0.001652	0.019848	
27748	    0	6.396091	9.441307	-2.252475	0.432037	-0.510433	3.475943	0.062364	0.095554	-0.022159	0.999843	0.002160	-0.002552	0.017379	
27749	    0	6.145116	10.287753	-1.777872	0.653868	-0.553728	3.136582	0.059875	0.103882	-0.017273	0.999867	0.003269	-0.002769	0.015682	
27750	    0	5.890771	10.426021	-1.863195	0.942459	-0.575470	2.915310	0.057431	0.105190	-0.017971	0.999878	0.004712	-0.002877	0.014576	
27751	    0	5.501820	11.461544	-2.194234	1.277209	-0.553724	2.690227	0.053528	0.115479	-0.021057	0.999885	0.006386	-0.002769	0.013451	
27752	    0	4.285749	13.270354	-3.718887	1.623593	-0.547619	2.366150	0.041381	0.133494	-0.035993	0.999893	0.008118	-0.002738	0.011830	
27753	    0	2.819605	17.254605	-4.241044	1.544999	-0.434698	2.148502	0.026428	0.173157	-0.041016	0.999909	0.007725	-0.002173	0.010742	
27754	    0	4.279049	16.976310	-1.592105	1.888901	-0.135998	1.796964	0.041272	0.170279	-0.014286	0.999914	0.009444	-0.000680	0.008985	
27755	    0	4.441231	16.520109	-1.977283	0.738534	0.014687	1.448075	0.043213	0.165588	-0.019165	0.999967	0.003693	0.000073	0.007240	
27756	    0	4.007900	16.208018	-1.289788	-0.455096	0.070382	1.052481	0.039221	0.162258	-0.013281	0.999983	-0.002275	0.000352	0.005262	
27757	    0	2.462281	17.359984	-2.044312	-1.551075	0.004005	0.732431	0.023987	0.173523	-0.021790	0.999963	-0.007755	0.000020	0.003662	
27758	    0	0.527846	16.586090	-0.609813	-1.699662	-0.311093	0.572022	0.004815	0.165815	-0.007500	0.999958	-0.008498	-0.001555	0.002860	
27759	    0	-1.517859	14.166039	0.706620	-1.514457	-0.944342	0.588235	-0.015625	0.141663	0.005920	0.999955	-0.007572	-0.004722	0.002941	
27760	    0	0.595927	9.785423	3.423533	-0.254062	-1.570720	0.575263	0.005409	0.097914	0.034155	0.999964	-0.001270	-0.007854	0.002876	
27761	    0	5.294824	2.992243	0.469437	0.947591	-2.022404	0.265509	0.052856	0.029968	0.005371	0.999936	0.004738	-0.010112	0.001328	
27762	    0	10.087840	-3.050953	-5.241504	0.522244	-2.282386	-0.195889	0.101439	-0.030474	-0.051339	0.999930	0.002611	-0.011412	-0.000979	
27763	    0	13.139596	-7.858946	-6.739904	-0.241094	-2.104802	-0.656141	0.131836	-0.079102	-0.065918	0.999938	-0.001205	-0.010524	-0.003281	
27764	    0	14.449047	-9.653313	-4.198357	-0.441746	-1.156437	-0.917062	0.144284	-0.097286	-0.040935	0.999969	-0.002209	-0.005782	-0.004585	
27765	    0	16.746565	-8.138932	-0.354940	0.316812	0.271608	-0.994115	0.167053	-0.082214	-0.003906	0.999985	0.001584	0.001358	-0.004971	
27766	    0	18.174822	-8.336917	1.053645	1.080147	0.990119	-1.165216	0.181306	-0.084478	0.009184	0.999956	0.005401	0.004951	-0.005826	
27767	    0	16.140305	-8.230949	1.095823	0.898943	0.183870	-1.262678	0.160889	-0.083374	0.010437	0.999969	0.004495	0.000919	-0.006313	
27768	    0	12.975782	-3.534622	0.237028	-0.335505	-0.611500	-1.114663	0.129550	-0.036064	0.002827	0.999978	-0.001678	-0.003057	-0.005573	
27769	    0	11.364455	2.015624	-1.718451	-1.058971	-0.134851	-1.153576	0.113770	0.019409	-0.017212	0.999969	-0.005295	-0.000674	-0.005768	
27770	    0	10.847107	4.984834	-2.599948	-1.551464	0.429924	-1.248191	0.108722	0.048965	-0.026615	0.999948	-0.007757	0.002150	-0.006241	
27771	    0	10.248227	5.095736	-2.202555	-1.903578	0.627341	-1.232939	0.102722	0.050110	-0.022827	0.999930	-0.009518	0.003137	-0.006165	
27772	    0	9.781596	4.557054	-1.421585	-1.872489	0.666443	-1.325067	0.098065	0.044784	-0.014964	0.999928	-0.009362	0.003332	-0.006625	
27773	    0	10.089555	2.153282	-3.139927	-1.435883	0.375565	-1.701391	0.101013	0.020447	-0.031738	0.999936	-0.007179	0.001878	-0.008507	
27774	    0	11.933016	-6.534573	-8.744143	-0.808922	-0.966091	-1.771962	0.119163	-0.066753	-0.086597	0.999941	-0.004045	-0.004830	-0.008860	
27775	    0	20.544846	-13.954387	-8.714554	0.559246	-0.491916	-2.130172	0.204163	-0.141479	-0.087036	0.999936	0.002796	-0.002460	-0.010651	
27776	    0	23.949822	-3.259665	0.886045	1.584717	1.855385	-2.811403	0.239075	-0.036016	0.006365	0.999826	0.007923	0.009276	-0.014056	
27777	    0	16.980558	16.313619	8.011841	0.920160	1.973271	-3.110691	0.173096	0.160095	0.079163	0.999820	0.004601	0.009866	-0.015553	
27778	    0	11.106333	19.514296	9.271879	1.257196	1.024488	-3.044470	0.114488	0.192832	0.093355	0.999851	0.006286	0.005122	-0.015222	
27779	    0	8.393342	10.806250	8.549921	0.652531	0.793490	-2.996952	0.085876	0.106506	0.085510	0.999874	0.003263	0.003967	-0.014984	
27780	    0	8.978245	3.323688	4.624257	-0.395982	0.542663	-3.040818	0.090400	0.031957	0.045934	0.999878	-0.001980	0.002713	-0.015203	
27781	    0	12.850036	0.817407	-0.534890	-1.189477	0.161178	-3.075549	0.128601	0.006165	-0.005493	0.999864	-0.005947	0.000806	-0.015377	
27782	    0	17.896976	1.712504	-3.651751	-1.872553	0.242438	-3.227803	0.179167	0.013890	-0.036875	0.999825	-0.009362	0.001212	-0.016138	
27783	    0	17.662552	1.378624	-4.380522	-2.644360	0.540203	-3.336590	0.176697	0.010254	-0.044434	0.999769	-0.013221	0.002701	-0.016682	
27784	    0	15.987628	0.979363	-5.032791	-3.088645	0.616318	-3.284356	0.159843	0.006385	-0.050937	0.999741	-0.015442	0.003081	-0.016420	
27785	    0	15.624973	-0.866268	-4.757278	-2.760526	0.548023	-3.228244	0.155945	-0.011841	-0.047852	0.999770	-0.013802	0.002740	-0.016140	
27786	    0	14.235434	-4.021774	-4.730104	-2.426301	0.385690	-3.017997	0.141629	-0.042931	-0.047065	0.999810	-0.012131	0.001928	-0.015089	
27787	    0	12.244335	-7.773483	-6.434671	-2.251359	0.338000	-2.669662	0.121277	-0.080078	-0.063660	0.999846	-0.011256	0.001690	-0.013348	
27788	    0	11.593931	-9.413130	-6.767622	-2.068990	0.577570	-2.383525	0.114607	-0.096198	-0.067020	0.999871	-0.010345	0.002888	-0.011917	
27789	    0	11.383209	-8.801371	-4.349910	-1.434944	0.947601	-2.146216	0.112671	-0.089539	-0.043396	0.999905	-0.007174	0.004738	-0.010731	
27790	    0	10.784982	-8.007745	-1.275454	-0.644699	1.162746	-1.932188	0.106994	-0.081156	-0.013118	0.999930	-0.003223	0.005814	-0.009661	
27791	    0	9.729972	-7.347000	-0.246742	-0.133517	1.182770	-1.794468	0.096619	-0.074341	-0.002991	0.999942	-0.000668	0.005914	-0.008972	
27792	    0	9.469690	-6.305397	-1.112625	0.161174	1.190589	-1.727327	0.094079	-0.063859	-0.011739	0.999944	0.000806	0.005953	-0.008636	
27793	    0	9.825381	-4.653358	-1.978146	0.145152	1.289393	-1.725040	0.097717	-0.047363	-0.020447	0.999941	0.000726	0.006447	-0.008625	
27794	    0	10.193422	-2.956685	-1.749703	-0.090982	1.373891	-1.717030	0.101552	-0.030448	-0.018182	0.999939	-0.000455	0.006869	-0.008585	
27795	    0	10.286584	-1.821920	-1.448615	-0.301940	1.441223	-1.679265	0.102600	-0.019104	-0.015198	0.999937	-0.001510	0.007206	-0.008396	
27796	    0	10.461731	-0.937125	-1.200155	-0.372704	1.472694	-1.604494	0.104445	-0.010233	-0.012753	0.999939	-0.001863	0.007363	-0.008022	
27797	    0	10.027476	-0.752763	-0.736520	-0.475892	1.418331	-1.506071	0.100159	-0.008301	-0.008057	0.999943	-0.002379	0.007092	-0.007530	
27798	    0	8.623911	-1.614104	-0.725641	-0.580988	1.177235	-1.467919	0.086073	-0.016795	-0.007715	0.999951	-0.002905	0.005886	-0.007339	
27799	    0	6.520373	-2.509944	-1.880060	-0.655374	0.814258	-1.455708	0.064941	-0.025635	-0.018982	0.999959	-0.003277	0.004071	-0.007278	
27800	    0	4.715607	-2.302636	-2.978394	-0.842868	0.516898	-1.389711	0.046917	-0.023479	-0.029807	0.999963	-0.004214	0.002584	-0.006948	
27801	    0	4.226294	-1.580934	-3.145177	-1.120008	0.338940	-1.185622	0.042114	-0.016235	-0.031433	0.999965	-0.005600	0.001695	-0.005928	
27802	    0	5.340580	-1.833022	-2.633617	-1.273168	0.234797	-0.868425	0.053294	-0.018729	-0.026280	0.999969	-0.006366	0.001174	-0.004342	
27803	    0	6.096429	-3.718892	-0.902865	-1.185617	0.140573	-0.567631	0.060852	-0.037415	-0.008850	0.999978	-0.005928	0.000703	-0.002838	
27804	    0	6.968484	-5.739405	1.036463	-0.922016	0.133706	-0.369264	0.069586	-0.057474	0.010583	0.999987	-0.004610	0.000669	-0.001846	
27805	    0	8.536127	-6.436602	1.118193	-0.531770	0.144386	-0.131226	0.085327	-0.064392	0.011292	0.999995	-0.002659	0.000722	-0.000656	
27806	    0	9.181792	-6.466120	-0.441586	0.210381	0.133705	0.224686	0.091887	-0.064553	-0.004545	0.999998	0.001052	0.000669	0.001123	
27807	    0	9.633105	-6.355437	-1.240599	0.937848	0.110627	0.544741	0.096497	-0.063232	-0.012756	0.999985	0.004689	0.000553	0.002724	
27808	    0	10.447484	-5.245013	-1.460808	1.511593	-0.067902	0.908291	0.104716	-0.051863	-0.014966	0.999961	0.007558	-0.000340	0.004541	
27809	    0	11.600655	-3.636873	-2.180134	1.924368	-0.296790	1.303893	0.116272	-0.035400	-0.021973	0.999931	0.009622	-0.001484	0.006519	
27810	    0	12.417507	-1.790130	-3.458320	1.838730	-0.490201	1.536408	0.124391	-0.016629	-0.034435	0.999925	0.009193	-0.002451	0.007682	
27811	    0	13.495342	0.302852	-4.952844	1.477088	-0.630776	1.846360	0.135071	0.004639	-0.049072	0.999925	0.007385	-0.003154	0.009232	
27812	    0	15.524578	1.125765	-5.171722	1.294555	-0.729391	2.194278	0.155294	0.013293	-0.051069	0.999911	0.006473	-0.003647	0.010971	
27813	    0	18.223350	-0.174591	-3.928665	1.291893	-0.714900	2.510160	0.182373	0.000793	-0.038635	0.999893	0.006459	-0.003574	0.012550	
27814	    0	20.883871	-1.913832	-1.808127	1.200533	-0.714903	2.753558	0.209138	-0.016154	-0.017437	0.999881	0.006002	-0.003574	0.013767	
27815	    0	21.342167	-2.317705	-0.422115	1.131679	-0.749239	2.935919	0.213745	-0.020020	-0.003540	0.999868	0.005658	-0.003746	0.014679	
27816	    0	19.032686	-1.127413	-0.469131	1.223434	-0.730741	3.139270	0.190488	-0.008259	-0.004052	0.999851	0.006117	-0.003654	0.015696	
27817	    0	16.105708	0.822888	-1.628599	1.238318	-0.743716	3.303707	0.160950	0.010986	-0.015625	0.999837	0.006191	-0.003718	0.016518	
27818	    0	14.634748	2.376289	-3.345821	0.992448	-0.789113	3.392023	0.146045	0.026405	-0.032755	0.999836	0.004962	-0.003945	0.016959	
27819	    0	14.326458	4.002735	-4.901157	0.540953	-0.867317	3.419676	0.142761	0.042603	-0.048279	0.999841	0.002705	-0.004336	0.017097	
27820	    0	14.163200	5.990610	-5.446004	0.286881	-0.879907	3.471370	0.140800	0.062432	-0.053751	0.999838	0.001434	-0.004399	0.017356	
27821	    0	13.552269	7.572766	-4.976166	0.295273	-0.853584	3.449432	0.134399	0.078125	-0.049072	0.999841	0.001476	-0.004268	0.017246	
27822	    0	12.965997	8.211236	-3.979025	0.572426	-0.854347	3.424827	0.128395	0.084431	-0.039001	0.999840	0.002862	-0.004272	0.017123	
27823	    0	12.117667	7.942553	-3.055251	0.949339	-0.840042	3.383821	0.119934	0.081604	-0.029663	0.999836	0.004746	-0.004200	0.016918	
27824	    0	10.635398	7.437046	-2.356277	1.403126	-0.796364	3.335381	0.105184	0.076292	-0.022612	0.999828	0.007015	-0.003982	0.016676	
27825	    0	9.211278	7.559755	-2.060924	1.913761	-0.753068	3.246507	0.090942	0.077271	-0.019531	0.999815	0.009568	-0.003765	0.016232	
27826	    0	8.148176	8.780438	-3.414313	2.249859	-0.717017	3.083423	0.080231	0.089422	-0.032854	0.999811	0.011249	-0.003585	0.015416	
27827	    0	7.216964	10.958354	-2.400184	2.719295	-0.623935	2.828403	0.070679	0.110901	-0.022278	0.999803	0.013596	-0.003119	0.014141	
27828	    0	5.829893	12.783797	-3.687293	2.665667	-0.503949	2.436391	0.056822	0.129011	-0.035014	0.999833	0.013328	-0.002520	0.012181	
27829	    0	4.165146	17.847173	-4.833258	1.721247	-0.192076	2.192759	0.039734	0.179321	-0.046753	0.999902	0.008606	-0.000960	0.010963	
27830	    0	3.742425	18.636227	-1.438330	0.770395	0.338180	2.150393	0.035394	0.186804	-0.013725	0.999933	0.003852	0.001691	0.010752	
27831	    0	2.906437	17.786736	-0.204592	-0.839254	0.544180	2.198845	0.027100	0.178162	-0.002869	0.999927	-0.004196	0.002721	0.010994	
27832	    0	3.142113	17.257595	-0.213452	-2.078700	0.535411	1.899021	0.029772	0.172829	-0.004011	0.999897	-0.010393	0.002677	0.009495	
27833	    0	1.752407	16.688507	-1.339498	-2.665623	0.076297	1.464900	0.016296	0.166809	-0.015625	0.999884	-0.013328	0.000381	0.007324	
27834	    0	-1.014712	14.022881	-0.997868	-2.000096	-0.737781	1.194221	-0.010943	0.140056	-0.011419	0.999925	-0.010000	-0.003689	0.005971	
27835	    0	-2.167607	9.645047	1.181396	-1.006145	-1.442746	1.204704	-0.022339	0.096375	0.011169	0.999943	-0.005031	-0.007214	0.006023	
27836	    0	2.305179	4.720499	3.621559	0.606362	-2.134378	1.112585	0.022400	0.047220	0.036600	0.999923	0.003032	-0.010672	0.005563	
27837	    0	7.650623	-1.684395	-2.978611	0.633454	-2.841290	0.550099	0.076965	-0.016541	-0.028748	0.999889	0.003167	-0.014206	0.002750	
27838	    0	10.892371	-7.375064	-10.095023	-1.023336	-3.026900	-0.059893	0.110409	-0.074293	-0.098907	0.999872	-0.005116	-0.015134	-0.000299	
27839	    0	12.746403	-11.378949	-8.703725	-1.602220	-2.099481	-0.328837	0.128174	-0.114685	-0.084778	0.999911	-0.008011	-0.010497	-0.001644	
27840	    0	16.020315	-11.165734	-3.364026	-0.256920	-0.241471	-0.321389	0.160064	-0.111958	-0.033303	0.999997	-0.001285	-0.001207	-0.001607	
27841	    0	18.908941	-11.555264	1.262709	1.962512	0.920124	-0.514995	0.188843	-0.116150	0.010620	0.999937	0.009812	0.004601	-0.002575	
27842	    0	17.635622	-13.276971	4.145377	3.013546	0.507567	-0.845945	0.175892	-0.134114	0.038993	0.999874	0.015067	0.002538	-0.004230	
27843	    0	14.167992	-7.620745	6.713466	2.633750	-0.061609	-0.782801	0.141357	-0.077637	0.066162	0.999906	0.013168	-0.000308	-0.003914	
27844	    0	10.047625	2.742412	3.826873	1.869424	-0.207142	-0.692379	0.100530	0.026716	0.038625	0.999949	0.009347	-0.001036	-0.003462	
27845	    0	7.840661	8.729562	-0.827809	0.618176	0.120545	-1.187906	0.078918	0.086853	-0.008057	0.999977	0.003091	0.000603	-0.005939	
27846	    0	7.306265	11.669878	-2.502378	-1.062795	0.518427	-1.790844	0.074037	0.115903	-0.025832	0.999942	-0.005314	0.002592	-0.008954	
27847	    0	8.412222	11.417106	-1.855525	-2.119337	0.761443	-2.040179	0.085205	0.113098	-0.020081	0.999884	-0.010596	0.003807	-0.010201	
27848	    0	10.570775	7.060512	-0.713503	-2.245616	0.830876	-2.098554	0.106407	0.069402	-0.008360	0.999873	-0.011228	0.004154	-0.010492	
27849	    0	12.742036	-2.123862	-3.497188	-1.761492	-0.072482	-2.110357	0.127197	-0.022888	-0.034729	0.999905	-0.008807	-0.000362	-0.010551	
27850	    0	14.043944	-11.551726	-9.695023	-1.023137	-2.042841	-1.753105	0.140393	-0.117237	-0.094919	0.999896	-0.005116	-0.010214	-0.008765	
27851	    0	16.545182	-3.179969	-13.212795	-1.385361	-1.763221	-2.068409	0.166260	-0.034424	-0.130432	0.999884	-0.006927	-0.008816	-0.010342	
27852	    0	14.652086	13.198572	-10.148684	-1.155902	-0.193985	-2.942971	0.148535	0.129221	-0.102096	0.999874	-0.005779	-0.000970	-0.014714	
27853	    0	12.385431	25.733997	0.913338	-0.058750	0.904328	-3.680640	0.128601	0.255005	0.008484	0.999820	-0.000294	0.004521	-0.018402	
27854	    0	10.397104	15.985029	9.142427	1.247680	1.398752	-3.534171	0.107408	0.157401	0.091668	0.999800	0.006238	0.006993	-0.017670	
27855	    0	11.767729	3.278121	10.678162	1.632956	0.791967	-2.768834	0.118530	0.030273	0.106567	0.999863	0.008164	0.003960	-0.013844	
27856	    0	17.763210	4.977159	5.638930	0.926428	0.284967	-2.530175	0.178321	0.047257	0.056358	0.999907	0.004632	0.001425	-0.012650	
27857	    0	20.183430	6.536555	1.130786	-0.574321	0.197608	-2.681817	0.202698	0.062683	0.010925	0.999905	-0.002872	0.000988	-0.013409	
27858	    0	18.499809	3.395165	0.213039	-2.272535	0.471522	-2.701902	0.185438	0.031466	0.001327	0.999841	-0.011362	0.002357	-0.013509	
27859	    0	16.919285	-2.529701	0.592092	-2.847271	0.593603	-2.448420	0.168884	-0.027283	0.005798	0.999819	-0.014235	0.002968	-0.012241	
27860	    0	15.580097	-7.462364	-1.275343	-2.903537	0.617064	-2.308791	0.154886	-0.076594	-0.012130	0.999823	-0.014517	0.003085	-0.011543	
27861	    0	13.918672	-10.609263	-3.978643	-2.831235	0.447870	-2.271397	0.137878	-0.108215	-0.038574	0.999832	-0.014155	0.002239	-0.011356	
27862	    0	13.392346	-12.918531	-5.365211	-2.725167	0.136382	-2.170291	0.132470	-0.131344	-0.051963	0.999847	-0.013625	0.000682	-0.010851	
27863	    0	12.318306	-14.195541	-6.090035	-2.124098	0.012398	-1.975319	0.121765	-0.143799	-0.059387	0.999894	-0.010620	0.000062	-0.009876	
27864	    0	9.954283	-14.564810	-5.764275	-1.363209	0.050355	-1.711307	0.098275	-0.146881	-0.056669	0.999940	-0.006816	0.000252	-0.008556	
27865	    0	7.384159	-13.601837	-4.484382	-0.755889	0.121309	-1.286328	0.072937	-0.136658	-0.044373	0.999971	-0.003779	0.000607	-0.006432	
27866	    0	6.070693	-12.150854	-6.138903	0.046349	0.349237	-0.889209	0.060059	-0.121762	-0.061522	0.999989	0.000232	0.001746	-0.004446	
27867	    0	5.993731	-10.961437	-8.324914	0.961313	0.908860	-0.755317	0.059143	-0.109436	-0.084045	0.999970	0.004807	0.004544	-0.003777	
27868	    0	6.040523	-10.277545	-7.457817	1.337646	1.223012	-0.845351	0.059511	-0.102525	-0.075630	0.999949	0.006688	0.006115	-0.004227	
27869	    0	7.222994	-10.341377	-6.603621	1.466587	1.132986	-0.970477	0.071350	-0.103271	-0.067200	0.999945	0.007333	0.005665	-0.004852	
27870	    0	10.166298	-8.539012	-7.220994	1.963092	1.111249	-0.942635	0.100855	-0.085149	-0.073608	0.999925	0.009815	0.005556	-0.004713	
27871	    0	11.843218	-4.812044	-6.447059	2.827768	1.201682	-1.007887	0.117798	-0.047791	-0.065857	0.999868	0.014138	0.006008	-0.005039	
27872	    0	11.683061	-1.899039	-5.199497	3.103589	0.719866	-0.930257	0.116554	-0.018719	-0.052707	0.999862	0.015517	0.003599	-0.004651	
27873	    0	10.098251	-1.721915	-3.796281	2.239281	0.103953	-0.831624	0.100891	-0.017212	-0.038208	0.999928	0.011196	0.000520	-0.004158	
27874	    0	7.608089	-2.297758	-0.675392	1.249706	-0.307467	-0.721557	0.076008	-0.023210	-0.006782	0.999972	0.006248	-0.001537	-0.003608	
27875	    0	6.788120	-4.311894	4.116592	0.154877	-0.555993	-0.363160	0.067688	-0.043274	0.041321	0.999993	0.000774	-0.002780	-0.001816	
27876	    0	7.383831	-2.065868	6.505187	-0.740244	-0.459291	-0.074768	0.073681	-0.020445	0.065297	0.999990	-0.003701	-0.002296	-0.000374	
27877	    0	8.930505	1.197972	4.241250	-1.177032	-0.312807	0.086213	0.089233	0.012268	0.042480	0.999981	-0.005885	-0.001564	0.000431	
27878	    0	11.562506	2.744973	1.969981	-1.667043	-0.157167	0.334172	0.115563	0.027806	0.019560	0.999963	-0.008335	-0.000786	0.001671	
27879	    0	14.843854	-0.044755	1.891323	-1.792935	-0.010491	0.703441	0.148438	0.000244	0.018921	0.999953	-0.008965	-0.000052	0.003517	
27880	    0	15.852072	-3.521392	1.420252	-1.141941	0.085069	1.000223	0.158700	-0.034339	0.014333	0.999970	-0.005710	0.000425	0.005001	
27881	    0	13.499979	-4.394731	1.679929	-0.363735	0.138093	1.402295	0.135315	-0.042969	0.016785	0.999973	-0.001819	0.000690	0.007011	
27882	    0	12.721551	-5.519550	2.764702	0.265507	0.004959	1.993022	0.127758	-0.053961	0.027572	0.999949	0.001328	0.000025	0.009965	
27883	    0	13.843468	-5.192396	2.906219	0.601407	-0.206000	2.738280	0.139099	-0.050110	0.029053	0.999901	0.003007	-0.001030	0.013691	
27884	    0	15.456450	-3.484920	2.003243	0.692214	-0.424217	3.494259	0.155100	-0.032212	0.020247	0.999839	0.003461	-0.002121	0.017470	
27885	    0	17.393669	-0.876623	-0.478774	0.601235	-0.404193	3.885904	0.174072	-0.005371	-0.004456	0.999804	0.003006	-0.002021	0.019428	
27886	    0	18.824768	2.200940	-3.025059	0.498613	-0.149164	3.896583	0.187793	0.025746	-0.030049	0.999806	0.002493	-0.000746	0.019482	
27887	    0	17.593548	5.006891	-4.739456	0.531229	0.053409	3.803487	0.174927	0.053528	-0.047302	0.999815	0.002656	0.000267	0.019016	
27888	    0	14.334565	5.250269	-5.217780	0.517304	0.021554	3.769721	0.142315	0.055326	-0.052052	0.999819	0.002586	0.000108	0.018847	
27889	    0	13.205146	3.938944	-5.394006	0.529513	-0.089842	3.833247	0.131287	0.042053	-0.053772	0.999812	0.002647	-0.000449	0.019165	
27890	    0	14.705060	2.920037	-6.072241	0.668950	-0.161944	3.861484	0.146497	0.032235	-0.060499	0.999807	0.003345	-0.000810	0.019306	
27891	    0	16.169714	3.411311	-7.301516	0.805141	-0.142678	3.730238	0.161072	0.037415	-0.072754	0.999817	0.004025	-0.000713	0.018650	
27892	    0	15.772119	5.585801	-7.752051	1.142949	0.015069	3.523837	0.156693	0.059067	-0.077201	0.999828	0.005714	0.000075	0.017618	
27893	    0	14.030366	8.286885	-8.100205	1.552101	0.144967	3.419696	0.138794	0.085876	-0.080444	0.999823	0.007760	0.000725	0.017097	
27894	    0	11.621149	10.784299	-8.334842	1.801604	0.288218	3.422189	0.114216	0.110555	-0.082526	0.999811	0.009007	0.001441	0.017110	
27895	    0	9.052287	12.820370	-7.614957	1.901558	0.489839	3.397587	0.088135	0.130432	-0.075134	0.999807	0.009507	0.002449	0.016987	
27896	    0	6.844185	14.409521	-7.280383	1.800259	0.641478	3.174200	0.065906	0.145803	-0.071711	0.999828	0.009001	0.003207	0.015870	
27897	    0	5.033176	15.393008	-4.798079	1.818362	0.730931	2.747475	0.048035	0.155029	-0.046753	0.999857	0.009091	0.003654	0.013737	
27898	    0	3.427597	15.435172	-4.227218	1.576290	0.833542	2.350892	0.032283	0.155066	-0.041189	0.999890	0.007881	0.004168	0.011754	
27899	    0	1.806720	17.587799	-4.003087	1.049835	0.940922	2.215640	0.015930	0.176270	-0.039185	0.999913	0.005249	0.004704	0.011078	
27900	    0	1.811887	19.636696	-1.786906	0.778790	1.112394	2.069526	0.015988	0.196608	-0.017197	0.999923	0.003894	0.005562	0.010347	
27901	    0	3.513272	16.235626	3.316695	1.031517	1.114107	1.704444	0.033936	0.162476	0.033813	0.999934	0.005157	0.005570	0.008522	
27902	    0	2.644822	13.170678	3.584037	0.720795	0.807008	1.170934	0.025823	0.131729	0.036210	0.999968	0.003604	0.004035	0.005855	
27903	    0	0.034392	15.385078	2.408435	0.349618	0.579836	0.617983	-0.000061	0.153809	0.024353	0.999989	0.001748	0.002899	0.003090	
27904	    0	-1.849804	16.285757	2.257239	0.342560	0.304604	0.242234	-0.018661	0.162796	0.022880	0.999996	0.001713	0.001523	0.001211	
27905	    0	-0.868533	12.546584	2.297708	0.363922	-0.275994	-0.080109	-0.008667	0.125427	0.023193	0.999997	0.001820	-0.001380	-0.000401	
27906	    0	1.219016	9.617132	0.546420	-0.401882	-1.335346	-0.361827	0.012328	0.096160	0.005353	0.999973	-0.002009	-0.006677	-0.001809	
27907	    0	5.609688	4.246240	-2.693569	-1.069683	-2.816691	-0.514241	0.056580	0.042175	-0.026367	0.999883	-0.005348	-0.014083	-0.002571	
27908	    0	8.567264	-5.488356	-7.760732	-1.857133	-3.755276	-0.543635	0.086952	-0.055826	-0.075467	0.999777	-0.009285	-0.018775	-0.002718	
27909	    0	10.458080	-13.400447	-10.552679	-2.584090	-3.508274	-0.189224	0.106262	-0.135437	-0.101929	0.999762	-0.012919	-0.017540	-0.000946	
27910	    0	15.418636	-21.096077	-7.151152	-2.429507	-2.344817	0.391407	0.155404	-0.211491	-0.067127	0.999855	-0.012147	-0.011724	0.001957	
27911	    0	19.980598	-24.889790	-3.200057	-0.736054	-1.297774	0.595862	0.200745	-0.248413	-0.029785	0.999968	-0.003680	-0.006489	0.002979	
27912	    0	22.773493	-31.271249	-3.937289	0.939564	-0.200845	0.297548	0.228240	-0.312184	-0.040611	0.999987	0.004698	-0.001004	0.001488	
27913	    0	23.137007	-27.040537	-1.046411	0.153351	0.535775	0.167847	0.231567	-0.270203	-0.011292	0.999995	0.000767	0.002679	0.000839	
27914	    0	17.928586	-8.113299	3.309359	-0.016975	0.851634	0.345613	0.179564	-0.080820	0.032336	0.999989	-0.000085	0.004258	0.001728	
27915	    0	9.555555	6.996243	2.445175	0.544171	1.116952	0.487522	0.095520	0.070129	0.024109	0.999977	0.002721	0.005585	0.002438	
27916	    0	3.239793	13.708586	0.056869	-0.200273	1.306353	0.175287	0.032280	0.137115	0.000220	0.999977	-0.001001	0.006532	0.000876	
27917	    0	0.881617	14.626435	-2.589403	-1.824037	1.257351	-0.527966	0.009033	0.145996	-0.027283	0.999935	-0.009120	0.006287	-0.002640	
27918	    0	0.851140	12.859090	-3.592012	-3.103419	1.237934	-1.177277	0.009035	0.127960	-0.037964	0.999843	-0.015516	0.006189	-0.005886	
27919	    0	2.050300	9.561044	-2.372065	-3.002153	1.126165	-1.969263	0.021301	0.095032	-0.025269	0.999823	-0.015010	0.005630	-0.009846	
27920	    0	3.839036	10.005479	-1.240685	-1.931667	0.901839	-2.686251	0.039669	0.099401	-0.013546	0.999852	-0.009658	0.004509	-0.013431	
27921	    0	6.875221	14.101892	-0.484268	-1.297631	0.303664	-3.106837	0.070923	0.139893	-0.005859	0.999857	-0.006488	0.001518	-0.015533	
27922	    0	10.784757	14.307845	-1.379120	-0.977184	-0.393506	-3.303503	0.110218	0.141202	-0.014269	0.999849	-0.004886	-0.001967	-0.016517	
27923	    0	15.663592	8.173142	-4.060096	-0.798651	-0.962120	-3.441049	0.158203	0.078857	-0.040161	0.999832	-0.003993	-0.004810	-0.017204	
27924	    0	19.635340	-4.542174	-11.693252	-0.334382	-2.580446	-3.220788	0.197072	-0.048784	-0.114313	0.999785	-0.001672	-0.012901	-0.016103	
27925	    0	27.931329	-21.138881	-23.142252	0.075540	-4.648205	-2.782017	0.281616	-0.215210	-0.224976	0.999633	0.000378	-0.023238	-0.013908	
27926	    0	32.712847	-20.077490	-25.441197	0.000000	-1.743424	-3.432295	0.325820	-0.206374	-0.251568	0.999814	0.000000	-0.008717	-0.017160	
27927	    0	22.991787	7.447113	-8.550508	0.544779	2.670678	-3.240446	0.229919	0.070984	-0.088379	0.999776	0.002724	0.013352	-0.016201	
27928	    0	14.338644	24.299939	10.577094	2.782236	4.116603	-2.660340	0.148770	0.239570	0.106094	0.999602	0.013909	0.020580	-0.013300	
27929	    0	4.776240	18.541065	20.480268	4.389171	2.630946	-2.000679	0.052307	0.180359	0.208130	0.999622	0.021943	0.013153	-0.010002	
27930	    0	4.824615	6.111244	14.372661	2.654620	1.396456	-2.395968	0.049964	0.058609	0.144171	0.999815	0.013272	0.006982	-0.011979	
27931	    0	12.060679	2.089477	5.832240	0.046541	1.072167	-3.038156	0.121216	0.019043	0.057678	0.999869	0.000233	0.005361	-0.015190	
27932	    0	16.269834	2.947019	3.101984	-2.430714	0.979687	-3.299194	0.163307	0.027147	0.029881	0.999778	-0.012153	0.004898	-0.016495	
27933	    0	16.409800	1.544311	2.252209	-4.658912	0.563884	-2.928535	0.164368	0.013550	0.021729	0.999617	-0.023292	0.002819	-0.014641	
27934	    0	16.321089	-5.381599	-0.071706	-6.212442	-0.013926	-2.502909	0.162520	-0.055840	0.001008	0.999439	-0.031056	-0.000070	-0.012512	
27935	    0	16.536463	-10.879044	-0.643319	-5.840505	-0.646126	-2.276988	0.164124	-0.110779	-0.002686	0.999503	-0.029198	-0.003230	-0.011383	
27936	    0	16.463629	-12.936336	-6.117699	-4.752721	-0.954169	-2.212786	0.163461	-0.132568	-0.057270	0.999644	-0.023761	-0.004770	-0.011063	
27937	    0	13.588207	-11.244997	-9.596143	-3.534770	-0.275442	-2.282121	0.134705	-0.115662	-0.093750	0.999777	-0.017673	-0.001377	-0.011410	
27938	    0	10.767693	-7.151234	-8.719947	-1.871556	0.505084	-2.169113	0.106668	-0.073486	-0.086788	0.999894	-0.009357	0.002525	-0.010845	
27939	    0	9.532618	-5.443544	-4.873395	-0.620283	1.074432	-1.885263	0.094543	-0.055481	-0.049072	0.999936	-0.003101	0.005372	-0.009426	
27940	    0	9.093001	-5.054838	-1.585087	-0.076486	1.363780	-1.654466	0.090397	-0.051304	-0.016449	0.999942	-0.000382	0.006819	-0.008272	
27941	    0	8.529656	-4.364550	-0.617633	0.213627	1.440648	-1.583130	0.084900	-0.044312	-0.006836	0.999942	0.001068	0.007203	-0.007915	
27942	    0	8.308917	-2.838279	-1.269155	0.539410	1.517900	-1.573596	0.082763	-0.028999	-0.013398	0.999936	0.002697	0.007589	-0.007868	
27943	    0	8.509003	-2.771058	-1.953840	0.675979	1.485666	-1.596867	0.084717	-0.028320	-0.020264	0.999934	0.003380	0.007428	-0.007984	
27944	    0	9.468598	-3.860376	-2.271329	0.458345	1.446182	-1.626811	0.094200	-0.039318	-0.023485	0.999938	0.002292	0.007231	-0.008134	
27945	    0	10.893755	-3.581044	-3.345158	0.254827	1.368168	-1.685367	0.108398	-0.036682	-0.034241	0.999940	0.001274	0.006841	-0.008427	
27946	    0	11.473313	-2.495332	-4.960101	0.298315	1.295115	-1.724277	0.114188	-0.025865	-0.050380	0.999940	0.001492	0.006475	-0.008621	
27947	    0	10.922343	-1.906602	-4.733057	0.464067	1.209283	-1.730380	0.108765	-0.019897	-0.048035	0.999941	0.002320	0.006046	-0.008652	
27948	    0	9.458434	-3.032986	-2.561187	0.659191	1.000041	-1.675635	0.094196	-0.031034	-0.026185	0.999947	0.003296	0.005000	-0.008378	
27949	    0	7.498071	-5.358208	-0.224211	0.386053	0.581559	-1.665519	0.074524	-0.054199	-0.002563	0.999959	0.001930	0.002908	-0.008327	
27950	    0	5.141115	-4.935186	1.853605	-0.419050	0.333600	-1.691268	0.051023	-0.049746	0.018555	0.999960	-0.002095	0.001668	-0.008456	
27951	    0	3.800901	-1.132418	3.499441	-1.396012	0.207523	-1.436639	0.037964	-0.011353	0.035034	0.999949	-0.006980	0.001038	-0.007183	
27952	    0	4.230330	0.986289	3.781800	-1.487559	0.200656	-0.807581	0.042381	0.009973	0.037702	0.999963	-0.007438	0.001003	-0.004038	
27953	    0	5.623277	-1.577028	5.068422	-1.285562	0.228311	-0.208284	0.056274	-0.015503	0.050720	0.999978	-0.006428	0.001142	-0.001041	
27954	    0	8.177856	-4.626130	4.499273	-1.273545	-0.065804	0.064469	0.081779	-0.045947	0.045313	0.999979	-0.006368	-0.000329	0.000322	
27955	    0	9.331810	-5.418394	0.952716	-0.456811	0.145722	0.443269	0.093445	-0.053955	0.009583	0.999994	-0.002284	0.000729	0.002216	
27956	    0	9.938430	-5.906167	1.174960	-0.042725	0.332452	0.797083	0.099638	-0.058662	0.011597	0.999990	-0.000214	0.001662	0.003985	
27957	    0	10.947032	-4.418165	1.247734	0.506786	0.290682	1.155861	0.109741	-0.043579	0.012207	0.999979	0.002534	0.001453	0.005779	
27958	    0	11.839551	-3.792006	0.621974	0.931181	0.245670	1.613641	0.118704	-0.036991	0.005900	0.999955	0.004656	0.001228	0.008068	
27959	    0	12.417536	-2.821498	0.895170	0.875871	0.166515	1.953925	0.124451	-0.027039	0.008728	0.999942	0.004379	0.000833	0.009769	
27960	    0	12.593478	-1.464061	1.308337	0.424394	-0.028229	2.204751	0.126084	-0.013279	0.013072	0.999936	0.002122	-0.000141	0.011024	
27961	    0	12.905386	-0.538709	1.411771	-0.070764	-0.252539	2.475802	0.129089	-0.003784	0.014282	0.999922	-0.000354	-0.001263	0.012379	
27962	    0	13.493671	0.069039	0.890972	-0.366604	-0.411619	2.678573	0.134892	0.002514	0.009184	0.999906	-0.001833	-0.002058	0.013392	
27963	    0	14.201395	-0.226856	-0.089053	-0.200469	-0.479142	2.765747	0.142029	-0.000305	-0.000549	0.999901	-0.001002	-0.002396	0.013828	
27964	    0	15.256840	-1.299346	-1.404627	0.216301	-0.562879	2.859027	0.152772	-0.010796	-0.013629	0.999893	0.001081	-0.002814	0.014295	
27965	    0	16.725450	-1.062417	-2.868056	0.427262	-0.671985	2.922170	0.167480	-0.008118	-0.028137	0.999885	0.002136	-0.003360	0.014610	
27966	    0	17.497932	-0.299558	-4.239142	0.266849	-0.704031	3.023270	0.175145	-0.000293	-0.041777	0.999878	0.001334	-0.003520	0.015116	
27967	    0	17.205096	1.059928	-4.950534	-0.093083	-0.581194	3.173203	0.171997	0.013306	-0.049011	0.999869	-0.000465	-0.002906	0.015865	
27968	    0	15.642366	3.383668	-4.864529	-0.230991	-0.426886	3.397345	0.155923	0.036432	-0.048353	0.999852	-0.001155	-0.002134	0.016986	
27969	    0	13.938592	5.011531	-4.533675	0.104528	-0.382825	3.563118	0.138550	0.052612	-0.045044	0.999839	0.000523	-0.001914	0.017815	
27970	    0	12.649494	5.354821	-4.845205	0.646056	-0.493460	3.636571	0.125610	0.055993	-0.047963	0.999826	0.003230	-0.002467	0.018182	
27971	    0	11.788245	5.044764	-5.475208	1.072186	-0.674480	3.608161	0.117126	0.052856	-0.054077	0.999817	0.005361	-0.003372	0.018040	
27972	    0	11.255602	5.009654	-5.934699	1.285058	-0.761841	3.502294	0.111876	0.052438	-0.058588	0.999818	0.006425	-0.003809	0.017510	
27973	    0	10.896586	5.419373	-5.904457	1.385767	-0.795028	3.312870	0.108276	0.056396	-0.058228	0.999830	0.006928	-0.003975	0.016563	
27974	    0	10.294013	6.141944	-5.343496	1.619043	-0.725975	3.095791	0.102160	0.063433	-0.052555	0.999841	0.008095	-0.003630	0.015478	
27975	    0	9.415239	7.025376	-4.949286	1.967914	-0.569945	2.881772	0.093262	0.072083	-0.048523	0.999844	0.009839	-0.002850	0.014408	
27976	    0	8.240584	8.829226	-5.027055	2.123942	-0.457787	2.764272	0.081284	0.089947	-0.049134	0.999845	0.010619	-0.002289	0.013821	
27977	    0	7.847355	9.273842	-3.404483	2.633818	-0.404190	2.580409	0.077332	0.094177	-0.032654	0.999827	0.013168	-0.002021	0.012901	
27978	    0	6.237621	10.846397	-4.109638	2.441718	-0.317971	2.415586	0.061120	0.109697	-0.039664	0.999851	0.012208	-0.001590	0.012077	
27979	    0	4.889847	12.466078	-4.161109	2.071650	-0.125127	2.198875	0.047546	0.125610	-0.040283	0.999886	0.010358	-0.000626	0.010994	
27980	    0	3.392635	15.735439	-4.836933	1.265937	0.152591	2.010584	0.032304	0.157987	-0.047396	0.999928	0.006330	0.000763	0.010053	
27981	    0	3.301938	18.617070	-2.135348	0.445564	0.364119	1.922640	0.031189	0.186523	-0.020996	0.999949	0.002228	0.001821	0.009613	
27982	    0	2.944541	17.227878	0.012596	-0.373846	0.362783	1.770235	0.027919	0.172530	-0.000248	0.999957	-0.001869	0.001814	0.008851	
27983	    0	2.105231	17.690410	-0.631499	-1.348708	-0.010681	1.443505	0.019775	0.177002	-0.007507	0.999950	-0.006743	-0.000053	0.007217	
27984	    0	0.828048	16.114391	-3.058236	-1.952978	-0.497448	1.138903	0.007442	0.160879	-0.032135	0.999932	-0.009765	-0.002487	0.005694	
27985	    0	0.700770	13.352955	-3.680493	-2.344396	-1.096379	0.935393	0.006592	0.133118	-0.038330	0.999905	-0.011722	-0.005482	0.004677	
27986	    0	1.062743	9.860788	-1.619696	-1.364545	-1.578172	0.669493	0.010428	0.098530	-0.016787	0.999940	-0.006823	-0.007891	0.003347	
27987	    0	3.330025	5.239897	0.772206	0.534067	-1.907953	0.311285	0.033142	0.052429	0.008179	0.999949	0.002670	-0.009540	0.001556	
27988	    0	7.237309	-2.121475	0.019735	1.514864	-2.298237	-0.151830	0.072350	-0.021275	0.000868	0.999905	0.007574	-0.011491	-0.000759	
27989	    0	9.027164	-8.801154	-3.872513	0.315294	-2.530742	-0.540176	0.090515	-0.088196	-0.037720	0.999914	0.001576	-0.012653	-0.002701	
27990	    0	11.398435	-14.413203	-4.622609	-0.941869	-1.968045	-0.664916	0.113947	-0.144723	-0.044424	0.999934	-0.004709	-0.009840	-0.003325	
27991	    0	16.339141	-22.759374	-0.048943	-0.661282	-0.874334	-0.534061	0.162781	-0.228027	0.000977	0.999981	-0.003306	-0.004372	-0.002670	
27992	    0	25.197077	-30.518872	8.315731	2.886304	0.299274	-0.471895	0.251368	-0.306936	0.078360	0.999891	0.014431	0.001496	-0.002359	
27993	    0	26.967394	-33.865685	7.188243	4.350073	1.072783	0.138867	0.270264	-0.339905	0.063049	0.999748	0.021749	0.005363	0.000694	
27994	    0	22.795494	-16.913716	5.404428	3.160432	0.863878	0.624686	0.228706	-0.169239	0.050384	0.999861	0.015801	0.004319	0.003123	
27995	    0	15.343700	4.053789	4.047637	1.467339	0.480657	0.452428	0.153442	0.040588	0.040405	0.999968	0.007337	0.002403	0.002262	
27996	    0	10.151668	15.817135	0.431265	-0.057793	0.352860	-0.459099	0.101887	0.157939	0.004087	0.999995	-0.000289	0.001764	-0.002295	
27997	    0	8.116152	18.881053	-3.852040	-1.656184	0.498209	-1.353482	0.082336	0.187927	-0.040283	0.999939	-0.008281	0.002491	-0.006767	
27998	    0	5.437510	15.807392	-3.884188	-2.630921	1.031348	-1.576302	0.055408	0.157108	-0.041197	0.999868	-0.013154	0.005157	-0.007881	
27999	    0	4.763157	6.844911	-0.870192	-2.300163	1.168870	-1.703712	0.048157	0.067932	-0.009766	0.999880	-0.011500	0.005844	-0.008518	
28000	    0	6.032282	1.202936	-0.470280	-0.884270	0.903535	-2.178822	0.060427	0.011350	-0.005027	0.999920	-0.004421	0.004518	-0.010894	
28001	    0	8.650018	4.328666	-0.663910	0.221260	0.280199	-2.855781	0.087097	0.042053	-0.006714	0.999896	0.001106	0.001401	-0.014278	
28002	    0	13.060681	2.882960	-1.095348	1.121577	-1.308888	-2.998692	0.131087	0.026924	-0.009942	0.999850	0.005608	-0.006544	-0.014993	
28003	    0	18.610109	-1.999546	-6.150680	1.484034	-3.161680	-2.594199	0.186768	-0.021973	-0.058716	0.999763	0.007420	-0.015807	-0.012970	
28004	    0	21.944375	5.861769	-9.558641	0.937142	-2.859304	-2.595882	0.221518	0.056189	-0.092162	0.999803	0.004685	-0.014296	-0.012979	
28005	    0	15.850744	18.835777	-8.040052	0.385301	-0.561357	-3.159470	0.161682	0.185974	-0.079590	0.999869	0.001926	-0.002807	-0.015797	
28006	    0	10.809011	28.344142	-2.345746	0.824984	1.778723	-3.527308	0.112860	0.281575	-0.023283	0.999796	0.004125	0.008893	-0.017635	
28007	    0	10.123066	22.893654	3.741231	1.004113	2.302173	-3.722694	0.105896	0.226807	0.037354	0.999747	0.005020	0.011510	-0.018612	
28008	    0	9.935900	9.689370	6.487508	0.507773	1.794754	-3.729900	0.101719	0.094848	0.064212	0.999783	0.002539	0.008973	-0.018648	
28009	    0	12.562743	4.526406	6.507232	-0.259223	1.179571	-3.474622	0.126770	0.043152	0.064270	0.999830	-0.001296	0.005898	-0.017372	
28010	    0	16.663502	3.774493	3.981486	-1.218665	0.501085	-3.161013	0.167305	0.035344	0.039176	0.999853	-0.006093	0.002505	-0.015804	
28011	    0	17.170449	3.780320	2.856665	-2.591871	0.022317	-2.934453	0.172241	0.035645	0.028076	0.999808	-0.012959	0.000112	-0.014671	
28012	    0	16.956578	-1.467198	2.092107	-3.490744	-0.231000	-2.853064	0.169312	-0.016718	0.021397	0.999744	-0.017452	-0.001155	-0.014264	
28013	    0	15.718770	-5.882395	-0.436264	-4.393501	-0.527823	-2.733157	0.156372	-0.061035	-0.002625	0.999661	-0.021965	-0.002639	-0.013664	
28014	    0	14.377748	-6.825440	-3.530742	-5.105531	-0.759611	-2.527203	0.143021	-0.070927	-0.032975	0.999587	-0.025524	-0.003798	-0.012634	
28015	    0	13.673855	-6.360885	-5.351581	-4.751961	-0.563879	-2.373024	0.136108	-0.066467	-0.051575	0.999643	-0.023757	-0.002819	-0.011864	
28016	    0	13.568470	-5.429821	-6.524410	-3.729160	0.037578	-2.233300	0.135046	-0.057013	-0.064223	0.999763	-0.018644	0.000188	-0.011166	
28017	    0	12.752918	-4.416815	-4.346799	-2.526211	0.789107	-2.051640	0.126892	-0.046021	-0.043396	0.999860	-0.012630	0.003945	-0.010258	
28018	    0	10.637715	-3.851701	-1.008447	-1.809372	1.247067	-1.805557	0.105959	-0.039568	-0.010391	0.999898	-0.009047	0.006235	-0.009027	
28019	    0	9.431720	-4.025755	0.168649	-1.739369	1.483966	-1.638085	0.093994	-0.041016	0.001343	0.999901	-0.008697	0.007420	-0.008190	
28020	    0	9.771060	-4.510183	0.189589	-1.754440	1.669942	-1.577432	0.097364	-0.045856	0.001482	0.999895	-0.008772	0.008349	-0.007887	
28021	    0	10.137280	-5.084216	-0.294667	-1.489306	1.809942	-1.521351	0.100952	-0.051636	-0.003479	0.999902	-0.007446	0.009049	-0.007607	
28022	    0	10.429726	-5.576609	-0.681846	-1.153027	1.878222	-1.521156	0.103801	-0.056599	-0.007470	0.999910	-0.005765	0.009391	-0.007606	
28023	    0	10.711487	-5.746741	-0.953217	-0.921657	1.853423	-1.566359	0.106567	-0.058350	-0.010254	0.999915	-0.004608	0.009267	-0.007832	
28024	    0	10.908876	-5.105328	-2.156615	-0.681321	1.661531	-1.589813	0.108495	-0.051992	-0.022293	0.999928	-0.003407	0.008307	-0.007949	
28025	    0	10.999809	-3.464111	-3.969885	-0.348670	1.400975	-1.591522	0.109436	-0.035583	-0.040405	0.999942	-0.001743	0.007005	-0.007957	
28026	    0	10.888305	-1.704838	-5.733895	-0.034524	1.117152	-1.579309	0.108421	-0.017916	-0.057942	0.999952	-0.000173	0.005586	-0.007896	
28027	    0	10.212565	-0.888560	-6.829407	0.096894	0.718126	-1.552601	0.101807	-0.009644	-0.068665	0.999963	0.000484	0.003591	-0.007763	
28028	    0	9.529908	-1.451563	-7.217452	0.312045	0.351146	-1.424421	0.095066	-0.015080	-0.072365	0.999971	0.001560	0.001756	-0.007122	
28029	    0	9.493705	-2.666793	-4.921532	0.156594	0.168611	-1.249703	0.094727	-0.027222	-0.049316	0.999979	0.000783	0.000843	-0.006248	
28030	    0	8.989143	-4.201473	-1.593696	-0.259782	0.030899	-1.006703	0.089676	-0.042487	-0.015896	0.999986	-0.001299	0.000154	-0.005033	
28031	    0	7.023340	-7.355644	1.241276	-0.426485	-0.183678	-0.747683	0.069946	-0.073792	0.012634	0.999990	-0.002132	-0.000918	-0.003738	
28032	    0	5.799847	-9.118259	3.866480	-0.536539	-0.291825	-0.529672	0.057700	-0.091231	0.038994	0.999991	-0.002683	-0.001459	-0.002648	
28033	    0	6.630910	-7.975531	4.266100	-0.581933	-0.228882	-0.245667	0.066162	-0.079712	0.042969	0.999994	-0.002910	-0.001144	-0.001228	
28034	    0	8.578629	-7.389891	3.189855	-0.386811	-0.109482	0.154877	0.085826	-0.073771	0.032088	0.999997	-0.001934	-0.000547	0.000774	
28035	    0	9.916147	-8.086691	2.859618	0.010109	0.055695	0.485230	0.099365	-0.080627	0.028564	0.999996	0.000051	0.000278	0.002426	
28036	    0	10.102964	-7.267809	2.656618	0.747684	0.095177	0.764660	0.101319	-0.072390	0.026247	0.999985	0.003738	0.000476	0.003823	
28037	    0	10.056513	-5.966105	1.929124	1.712066	-0.031853	1.107807	0.100891	-0.059265	0.018799	0.999948	0.008560	-0.000159	0.005539	
28038	    0	10.137759	-4.426242	1.050675	2.444351	-0.144010	1.494840	0.101698	-0.043628	0.010044	0.999897	0.012221	-0.000720	0.007474	
28039	    0	11.315100	-2.621693	-0.073300	2.537837	-0.140387	1.976862	0.113403	-0.025085	-0.000977	0.999870	0.012689	-0.000702	0.009884	
28040	    0	13.236239	-1.360576	-1.774617	1.998603	-0.090984	2.452380	0.132523	-0.011804	-0.017810	0.999874	0.009993	-0.000455	0.012261	
28041	    0	14.678301	-0.457758	-3.736995	1.319367	-0.132757	2.823753	0.146851	-0.002258	-0.037292	0.999878	0.006597	-0.000664	0.014118	
28042	    0	15.995730	-0.217865	-4.938221	1.003500	-0.377862	3.052082	0.160056	0.000510	-0.049082	0.999868	0.005017	-0.001889	0.015260	
28043	    0	18.691226	-1.249432	-4.916947	0.909466	-0.741421	3.135828	0.187256	-0.009338	-0.048523	0.999860	0.004547	-0.003707	0.015678	
28044	    0	21.808468	-2.186690	-4.635638	0.829359	-1.025254	3.295499	0.218637	-0.018078	-0.045317	0.999842	0.004147	-0.005126	0.016477	
28045	    0	23.293256	-1.554418	-4.468837	0.631752	-1.090115	3.579927	0.233398	-0.011230	-0.043457	0.999820	0.003159	-0.005450	0.017899	
28046	    0	21.779384	1.042399	-4.417320	0.471529	-0.973959	3.897742	0.217746	0.014771	-0.043081	0.999795	0.002357	-0.004869	0.019487	
28047	    0	18.640226	3.651086	-4.990629	0.428995	-0.806487	4.139256	0.185791	0.040466	-0.049072	0.999775	0.002145	-0.004032	0.020695	
28048	    0	16.027833	5.870608	-5.817406	0.356894	-0.752700	4.306185	0.159181	0.062244	-0.057465	0.999759	0.001784	-0.003763	0.021529	
28049	    0	14.201931	7.497954	-5.991072	0.350409	-0.810310	4.398715	0.140564	0.078186	-0.059204	0.999748	0.001752	-0.004051	0.021992	
28050	    0	12.630258	8.523344	-5.213527	0.549935	-0.850939	4.364188	0.124620	0.088107	-0.051363	0.999748	0.002749	-0.004254	0.021819	
28051	    0	11.326414	8.813281	-4.414951	0.928763	-0.926284	4.214820	0.111572	0.090698	-0.043213	0.999756	0.004643	-0.004631	0.021072	
28052	    0	10.488062	8.502124	-3.735508	1.312737	-1.015359	3.934396	0.103364	0.087305	-0.036260	0.999771	0.006563	-0.005076	0.019670	
28053	    0	9.397948	8.380716	-3.134471	1.619836	-1.083261	3.653215	0.092590	0.085754	-0.030151	0.999785	0.008099	-0.005416	0.018265	
28054	    0	7.811418	8.798052	-3.347818	1.756403	-1.124647	3.395496	0.076786	0.089579	-0.032262	0.999801	0.008781	-0.005623	0.016976	
28055	    0	7.128738	9.485187	-2.140705	2.199893	-1.123885	3.168701	0.069885	0.096191	-0.019958	0.999798	0.010999	-0.005619	0.015842	
28056	    0	6.710278	10.473569	-2.497007	2.719499	-1.125415	2.878583	0.065717	0.106011	-0.023162	0.999787	0.013597	-0.005627	0.014392	
28057	    0	6.451689	12.228388	-3.014923	3.138959	-1.018407	2.521696	0.063110	0.123535	-0.027893	0.999784	0.015694	-0.005092	0.012608	
28058	    0	5.703747	15.745554	-4.117604	3.179746	-0.693555	2.053960	0.055549	0.158657	-0.038465	0.999814	0.015898	-0.003468	0.010269	
28059	    0	3.988870	22.339484	-5.288131	2.209547	-0.272188	1.780761	0.037964	0.224304	-0.050354	0.999898	0.011047	-0.001361	0.008904	
28060	    0	3.201838	23.327701	0.398490	1.596681	0.265891	1.838349	0.029880	0.233517	0.005808	0.999925	0.007983	0.001329	0.009192	
28061	    0	1.697079	21.448490	2.972874	0.582322	0.240330	1.800564	0.015076	0.214539	0.030334	0.999954	0.002912	0.001202	0.009003	
28062	    0	0.966165	19.542065	1.315005	-0.500303	-0.218394	1.493088	0.008188	0.195518	0.012671	0.999968	-0.002501	-0.001092	0.007465	
28063	    0	-0.170380	16.620352	-0.712061	-1.335928	-0.797093	1.145953	-0.002625	0.166138	-0.008240	0.999953	-0.006680	-0.003985	0.005730	
28064	    0	-2.538525	14.528790	-0.938511	-1.055732	-1.171129	0.953879	-0.026019	0.145112	-0.010303	0.999957	-0.005279	-0.005856	0.004769	
28065	    0	-0.604430	10.280955	3.145536	0.754748	-1.345080	0.888836	-0.006714	0.102661	0.031799	0.999960	0.003774	-0.006725	0.004444	
28066	    0	4.443490	5.198413	3.861419	2.176547	-1.695498	0.525110	0.043966	0.051673	0.039552	0.999901	0.010882	-0.008477	0.002625	
28067	    0	8.438609	-0.394325	1.127728	1.533542	-1.698150	0.156406	0.084290	-0.003967	0.011963	0.999934	0.007668	-0.008491	0.000782	
28068	    0	13.023558	-15.125290	-0.259280	0.480275	-1.408209	0.202753	0.130404	-0.151115	-0.002038	0.999971	0.002401	-0.007041	0.001014	
28069	    0	19.122283	-31.080969	0.080992	1.354431	-1.478602	0.276952	0.191650	-0.310547	0.000122	0.999949	0.006772	-0.007393	0.001385	
28070	    0	23.754775	-45.725152	1.372324	3.266704	1.498495	0.484493	0.238711	-0.456798	0.004474	0.999835	0.016333	0.007492	0.002422	
28071	    0	23.907584	-32.879812	6.439656	0.080873	1.776338	0.328068	0.240173	-0.328430	0.062134	0.999959	0.000404	0.008882	0.001640	
28072	    0	19.812884	-5.888070	6.884662	-2.234127	-0.610747	0.071909	0.197937	-0.058031	0.070103	0.999932	-0.011170	-0.003054	0.000360	
28073	    0	13.820153	19.829665	1.983101	-2.448178	-1.847149	0.025178	0.138000	0.198547	0.018677	0.999882	-0.012240	-0.009235	0.000126	
28074	    0	7.357062	25.227071	-3.804341	-3.100161	-1.183566	-0.604086	0.074570	0.251421	-0.041506	0.999857	-0.015500	-0.005918	-0.003020	
28075	    0	6.340957	19.399756	-4.931754	-4.496409	0.361857	-1.179611	0.064453	0.192444	-0.053772	0.999728	-0.022480	0.001809	-0.005898	
28076	    0	3.913253	1.224493	-2.045923	-3.517198	0.968617	-1.713487	0.039133	0.011545	-0.020856	0.999797	-0.017585	0.004843	-0.008567	
28077	    0	3.476128	-3.327489	-3.156640	-1.076543	0.633451	-2.498708	0.034241	-0.033875	-0.031494	0.999902	-0.005383	0.003167	-0.012493	
28078	    0	7.817146	4.063642	-1.839859	0.879522	0.226413	-3.319523	0.078812	0.039412	-0.018312	0.999851	0.004397	0.001132	-0.016597	
28079	    0	12.526134	5.325700	-4.200981	1.697072	-1.166606	-3.225905	0.126343	0.051575	-0.040833	0.999817	0.008485	-0.005833	-0.016129	
28080	    0	16.074059	1.830658	-4.539729	0.706710	-2.264904	-2.626747	0.161464	0.016345	-0.043511	0.999843	0.003533	-0.011324	-0.013133	
28081	    0	21.039871	2.447020	-1.246955	0.376338	-1.947114	-2.738320	0.210815	0.021606	-0.010376	0.999857	0.001882	-0.009735	-0.013691	
28082	    0	24.171772	11.757059	2.627408	0.296226	-0.797121	-3.364732	0.243542	0.113443	0.027412	0.999849	0.001481	-0.003985	-0.016823	
28083	    0	18.691239	21.393120	3.236038	0.811049	0.531988	-3.472326	0.190674	0.210510	0.032715	0.999837	0.004055	0.002660	-0.017361	
28084	    0	15.083757	20.313248	3.944807	1.154193	1.512601	-2.831024	0.153989	0.200740	0.039454	0.999854	0.005771	0.007563	-0.014154	
28085	    0	12.320026	14.566459	7.075164	0.617245	2.004519	-2.446090	0.125671	0.143921	0.069946	0.999869	0.003086	0.010022	-0.012230	
28086	    0	11.615295	7.810234	5.923014	-0.232706	1.917729	-2.522193	0.117686	0.076693	0.058017	0.999873	-0.001163	0.009588	-0.012610	
28087	    0	11.908641	2.916029	1.650499	-1.740161	1.165830	-2.762742	0.119568	0.027649	0.015564	0.999849	-0.008700	0.005829	-0.013813	
28088	    0	13.936250	2.919345	-1.384396	-3.667250	0.626437	-3.240342	0.139763	0.026666	-0.014786	0.999696	-0.018334	0.003132	-0.016200	
28089	    0	16.055553	3.520194	-2.324166	-5.201643	0.622663	-3.600154	0.161072	0.031677	-0.024597	0.999495	-0.026004	0.003113	-0.017998	
28090	    0	16.430305	1.901308	-1.952482	-5.925416	0.448317	-3.598174	0.164557	0.015458	-0.020387	0.999396	-0.029621	0.002241	-0.017987	
28091	    0	15.991396	-1.638730	-0.653190	-6.091781	-0.143271	-3.398822	0.159607	-0.019287	-0.005859	0.999391	-0.030453	-0.000716	-0.016991	
28092	    0	14.922570	-3.767436	-0.598478	-5.430905	-0.619225	-2.958583	0.148661	-0.040011	-0.004458	0.999516	-0.027150	-0.003096	-0.014791	
28093	    0	14.618080	-4.139376	-5.541194	-4.199637	-0.581990	-2.429441	0.145813	-0.044312	-0.054077	0.999701	-0.020996	-0.002910	-0.012146	
28094	    0	14.374753	-4.294587	-10.590148	-3.431938	0.239961	-2.163082	0.143132	-0.046307	-0.105298	0.999793	-0.017159	0.001200	-0.010815	
28095	    0	12.749050	-4.675419	-10.584311	-2.715259	1.220770	-2.063101	0.126343	-0.049500	-0.105957	0.999836	-0.013576	0.006104	-0.010315	
28096	    0	10.811446	-4.714094	-8.196503	-1.794132	1.909531	-1.940432	0.106859	-0.048921	-0.082556	0.999866	-0.008970	0.009547	-0.009702	
28097	    0	10.296377	-6.396387	-6.223152	-0.953519	2.087480	-1.926494	0.101685	-0.065247	-0.062988	0.999887	-0.004767	0.010437	-0.009632	
28098	    0	9.929083	-8.448097	-4.850493	-0.079348	2.025669	-1.889099	0.097989	-0.085430	-0.049468	0.999904	-0.000397	0.010128	-0.009445	
28099	    0	9.660112	-8.776100	-4.129343	0.689909	1.842555	-1.847895	0.095398	-0.088501	-0.042480	0.999908	0.003449	0.009212	-0.009239	
28100	    0	9.605960	-7.759671	-4.401537	1.114305	1.597831	-1.737453	0.095024	-0.078176	-0.045212	0.999914	0.005571	0.007989	-0.008687	
28101	    0	9.017388	-6.758324	-5.739967	1.239232	1.182583	-1.581609	0.089294	-0.067932	-0.058350	0.999931	0.006196	0.005913	-0.007908	
28102	    0	7.941565	-7.824664	-7.861886	1.333260	0.687039	-1.375222	0.078606	-0.078261	-0.079412	0.999948	0.006666	0.003435	-0.006876	
28103	    0	8.037754	-9.488598	-7.954311	1.454186	0.530442	-1.213093	0.079590	-0.094788	-0.080444	0.999951	0.007271	0.002652	-0.006065	
28104	    0	9.652898	-8.947388	-5.697196	1.453232	0.669490	-1.149387	0.095821	-0.089607	-0.057944	0.999951	0.007266	0.003347	-0.005747	
28105	    0	10.203616	-6.531705	-2.745500	1.325245	0.606737	-1.185625	0.101562	-0.065735	-0.028198	0.999955	0.006626	0.003034	-0.005928	
28106	    0	9.133615	-5.413869	-0.679311	0.971042	0.319103	-1.294914	0.090972	-0.054694	-0.007203	0.999966	0.004855	0.001595	-0.006474	
28107	    0	7.319605	-4.905458	0.903310	0.639540	0.068665	-1.308453	0.072876	-0.049561	0.008850	0.999973	0.003198	0.000343	-0.006542	
28108	    0	5.958374	-3.160626	3.526955	-0.096703	0.012589	-1.040082	0.059421	-0.031898	0.035281	0.999986	-0.000484	0.000063	-0.005200	
28109	    0	6.641851	-1.365826	4.051185	-0.764277	0.110627	-0.507357	0.066406	-0.013672	0.040527	0.999989	-0.003821	0.000553	-0.002537	
28110	    0	8.100634	-2.024415	3.369489	-0.973324	0.259591	0.074387	0.081058	-0.020050	0.033688	0.999987	-0.004867	0.001298	0.000372	
28111	    0	9.471598	-3.839183	3.053211	-0.858120	0.247193	0.497439	0.094849	-0.038025	0.030579	0.999987	-0.004291	0.001236	0.002487	
28112	    0	9.959127	-3.850567	1.887865	-0.572588	0.044823	0.756267	0.099740	-0.038074	0.018966	0.999989	-0.002863	0.000224	0.003781	
28113	    0	9.555916	-2.839382	0.302178	-0.196839	-0.132561	1.040654	0.095703	-0.027893	0.003113	0.999986	-0.000984	-0.000663	0.005203	
28114	    0	10.321774	-2.100367	-0.086811	0.298694	-0.216677	1.474395	0.103370	-0.020241	-0.000787	0.999970	0.001493	-0.001083	0.007372	
28115	    0	12.124258	-1.634831	-0.139058	0.583087	-0.254063	1.990545	0.121399	-0.015137	-0.001282	0.999945	0.002915	-0.001270	0.009953	
28116	    0	13.216237	-0.976596	-1.064095	0.543989	-0.357255	2.342854	0.132283	-0.008188	-0.010428	0.999926	0.002720	-0.001786	0.011714	
28117	    0	13.664234	-0.234375	-2.409412	0.459494	-0.518051	2.545240	0.136719	-0.000549	-0.023743	0.999912	0.002297	-0.002590	0.012726	
28118	    0	15.114938	0.111791	-3.917042	0.696589	-0.675607	2.785021	0.151244	0.003359	-0.038651	0.999890	0.003483	-0.003378	0.013925	
28119	    0	17.669570	-0.907199	-4.632270	1.346079	-0.878947	2.938217	0.177002	-0.006165	-0.045593	0.999859	0.006730	-0.004395	0.014690	
28120	    0	20.627864	-3.028180	-4.575060	1.830015	-1.005421	3.053839	0.206932	-0.026711	-0.044967	0.999828	0.009150	-0.005027	0.015268	
28121	    0	22.702009	-3.969310	-4.276597	1.754868	-1.072568	3.232772	0.227844	-0.035645	-0.041870	0.999816	0.008774	-0.005363	0.016163	
28122	    0	22.692383	-2.483955	-3.646958	1.261407	-0.994361	3.470823	0.227485	-0.020669	-0.035479	0.999817	0.006307	-0.004972	0.017353	
28123	    0	20.228163	0.585622	-3.549037	0.707480	-0.843865	3.743218	0.202271	0.009766	-0.034607	0.999809	0.003537	-0.004219	0.018715	
28124	    0	16.909912	4.076094	-3.416805	0.481447	-0.682304	3.927304	0.168369	0.044153	-0.033489	0.999798	0.002407	-0.003411	0.019635	
28125	    0	14.150852	6.681052	-3.574541	0.580065	-0.640913	3.965268	0.140259	0.069702	-0.035095	0.999794	0.002900	-0.003204	0.019825	
28126	    0	12.176397	8.180661	-3.816555	0.798852	-0.719883	3.902129	0.120271	0.084313	-0.037397	0.999795	0.003994	-0.003599	0.019509	
28127	    0	10.997537	8.751246	-3.988128	1.061320	-0.859700	3.784435	0.108459	0.089783	-0.038940	0.999797	0.005306	-0.004298	0.018921	
28128	    0	10.108546	8.749206	-3.758966	1.254163	-0.973956	3.621528	0.099656	0.089537	-0.036545	0.999804	0.006270	-0.004869	0.018106	
28129	    0	9.401224	8.339158	-3.062288	1.412479	-1.039951	3.440308	0.092712	0.085205	-0.029541	0.999813	0.007062	-0.005199	0.017200	
28130	    0	8.921406	7.850889	-2.424478	1.546379	-1.024879	3.271296	0.088033	0.080137	-0.023176	0.999823	0.007731	-0.005124	0.016356	
28131	    0	8.653500	8.132030	-2.897517	1.619238	-0.968224	3.116780	0.085388	0.082886	-0.027893	0.999834	0.008096	-0.004841	0.015583	
28132	    0	8.655243	8.372828	-1.682330	2.214944	-0.845196	2.920132	0.085383	0.085157	-0.015523	0.999823	0.011074	-0.004226	0.014600	
28133	    0	7.634124	9.313840	-2.337076	2.650610	-0.726171	2.610935	0.075195	0.094421	-0.021851	0.999820	0.013252	-0.003631	0.013054	
28134	    0	5.964632	11.500451	-3.426769	2.641623	-0.555258	2.243157	0.058440	0.116102	-0.032576	0.999846	0.013207	-0.002776	0.011215	
28135	    0	4.629478	16.014961	-4.254579	2.154041	-0.190741	1.833405	0.044861	0.161011	-0.040771	0.999899	0.010770	-0.000954	0.009167	
28136	    0	3.410224	18.723402	-3.073707	1.146146	0.154498	1.670485	0.032513	0.187682	-0.029688	0.999948	0.005731	0.000772	0.008352	
28137	    0	2.787597	18.989353	-0.229107	0.130655	0.226596	1.713583	0.026245	0.190125	-0.002197	0.999962	0.000653	0.001133	0.008568	
28138	    0	2.328147	16.565425	0.768442	-0.719461	-0.039673	1.551838	0.021994	0.165854	0.007092	0.999963	-0.003597	-0.000198	0.007759	
28139	    0	1.278555	14.204931	-1.125032	-1.658473	-0.623334	1.297023	0.011902	0.142029	-0.012390	0.999939	-0.008292	-0.003117	0.006485	
28140	    0	0.273706	10.939575	-2.573866	-2.027570	-1.317062	1.049072	0.002338	0.109140	-0.026830	0.999912	-0.010138	-0.006585	0.005245	
28141	    0	0.059122	5.741544	-1.823025	-1.146530	-1.649508	0.889605	0.000488	0.057312	-0.018555	0.999939	-0.005733	-0.008247	0.004448	
28142	    0	2.872293	-0.302119	0.239450	0.490007	-1.957932	0.794236	0.028709	-0.002913	0.002668	0.999941	0.002450	-0.009789	0.003971	
28143	    0	6.925570	-4.019956	-1.417608	1.193460	-2.140102	0.576034	0.069519	-0.039917	-0.013672	0.999920	0.005967	-0.010700	0.002880	
28144	    0	10.338285	-6.653263	-1.738468	0.922601	-1.797898	0.334173	0.103646	-0.066281	-0.016760	0.999948	0.004613	-0.008989	0.001671	
28145	    0	14.019931	-9.703035	-0.270478	0.724224	-0.875859	0.225831	0.140320	-0.096863	-0.002441	0.999983	0.003621	-0.004379	0.001129	
28146	    0	16.310743	-12.366571	-1.114454	1.003081	-0.668911	-0.010490	0.163138	-0.123618	-0.011219	0.999981	0.005015	-0.003345	-0.000052	
28147	    0	20.144030	-13.089053	-1.992971	2.533220	0.321206	-0.357829	0.201172	-0.130981	-0.021912	0.999916	0.012666	0.001606	-0.001789	
28148	    0	18.931481	-10.550235	1.612741	2.284310	1.370472	-0.432028	0.189185	-0.106076	0.013621	0.999908	0.011421	0.006852	-0.002160	
28149	    0	14.975310	-1.484537	5.658985	0.769810	0.668529	-0.507357	0.149902	-0.015442	0.056030	0.999984	0.003849	0.003343	-0.002537	
28150	    0	9.308083	9.350839	1.414334	-0.503541	-0.345994	-0.533678	0.093306	0.093295	0.014070	0.999991	-0.002518	-0.001730	-0.002668	
28151	    0	5.970564	16.545402	-2.804832	-1.548027	-0.299649	-1.040665	0.060608	0.164917	-0.029236	0.999955	-0.007740	-0.001498	-0.005203	
28152	    0	6.613527	16.157764	-4.533488	-2.645410	0.047686	-1.669952	0.067467	0.160399	-0.047478	0.999877	-0.013227	0.000238	-0.008349	
28153	    0	8.278083	9.226130	-4.143738	-3.162578	0.359557	-2.137124	0.083679	0.090698	-0.043030	0.999816	-0.015812	0.001798	-0.010685	
28154	    0	9.791603	4.138960	-2.540470	-2.126606	0.381297	-2.629407	0.098397	0.039824	-0.026021	0.999855	-0.010633	0.001906	-0.013146	
28155	    0	12.377151	4.541394	-3.840970	-0.649288	-0.358405	-3.047305	0.124512	0.043396	-0.038330	0.999877	-0.003246	-0.001792	-0.015236	
28156	    0	14.196349	-0.296485	-11.306786	0.072484	-2.757631	-2.786624	0.143445	-0.004916	-0.111098	0.999807	0.000362	-0.013787	-0.013932	
28157	    0	21.797178	-5.760281	-14.429257	0.422146	-4.565966	-2.674417	0.220398	-0.060242	-0.139404	0.999647	0.002110	-0.022827	-0.013371	
28158	    0	25.861798	0.817650	-7.201407	0.493275	-2.230611	-3.428892	0.259491	0.003905	-0.069110	0.999787	0.002466	-0.011152	-0.017143	
28159	    0	20.234109	17.861752	2.781800	0.696794	1.243662	-3.397562	0.205505	0.175049	0.027161	0.999830	0.003484	0.006218	-0.016987	
28160	    0	15.666919	20.632406	8.316348	1.942223	2.391822	-3.209188	0.160939	0.202956	0.083238	0.999752	0.009710	0.011958	-0.016045	
28161	    0	13.077657	12.161528	10.843700	1.816121	1.968530	-3.257230	0.133789	0.118469	0.108215	0.999777	0.009080	0.009842	-0.016285	
28162	    0	12.454362	5.303502	8.021426	0.161179	1.763054	-3.059928	0.126036	0.051050	0.079149	0.999844	0.000806	0.008815	-0.015299	
28163	    0	14.840154	-0.947039	0.227437	-1.455569	1.116235	-2.884815	0.148254	-0.011597	0.001526	0.999853	-0.007277	0.005581	-0.014423	
28164	    0	15.924880	-1.305290	-2.647831	-2.950318	0.855701	-2.928381	0.158916	-0.015777	-0.026939	0.999774	-0.014750	0.004278	-0.014641	
28165	    0	16.358787	-3.077124	-2.292465	-4.257680	0.881485	-2.830060	0.163025	-0.033569	-0.022949	0.999663	-0.021286	0.004407	-0.014149	
28166	    0	15.999288	-5.724580	-1.063643	-4.853494	0.730037	-2.624278	0.159184	-0.059583	-0.009791	0.999613	-0.024264	0.003650	-0.013120	
28167	    0	14.684020	-7.588056	1.056173	-4.543048	0.472503	-2.424892	0.145935	-0.077393	0.011963	0.999665	-0.022713	0.002362	-0.012123	
28168	    0	11.996937	-7.062695	-1.699226	-4.366930	0.025561	-2.219422	0.119171	-0.072301	-0.015441	0.999700	-0.021832	0.000128	-0.011096	
28169	    0	10.659610	-5.363148	-6.672784	-4.133775	-0.064855	-1.949480	0.106079	-0.056030	-0.065552	0.999739	-0.020667	-0.000324	-0.009747	
28170	    0	11.021053	-4.256383	-7.786784	-3.565834	0.495562	-1.710814	0.109641	-0.044886	-0.077353	0.999801	-0.017828	0.002478	-0.008554	
28171	    0	10.288869	-4.256184	-5.509031	-2.762535	1.101733	-1.334440	0.102295	-0.044006	-0.055054	0.999866	-0.013812	0.005508	-0.006672	
28172	    0	9.093840	-5.176478	-3.879427	-2.246172	1.507812	-1.025808	0.090377	-0.052666	-0.038889	0.999895	-0.011230	0.007539	-0.005129	
28173	    0	9.217258	-5.720404	-2.557521	-1.834927	1.812991	-0.916319	0.091675	-0.057861	-0.025879	0.999906	-0.009174	0.009065	-0.004581	
28174	    0	9.889985	-5.114610	-1.698779	-1.276434	2.065718	-0.995474	0.098463	-0.051748	-0.017677	0.999913	-0.006382	0.010328	-0.004977	
28175	    0	10.004744	-4.214850	-2.556201	-0.750751	2.057890	-1.081112	0.099548	-0.042786	-0.026428	0.999925	-0.003754	0.010289	-0.005405	
28176	    0	9.783125	-4.727158	-3.317119	-0.746171	1.859897	-1.136233	0.097247	-0.047951	-0.033899	0.999933	-0.003731	0.009299	-0.005681	
28177	    0	9.946312	-3.398471	-2.714188	-0.787944	1.911971	-1.158169	0.098999	-0.034668	-0.027954	0.999929	-0.003940	0.009560	-0.005791	
28178	    0	10.349210	-1.668277	-2.777622	-0.647368	1.773110	-1.285009	0.103130	-0.017438	-0.028636	0.999934	-0.003237	0.008865	-0.006425	
28179	    0	10.655269	-0.514518	-3.913475	-0.311856	1.258107	-1.456474	0.106262	-0.005981	-0.039795	0.999952	-0.001559	0.006290	-0.007282	
28180	    0	10.347313	-0.948878	-5.008417	0.006485	0.686082	-1.585980	0.103221	-0.010306	-0.050439	0.999962	0.000032	0.003430	-0.007930	
28181	    0	8.818527	-2.922136	-5.247139	0.266269	0.230601	-1.579302	0.087891	-0.029846	-0.052612	0.999967	0.001331	0.001153	-0.007896	
28182	    0	7.098160	-4.784807	-3.949523	0.123406	0.113488	-1.386463	0.070625	-0.048314	-0.039565	0.999975	0.000617	0.000567	-0.006932	
28183	    0	6.017150	-6.165911	-1.553038	-0.310327	0.228883	-1.096350	0.059814	-0.062012	-0.015503	0.999983	-0.001552	0.001144	-0.005482	
28184	    0	4.856189	-7.138434	1.387688	-0.475313	0.252725	-0.779918	0.048301	-0.071540	0.013986	0.999989	-0.002377	0.001264	-0.003900	
28185	    0	4.463621	-7.709431	2.940762	-0.246239	0.101471	-0.405884	0.044495	-0.077148	0.029480	0.999996	-0.001231	0.000507	-0.002029	
28186	    0	4.835375	-7.663647	2.248094	0.501443	-0.128746	-0.043488	0.048323	-0.076703	0.022320	0.999996	0.002507	-0.000644	-0.000217	
28187	    0	6.258939	-7.427527	0.394019	1.309405	-0.079346	0.256350	0.062683	-0.074219	0.003479	0.999977	0.006547	-0.000397	0.001282	
28188	    0	8.470718	-8.191137	-0.319506	1.911005	0.213245	0.558481	0.084931	-0.081638	-0.004066	0.999949	0.009555	0.001066	0.002792	
28189	    0	10.150604	-7.915884	0.367487	2.521019	0.350200	0.904111	0.101868	-0.078735	0.002502	0.999908	0.012605	0.001751	0.004520	
28190	    0	11.040321	-5.829283	0.180506	3.124193	0.308433	1.193484	0.110750	-0.057650	0.000731	0.999859	0.015620	0.001542	0.005967	
28191	    0	11.945509	-3.970476	0.444860	3.207565	0.264945	1.484758	0.119751	-0.038879	0.003662	0.999843	0.016037	0.001325	0.007423	
28192	    0	13.289420	-2.096218	1.544044	2.678989	0.244533	1.832661	0.133099	-0.019946	0.015006	0.999867	0.013394	0.001223	0.009163	
28193	    0	14.439713	0.556509	2.066466	1.667075	0.207717	2.167579	0.144348	0.006958	0.020569	0.999906	0.008335	0.001039	0.010838	
28194	    0	14.463958	3.120627	2.086232	0.489629	0.134472	2.465504	0.144255	0.032935	0.020844	0.999920	0.002448	0.000672	0.012327	
28195	    0	13.980514	4.659671	1.559267	-0.472084	0.054170	2.711572	0.139160	0.048523	0.015442	0.999905	-0.002360	0.000271	0.013557	
28196	    0	13.809474	4.508528	0.273153	-0.976218	0.005150	2.852166	0.137433	0.047061	0.002501	0.999886	-0.004881	0.000026	0.014260	
28197	    0	13.804540	3.223459	-2.513080	-0.856623	-0.096897	2.892413	0.137573	0.034119	-0.025208	0.999886	-0.004283	-0.000484	0.014462	
28198	    0	14.347445	1.864477	-5.227364	0.020981	-0.365459	2.721872	0.143298	0.020601	-0.052010	0.999906	0.000105	-0.001827	0.013609	
28199	    0	15.905686	0.472413	-5.973054	1.148265	-0.692583	2.609347	0.159180	0.007141	-0.059143	0.999892	0.005741	-0.003463	0.013046	
28200	    0	18.445390	-0.502970	-6.937922	1.726235	-1.053099	2.761785	0.184856	-0.001885	-0.068432	0.999853	0.008631	-0.005265	0.013808	
28201	    0	20.752161	0.211917	-8.371107	1.461299	-1.055203	3.134326	0.207886	0.005981	-0.082581	0.999836	0.007306	-0.005276	0.015671	
28202	    0	21.463076	3.204738	-8.267613	0.845197	-0.541529	3.646877	0.214217	0.036304	-0.081948	0.999821	0.004226	-0.002707	0.018233	
28203	    0	20.579122	7.670077	-6.604768	0.580637	-0.079923	4.006469	0.204224	0.080994	-0.065735	0.999795	0.002903	-0.000400	0.020031	
28204	    0	17.400517	11.695264	-5.588139	0.847880	0.056843	4.162529	0.171502	0.120775	-0.055424	0.999774	0.004239	0.000284	0.020811	
28205	    0	12.660323	12.950967	-5.665766	1.294809	-0.032618	4.124009	0.123901	0.132446	-0.055786	0.999766	0.006474	-0.000163	0.020618	
28206	    0	8.473392	11.823135	-5.596424	1.541059	-0.211922	3.869719	0.082479	0.120268	-0.054955	0.999783	0.007705	-0.001060	0.019347	
28207	    0	6.471317	11.138453	-5.173310	1.688491	-0.393511	3.464725	0.062866	0.112915	-0.050659	0.999812	0.008442	-0.001967	0.017323	
28208	    0	5.911444	12.306481	-4.588174	1.912219	-0.414680	3.005380	0.057345	0.124366	-0.044577	0.999839	0.009561	-0.002073	0.015026	
28209	    0	5.715875	14.704930	-4.350405	1.873100	-0.237857	2.668881	0.055237	0.148193	-0.042053	0.999866	0.009365	-0.001189	0.013344	
28210	    0	5.078808	16.085383	-2.204242	1.902086	-0.075534	2.491672	0.048785	0.161670	-0.020489	0.999877	0.009510	-0.000378	0.012458	
28211	    0	3.311075	17.036764	-2.335547	1.329845	-0.021935	2.397231	0.031067	0.170898	-0.022217	0.999906	0.006649	-0.000110	0.011986	
28212	    0	1.884373	19.188720	-1.730768	0.614371	0.057222	2.297074	0.016633	0.192139	-0.016723	0.999928	0.003072	0.000286	0.011485	
28213	    0	2.436360	16.903317	0.497576	0.148013	0.300794	1.897460	0.022766	0.169250	0.005066	0.999953	0.000740	0.001504	0.009487	
28214	    0	1.809367	17.206234	-1.643888	-1.597437	0.416001	1.450759	0.016809	0.172049	-0.017849	0.999939	-0.007987	0.002080	0.007254	
28215	    0	0.032140	19.186941	-1.764634	-2.858654	0.260172	1.009408	-0.000671	0.191589	-0.020386	0.999884	-0.014293	0.001301	0.005047	
28216	    0	-1.275041	17.595936	-1.503409	-3.185222	-0.298704	0.601986	-0.013254	0.175651	-0.017853	0.999867	-0.015925	-0.001493	0.003010	
28217	    0	-2.218706	12.974476	-1.494213	-2.992384	-1.330436	0.402087	-0.022339	0.129456	-0.017029	0.999864	-0.014961	-0.006652	0.002010	
28218	    0	-1.630679	6.547036	-1.178681	-2.238766	-2.581724	0.408956	-0.016280	0.065298	-0.012729	0.999851	-0.011193	-0.012908	0.002045	
28219	    0	3.276652	-3.594154	-2.782879	-1.332941	-3.688096	0.310536	0.033325	-0.036072	-0.026978	0.999806	-0.006664	-0.018439	0.001553	
28220	    0	7.821595	-13.037710	-9.854394	-1.870699	-4.157236	-0.139058	0.080133	-0.131336	-0.095666	0.999740	-0.009353	-0.020784	-0.000695	
28221	    0	12.395832	-20.504638	-10.597528	-2.225643	-3.300506	-0.462372	0.125183	-0.206482	-0.101624	0.999799	-0.011127	-0.016501	-0.002312	
28222	    0	17.114191	-27.438853	-3.499192	-0.937667	-1.602961	-0.523003	0.170690	-0.274991	-0.032334	0.999953	-0.004688	-0.008015	-0.002615	
28223	    0	22.153112	-28.587640	1.412810	2.665223	-0.170141	-0.698875	0.220520	-0.286804	0.010498	0.999905	0.013326	-0.000851	-0.003494	
28224	    0	22.688125	-28.348942	0.616899	4.957195	1.538262	-0.764553	0.225798	-0.284362	-0.002612	0.999656	0.024783	0.007690	-0.003822	
28225	    0	20.502076	-19.560660	5.328973	4.444725	1.396309	-0.726386	0.204651	-0.197449	0.047485	0.999722	0.022222	0.006981	-0.003632	
28226	    0	15.301350	-0.571467	3.976692	3.559883	0.774999	-0.329227	0.153155	-0.006666	0.039061	0.999832	0.017798	0.003875	-0.001646	
28227	    0	7.538873	16.288911	-0.528065	1.692228	0.977532	-0.389869	0.075684	0.162781	-0.004272	0.999949	0.008461	0.004888	-0.001949	
28228	    0	2.616368	24.083738	-1.701740	-0.334935	1.273174	-1.332493	0.027657	0.240627	-0.017593	0.999956	-0.001675	0.006366	-0.006662	
28229	    0	2.980848	22.772509	-1.349574	-2.030256	1.200338	-1.776951	0.031738	0.227295	-0.015991	0.999890	-0.010151	0.006001	-0.008884	
28230	    0	5.147631	12.773872	-0.684172	-2.710856	0.927398	-1.861472	0.052624	0.127142	-0.008810	0.999854	-0.013554	0.004637	-0.009307	
28231	    0	7.648010	6.604303	-0.799112	-1.973042	0.714331	-2.324772	0.077209	0.065063	-0.008911	0.999877	-0.009865	0.003572	-0.011623	
28232	    0	8.609728	5.965755	-1.256704	-1.055569	-0.239382	-2.896234	0.086964	0.058335	-0.012774	0.999880	-0.005278	-0.001197	-0.014481	
28233	    0	10.937860	0.983970	-5.190449	-1.071801	-2.129487	-2.858899	0.110046	0.007996	-0.050781	0.999826	-0.005359	-0.010647	-0.014294	
28234	    0	19.095679	-2.005717	-1.809101	-1.405263	-2.862220	-3.194889	0.190834	-0.023220	-0.015203	0.999744	-0.007026	-0.014310	-0.015973	
28235	    0	24.505109	8.998387	0.056830	-0.173008	-1.335230	-3.685997	0.246643	0.085449	0.002136	0.999807	-0.000865	-0.006676	-0.018429	
28236	    0	21.556245	23.122800	1.075918	1.068769	0.168623	-4.148038	0.220304	0.226630	0.011794	0.999770	0.005343	0.000843	-0.020739	
28237	    0	17.819341	23.938672	1.602215	2.469114	1.171418	-4.011166	0.183044	0.235535	0.017883	0.999705	0.012344	0.005857	-0.020054	
28238	    0	14.166269	13.660469	6.515072	2.328859	1.560139	-3.229769	0.144346	0.133526	0.065598	0.999771	0.011643	0.007800	-0.016148	
28239	    0	14.910903	2.480113	7.840525	1.057675	1.516033	-2.821484	0.150024	0.022278	0.077393	0.999857	0.005288	0.007580	-0.014107	
28240	    0	17.012966	-3.030312	2.868851	-0.698884	0.980230	-3.031293	0.169784	-0.032780	0.027967	0.999866	-0.003494	0.004901	-0.015156	
28241	    0	16.858041	-1.057616	-1.286808	-2.958154	0.738775	-3.155008	0.168335	-0.013428	-0.013306	0.999759	-0.014790	0.003694	-0.015774	
28242	    0	16.479810	-1.279778	-1.216492	-4.558169	0.674330	-2.866334	0.164548	-0.015438	-0.012388	0.999632	-0.022788	0.003371	-0.014330	
28243	    0	15.522116	-5.409020	0.042831	-4.779630	0.290906	-2.463829	0.154541	-0.055969	0.001526	0.999637	-0.023895	0.001454	-0.012318	
28244	    0	13.107118	-8.677952	-2.079272	-4.534625	-0.200865	-2.137981	0.130150	-0.088614	-0.018666	0.999685	-0.022671	-0.001004	-0.010689	
28245	    0	10.556391	-11.534683	-6.453218	-3.779881	-0.364521	-1.822797	0.104614	-0.117493	-0.062134	0.999778	-0.018898	-0.001822	-0.009113	
28246	    0	9.646650	-12.941113	-7.407621	-2.738498	-0.012398	-1.673770	0.095378	-0.131210	-0.072282	0.999870	-0.013692	-0.000062	-0.008368	
28247	    0	9.087026	-11.298902	-5.375031	-1.577030	0.412950	-1.611363	0.089844	-0.114136	-0.053040	0.999934	-0.007885	0.002065	-0.008057	
28248	    0	8.762228	-7.067959	-4.424836	-0.492293	0.674066	-1.550885	0.086921	-0.071465	-0.044367	0.999961	-0.002461	0.003370	-0.007754	
28249	    0	8.916613	-3.078578	-4.295150	0.588427	1.068896	-1.606778	0.088684	-0.031372	-0.043518	0.999949	0.002942	0.005344	-0.008034	
28250	    0	8.781377	-0.476198	-2.770251	1.429791	1.485105	-1.681759	0.087562	-0.005298	-0.028390	0.999911	0.007149	0.007425	-0.008409	
28251	    0	8.653497	0.986305	-1.435813	1.677763	1.701605	-1.641140	0.086487	0.009277	-0.015015	0.999894	0.008389	0.008508	-0.008205	
28252	    0	9.074090	1.012503	-1.359324	1.531843	1.843324	-1.539473	0.090686	0.009535	-0.014355	0.999898	0.007659	0.009216	-0.007697	
28253	    0	9.717691	1.090683	-2.230356	1.400039	1.858772	-1.548818	0.097046	0.010315	-0.023132	0.999902	0.007000	0.009294	-0.007744	
28254	    0	10.342216	1.505283	-3.532593	1.461838	1.630835	-1.682907	0.103253	0.014445	-0.036061	0.999904	0.007309	0.008154	-0.008414	
28255	    0	10.909903	1.884317	-5.015544	1.445814	1.280442	-1.871547	0.108948	0.018188	-0.050720	0.999909	0.007229	0.006402	-0.009357	
28256	    0	10.742418	1.763411	-5.574761	1.041628	0.850698	-1.963662	0.107354	0.016871	-0.056115	0.999928	0.005208	0.004253	-0.009818	
28257	    0	9.542893	0.962449	-5.499417	0.425727	0.421340	-1.869232	0.095398	0.008850	-0.055176	0.999951	0.002129	0.002107	-0.009346	
28258	    0	8.634105	1.148769	-3.592985	-0.484854	0.229648	-1.676390	0.086391	0.010676	-0.036056	0.999961	-0.002424	0.001148	-0.008382	
28259	    0	8.319917	1.765365	-0.614190	-1.597625	0.163463	-1.380183	0.083313	0.017029	-0.006348	0.999944	-0.007988	0.000817	-0.006901	
28260	    0	8.335214	1.198002	2.526497	-2.601328	0.024987	-1.068150	0.083419	0.011862	0.025100	0.999901	-0.013006	0.000125	-0.005341	
28261	    0	8.291231	-1.724759	4.358600	-3.052647	-0.092892	-0.790438	0.082825	-0.016907	0.043884	0.999875	-0.015263	-0.000464	-0.003952	
28262	    0	8.005825	-5.418808	4.061381	-2.613527	-0.154118	-0.582712	0.079869	-0.053884	0.041381	0.999909	-0.013067	-0.000771	-0.002913	
28263	    0	8.107301	-7.541172	2.931703	-1.944574	-0.101473	-0.332647	0.080933	-0.075256	0.030090	0.999950	-0.009723	-0.000507	-0.001663	
28264	    0	8.410244	-8.631685	1.127972	-1.012807	0.121499	0.121308	0.084162	-0.086207	0.011665	0.999987	-0.005064	0.000607	0.000607	
28265	    0	8.606864	-8.836420	0.330515	-0.170136	0.195504	0.525666	0.086304	-0.088135	0.003296	0.999995	-0.000851	0.000978	0.002628	
28266	    0	8.886404	-7.073581	0.130256	0.818639	0.099183	0.859838	0.089168	-0.070357	0.000970	0.999982	0.004093	0.000496	0.004299	
28267	    0	10.194573	-5.636981	-0.060677	1.655608	-0.063134	1.247428	0.102295	-0.055725	-0.001038	0.999946	0.008278	-0.000316	0.006237	
28268	    0	11.980037	-4.523159	-0.913691	1.957947	-0.236136	1.656960	0.120180	-0.044146	-0.009431	0.999917	0.009789	-0.001181	0.008285	
28269	    0	13.260589	-3.535814	-2.185471	1.775606	-0.373089	2.032534	0.132996	-0.033813	-0.021912	0.999907	0.008878	-0.001865	0.010162	
28270	    0	14.044816	-2.378452	-3.834496	1.364178	-0.520341	2.286600	0.140805	-0.021915	-0.038133	0.999907	0.006821	-0.002602	0.011433	
28271	    0	15.340189	-1.000540	-5.302523	1.043926	-0.675223	2.497182	0.153687	-0.007812	-0.052551	0.999903	0.005219	-0.003376	0.012486	
28272	    0	18.041531	-0.113764	-5.562893	0.912318	-0.856812	2.654743	0.180643	0.001511	-0.054852	0.999892	0.004561	-0.004284	0.013273	
28273	    0	20.962241	0.361995	-4.847461	0.639559	-0.984230	2.804673	0.209778	0.006714	-0.047424	0.999884	0.003198	-0.004921	0.014023	
28274	    0	22.268488	1.359229	-3.790099	0.269710	-0.965158	2.987032	0.222628	0.016968	-0.036805	0.999875	0.001348	-0.004826	0.014935	
28275	    0	21.057919	2.959926	-2.876326	-0.096898	-0.900118	3.149555	0.210205	0.032898	-0.027832	0.999866	-0.000484	-0.004500	0.015747	
28276	    0	18.082518	4.456641	-2.473543	-0.346010	-0.805132	3.333829	0.180147	0.047531	-0.024090	0.999851	-0.001730	-0.004025	0.016668	
28277	    0	15.255428	5.409169	-2.518946	-0.373670	-0.756114	3.495977	0.151672	0.056702	-0.024719	0.999838	-0.001868	-0.003780	0.017479	
28278	    0	13.401195	6.272042	-2.546932	-0.182734	-0.735514	3.545192	0.132965	0.065061	-0.025038	0.999835	-0.000914	-0.003677	0.017725	
28279	    0	12.084305	6.586590	-2.191721	0.149735	-0.840042	3.515054	0.119751	0.067993	-0.021362	0.999836	0.000749	-0.004200	0.017574	
28280	    0	10.837553	6.405070	-1.811542	0.558120	-0.965743	3.420633	0.107344	0.065942	-0.017413	0.999838	0.002790	-0.004828	0.017102	
28281	    0	9.683920	6.103916	-1.310236	1.024683	-1.072560	3.283869	0.095886	0.062683	-0.012268	0.999837	0.005123	-0.005363	0.016418	
28282	    0	8.866797	6.184890	-0.963817	1.494681	-1.122346	3.130705	0.087735	0.063294	-0.008675	0.999833	0.007473	-0.005611	0.015653	
28283	    0	8.457983	6.359593	-1.091970	1.927296	-1.122921	2.970294	0.083679	0.064941	-0.009827	0.999827	0.009636	-0.005614	0.014851	
28284	    0	8.273717	6.785838	-1.543261	2.258815	-1.035942	2.823615	0.081842	0.069183	-0.014231	0.999823	0.011293	-0.005179	0.014117	
28285	    0	7.920209	8.113744	-2.621719	2.352462	-0.891162	2.604055	0.078247	0.082458	-0.024902	0.999836	0.011762	-0.004456	0.013020	
28286	    0	7.470464	9.075614	-0.844232	2.882176	-0.724454	2.354763	0.073655	0.091734	-0.006857	0.999820	0.014410	-0.003622	0.011773	
28287	    0	5.882216	10.406423	-1.868232	2.927750	-0.628697	2.058524	0.057800	0.104919	-0.016968	0.999834	0.014638	-0.003143	0.010292	
28288	    0	4.373985	12.667883	-2.619279	2.645227	-0.521301	1.804240	0.042658	0.127398	-0.024399	0.999868	0.013226	-0.002606	0.009021	
28289	    0	3.094778	16.702494	-4.825771	1.668587	-0.310333	1.622047	0.029663	0.167664	-0.046814	0.999930	0.008343	-0.001552	0.008110	
28290	    0	2.946327	18.942811	-2.526518	0.553711	-0.006294	1.699089	0.027853	0.189738	-0.024739	0.999960	0.002769	-0.000031	0.008495	
28291	    0	2.397864	16.214720	0.309720	-0.591095	-0.060273	1.718926	0.022583	0.162354	0.002625	0.999958	-0.002955	-0.000301	0.008595	
28292	    0	2.097220	13.956401	-0.425912	-1.798671	-0.420580	1.439890	0.019978	0.139665	-0.005472	0.999931	-0.008993	-0.002103	0.007199	
28293	    0	0.897065	12.749351	-5.181686	-3.338041	-0.948194	0.972037	0.008606	0.126648	-0.053894	0.999837	-0.016689	-0.004741	0.004860	
28294	    0	-0.858630	10.912385	-6.350595	-3.804480	-1.560514	0.577396	-0.008392	0.107864	-0.065632	0.999784	-0.019021	-0.007802	0.002887	
28295	    0	-1.630475	6.778962	-2.369606	-2.011749	-1.969214	0.501268	-0.016235	0.067505	-0.024536	0.999897	-0.010058	-0.009846	0.002506	
28296	    0	2.728612	0.041079	4.261546	1.285776	-2.017263	0.620095	0.026854	0.000219	0.042890	0.999923	0.006429	-0.010086	0.003100	
28297	    0	8.562532	-4.904675	4.625387	2.639887	-1.834760	0.515007	0.085327	-0.049438	0.046387	0.999867	0.013199	-0.009173	0.002575	
28298	    0	11.973663	-8.525729	1.976128	2.127701	-1.219017	0.267417	0.119731	-0.085306	0.019584	0.999924	0.010638	-0.006095	0.001337	
28299	    0	12.112074	-14.500391	-0.403357	1.412404	-0.287631	0.122071	0.121216	-0.144897	-0.004883	0.999973	0.007062	-0.001438	0.000610	
28300	    0	13.908312	-19.629251	-2.408164	1.433770	-0.734719	-0.148012	0.139029	-0.196218	-0.024978	0.999967	0.007169	-0.003674	-0.000740	
28301	    0	20.095367	-24.185942	-1.961010	2.922364	0.901067	-0.290691	0.200500	-0.241821	-0.024048	0.999882	0.014611	0.004505	-0.001453	
28302	    0	21.217847	-16.800959	1.910451	2.165111	2.012899	-0.270853	0.212116	-0.168475	0.015147	0.999889	0.010825	0.010064	-0.001354	
28303	    0	16.839236	2.933219	3.221730	0.638013	1.186380	0.005341	0.168579	0.029236	0.031311	0.999977	0.003190	0.005932	0.000027	
28304	    0	8.941584	19.754819	0.043617	-0.281906	0.395775	0.176239	0.089242	0.197627	-0.000019	0.999996	-0.001410	0.001979	0.000881	
28305	    0	5.260409	24.537082	-3.565302	-1.262486	0.578313	-0.541692	0.053162	0.244995	-0.037354	0.999971	-0.006312	0.002892	-0.002708	
28306	    0	6.243716	16.521652	-4.714800	-2.652463	0.950278	-1.195191	0.063189	0.164193	-0.049629	0.999883	-0.013262	0.004751	-0.005976	
28307	    0	7.065674	4.921879	-4.133203	-2.720593	1.212374	-1.901344	0.070862	0.047974	-0.042419	0.999844	-0.013602	0.006062	-0.009506	
28308	    0	6.592225	4.917214	-3.013062	-1.064913	1.085704	-2.589514	0.066384	0.048152	-0.030748	0.999887	-0.005324	0.005428	-0.012947	
28309	    0	9.185015	11.649292	-0.784962	-0.105862	0.182350	-3.090028	0.093628	0.115051	-0.007996	0.999880	-0.000529	0.000912	-0.015450	
28310	    0	13.991850	8.919246	-2.147866	0.701938	-1.870437	-2.769223	0.141327	0.087314	-0.019853	0.999854	0.003510	-0.009352	-0.013845	
28311	    0	19.638750	7.812079	-7.933219	0.780736	-3.446455	-2.334769	0.198608	0.076111	-0.075623	0.999775	0.003903	-0.017231	-0.011673	
28312	    0	22.889981	16.070993	-9.922496	0.531806	-2.936952	-2.829560	0.232565	0.157694	-0.095406	0.999788	0.002659	-0.014684	-0.014147	
28313	    0	19.556702	25.598306	-7.200908	0.088697	-0.795031	-3.715739	0.200562	0.252319	-0.071106	0.999819	0.000443	-0.003975	-0.018578	
28314	    0	15.238534	22.799694	0.353988	0.110825	1.355270	-3.960327	0.156879	0.224918	0.002612	0.999781	0.000554	0.006776	-0.019800	
28315	    0	11.929345	8.510074	9.276638	1.027932	1.811328	-3.186228	0.121460	0.082703	0.092102	0.999819	0.005139	0.009056	-0.015930	
28316	    0	14.416272	-0.086935	6.602999	0.407995	0.999864	-2.547536	0.144463	-0.002842	0.065304	0.999904	0.002040	0.004999	-0.012737	
28317	    0	15.996050	-0.394921	0.812495	-1.127477	0.657679	-2.748977	0.159912	-0.006104	0.007629	0.999884	-0.005637	0.003288	-0.013744	
28318	    0	16.398067	1.933564	-0.328487	-2.273515	0.634234	-3.137027	0.164245	0.016718	-0.004005	0.999807	-0.011367	0.003171	-0.015684	
28319	    0	16.396525	-1.102286	-0.655291	-3.593587	0.476118	-3.013127	0.163757	-0.013611	-0.006714	0.999722	-0.017966	0.002380	-0.015064	
28320	    0	15.413458	-5.693712	0.372842	-4.176378	0.326381	-2.666557	0.153365	-0.058894	0.004694	0.999691	-0.020880	0.001632	-0.013331	
28321	    0	14.300434	-7.648126	1.087623	-4.104033	0.103769	-2.221881	0.142151	-0.077820	0.012390	0.999727	-0.020518	0.000519	-0.011108	
28322	    0	13.940277	-9.048732	-1.934724	-3.838454	-0.110063	-1.950224	0.138519	-0.092189	-0.017512	0.999767	-0.019191	-0.000550	-0.009750	
28323	    0	13.148488	-9.817721	-6.256190	-3.736194	0.048069	-1.836528	0.130554	-0.100525	-0.060730	0.999783	-0.018680	0.000240	-0.009182	
28324	    0	12.318536	-9.406341	-8.073453	-3.941653	0.498048	-1.726095	0.122160	-0.096691	-0.079151	0.999765	-0.019707	0.002490	-0.008630	
28325	    0	11.177257	-8.587827	-7.128291	-3.814979	0.922653	-1.530570	0.110779	-0.088074	-0.070129	0.999778	-0.019073	0.004613	-0.007652	
28326	    0	10.389243	-9.251808	-6.032318	-3.237338	1.202462	-1.359827	0.102897	-0.094187	-0.059428	0.999827	-0.016186	0.006012	-0.006799	
28327	    0	10.536003	-10.454995	-5.248997	-2.406979	1.491606	-1.255849	0.104309	-0.105835	-0.052002	0.999880	-0.012034	0.007458	-0.006279	
28328	    0	11.191819	-10.112825	-4.251807	-1.441233	1.785519	-1.178965	0.110937	-0.102092	-0.042778	0.999916	-0.007206	0.008927	-0.005895	
28329	    0	11.780902	-8.011570	-4.881798	-0.510989	1.827278	-1.178766	0.116882	-0.080933	-0.049683	0.999937	-0.002555	0.009136	-0.005894	
28330	    0	11.684420	-5.970648	-7.231674	0.214771	1.560237	-1.224920	0.115907	-0.060340	-0.073288	0.999949	0.001074	0.007801	-0.006124	
28331	    0	11.551941	-5.112642	-8.289258	0.875870	1.402498	-1.204702	0.114624	-0.051453	-0.083923	0.999948	0.004379	0.007012	-0.006023	
28332	    0	11.950764	-5.268239	-6.815463	0.964183	1.480130	-1.142904	0.118695	-0.053030	-0.069290	0.999944	0.004821	0.007401	-0.005714	
28333	    0	12.458975	-4.668863	-3.792562	0.814259	1.226824	-1.142137	0.124084	-0.047241	-0.038879	0.999956	0.004071	0.006134	-0.005711	
28334	    0	12.827370	-6.081090	-1.279332	0.724417	0.558095	-1.099787	0.127900	-0.061467	-0.013372	0.999974	0.003622	0.002790	-0.005499	
28335	    0	11.554190	-7.872575	-0.143023	0.541118	0.112153	-1.083381	0.115112	-0.079346	-0.001709	0.999981	0.002706	0.000561	-0.005417	
28336	    0	8.471100	-6.581935	1.066960	0.210381	-0.112915	-0.954060	0.084390	-0.066234	0.010648	0.999988	0.001052	-0.000565	-0.004770	
28337	    0	7.070590	-4.232536	2.827295	-0.687411	-0.240136	-0.543215	0.070557	-0.042419	0.028503	0.999990	-0.003437	-0.001201	-0.002716	
28338	    0	8.307584	-3.408120	3.532703	-1.371014	-0.338366	0.105668	0.083034	-0.033793	0.035700	0.999974	-0.006855	-0.001692	0.000528	
28339	    0	9.389028	-7.626126	3.435269	-1.254284	-0.436978	0.634771	0.094055	-0.075745	0.035034	0.999972	-0.006271	-0.002185	0.003174	
28340	    0	9.898723	-8.975507	3.907942	-0.794035	-0.194932	1.024254	0.099406	-0.089090	0.039531	0.999978	-0.003970	-0.000975	0.005121	
28341	    0	11.042854	-9.610408	2.933512	-0.126649	0.068093	1.350413	0.111084	-0.095337	0.029358	0.999976	-0.000633	0.000340	0.006752	
28342	    0	11.455359	-9.728981	2.772669	0.930419	0.170138	1.678874	0.115389	-0.096451	0.027179	0.999953	0.004652	0.000851	0.008394	
28343	    0	12.107976	-8.344357	1.501906	1.903024	0.318919	2.044745	0.121948	-0.082336	0.014038	0.999901	0.009515	0.001595	0.010223	
28344	    0	13.067577	-6.666309	1.991552	2.308192	0.276579	2.438470	0.131504	-0.065286	0.018975	0.999858	0.011540	0.001383	0.012192	
28345	    0	14.340341	-3.719218	1.431805	2.085223	0.038340	2.866514	0.143921	-0.035278	0.013916	0.999843	0.010426	0.000192	0.014332	
28346	    0	16.240802	-1.737127	-0.978320	1.404840	-0.242437	3.350824	0.162680	-0.014579	-0.009695	0.999834	0.007024	-0.001212	0.016753	
28347	    0	18.701018	-0.383503	-3.958213	0.560986	-0.494415	3.785940	0.187134	-0.000183	-0.039124	0.999813	0.002805	-0.002472	0.018929	
28348	    0	21.223422	1.704470	-6.845684	0.045970	-0.690891	4.082972	0.212062	0.021391	-0.067719	0.999785	0.000230	-0.003454	0.020413	
28349	    0	21.982854	3.792590	-8.832988	0.123607	-0.988662	4.378114	0.219360	0.042786	-0.087219	0.999747	0.000618	-0.004943	0.021889	
28350	    0	22.093693	4.920346	-10.299380	0.426337	-1.372862	4.799773	0.220367	0.054714	-0.101367	0.999685	0.002131	-0.006864	0.023996	
28351	    0	22.675899	5.332277	-10.830936	0.390102	-1.440611	5.283256	0.226013	0.059509	-0.106567	0.999622	0.001950	-0.007202	0.026413	
28352	    0	22.464679	5.604503	-9.221438	0.072108	-1.016567	5.675912	0.223400	0.062430	-0.091055	0.999584	0.000360	-0.005082	0.028376	
28353	    0	20.174188	6.400398	-6.127143	0.049789	-0.644777	5.849538	0.199951	0.069885	-0.060608	0.999567	0.000249	-0.003223	0.029243	
28354	    0	16.578918	6.534301	-4.286039	0.697232	-0.562936	5.669037	0.163965	0.070156	-0.042158	0.999588	0.003486	-0.002814	0.028341	
28355	    0	12.352170	6.763369	-4.031888	1.519962	-0.585819	5.180232	0.121826	0.071106	-0.039429	0.999631	0.007599	-0.002929	0.025898	
28356	    0	8.886171	8.421190	-4.030249	2.162785	-0.661349	4.560200	0.087035	0.086637	-0.039084	0.999676	0.010813	-0.003306	0.022799	
28357	    0	7.798863	11.533411	-4.498807	2.423508	-0.783610	3.931023	0.075867	0.117371	-0.043274	0.999725	0.012116	-0.003918	0.019653	
28358	    0	7.995173	14.702619	-4.912205	2.451138	-0.849219	3.517622	0.077545	0.148989	-0.046971	0.999761	0.012255	-0.004246	0.017587	
28359	    0	7.342395	16.146080	-4.814236	2.463899	-0.669909	3.267904	0.070923	0.163208	-0.045898	0.999784	0.012319	-0.003349	0.016338	
28360	    0	5.811082	16.074469	-4.923296	2.477233	-0.412014	3.021625	0.055766	0.162191	-0.047113	0.999806	0.012385	-0.002060	0.015107	
28361	    0	4.671173	17.145573	-4.666375	2.313359	-0.243200	2.780304	0.044373	0.172607	-0.044617	0.999835	0.011566	-0.001216	0.013901	
28362	    0	3.484471	19.095125	-3.523221	2.296177	-0.019074	2.516677	0.032438	0.191757	-0.033031	0.999854	0.011480	-0.000095	0.012583	
28363	    0	2.237872	22.097443	-1.676923	2.155584	0.189980	2.285098	0.019836	0.221375	-0.014404	0.999876	0.010777	0.000950	0.011425	
28364	    0	3.147205	21.389465	1.065825	1.896914	0.280388	1.835495	0.029525	0.214058	0.012646	0.999911	0.009484	0.001402	0.009177	
28365	    0	3.134178	20.109548	1.908039	1.084149	0.190928	1.202406	0.030151	0.201172	0.020142	0.999967	0.005421	0.000955	0.006012	
28366	    0	1.027575	21.321381	-0.475126	-0.286103	-0.249482	0.590707	0.009652	0.213236	-0.005044	0.999993	-0.001431	-0.001247	0.002954	
28367	    0	0.580183	20.611589	-1.134803	-1.086242	-0.563053	0.154878	0.005676	0.206055	-0.012451	0.999981	-0.005431	-0.002815	0.000774	
28368	    0	0.880418	17.900063	0.544435	-1.417940	-0.903903	-0.132181	0.008902	0.179028	0.004215	0.999964	-0.007090	-0.004519	-0.000661	
28369	    0	2.723005	11.925979	3.648921	-0.573548	-1.693749	-0.298313	0.027100	0.119324	0.036377	0.999958	-0.002868	-0.008469	-0.001492	
28370	    0	7.047507	2.237319	2.634919	0.424400	-2.807907	-0.667214	0.070169	0.022081	0.027383	0.999893	0.002122	-0.014039	-0.003336	
28371	    0	11.814661	-9.709862	-4.050898	0.240533	-3.780615	-1.229177	0.118286	-0.097778	-0.038391	0.999802	0.001203	-0.018902	-0.006145	
28372	    0	13.435487	-17.836155	-10.122133	-0.964619	-3.840546	-1.574826	0.134842	-0.179899	-0.097770	0.999772	-0.004823	-0.019201	-0.007874	
28373	    0	15.954021	-21.562792	-8.358785	-0.877213	-2.065332	-1.170380	0.159119	-0.216919	-0.080994	0.999920	-0.004386	-0.010326	-0.005852	
28374	    0	21.203746	-20.080705	2.692090	1.145563	0.601583	-0.480083	0.211632	-0.201463	0.025131	0.999976	0.005728	0.003008	-0.002400	
28375	    0	24.632695	-25.683738	8.878605	3.805070	1.839015	-0.683646	0.246216	-0.259277	0.081604	0.999770	0.019024	0.009194	-0.003418	
28376	    0	24.303201	-26.035790	5.254443	4.035484	1.014593	-0.607535	0.242482	-0.262068	0.046037	0.999779	0.020176	0.005073	-0.003037	
28377	    0	18.932610	-7.899961	5.544356	2.706998	0.694488	0.152593	0.189575	-0.079590	0.053711	0.999902	0.013535	0.003472	0.000763	
28378	    0	8.695145	6.685456	3.511203	1.901663	0.989933	-0.016785	0.087132	0.066512	0.035315	0.999942	0.009508	0.004950	-0.000084	
28379	    0	3.112391	12.797969	0.748136	0.393107	1.046760	-0.612645	0.031555	0.127869	0.007568	0.999979	0.001966	0.005234	-0.003063	
28380	    0	3.639830	14.613849	-2.350991	-1.597634	1.215582	-1.314767	0.037209	0.145700	-0.024899	0.999928	-0.007988	0.006078	-0.006574	
28381	    0	3.336036	14.559700	-1.596570	-2.697130	1.549038	-1.650323	0.034424	0.145081	-0.018188	0.999845	-0.013485	0.007745	-0.008251	
28382	    0	3.756967	12.871817	1.016127	-2.502180	1.377553	-1.821796	0.038802	0.128480	0.008288	0.999856	-0.012510	0.006887	-0.009109	
28383	    0	5.318493	9.829488	1.238263	-1.959884	0.938455	-2.333931	0.054382	0.097778	0.011169	0.999872	-0.009799	0.004692	-0.011669	
28384	    0	7.557828	10.308212	0.931087	-1.913170	0.314157	-2.949486	0.077102	0.102035	0.008211	0.999844	-0.009565	0.001571	-0.014747	
28385	    0	11.120641	11.049036	-0.241028	-2.151633	-0.514828	-3.338083	0.113037	0.108582	-0.003296	0.999799	-0.010757	-0.002574	-0.016689	
28386	    0	15.597030	4.570755	-4.467737	-2.627031	-1.786580	-3.316408	0.157087	0.042529	-0.043850	0.999736	-0.013134	-0.008932	-0.016581	
28387	    0	21.574512	-10.708295	-12.851727	-2.450833	-3.698186	-2.621750	0.216614	-0.111450	-0.123169	0.999667	-0.012253	-0.018489	-0.013107	
28388	    0	32.694844	-22.295524	-20.536811	-1.893411	-3.797313	-2.097516	0.328366	-0.228286	-0.196998	0.999720	-0.009466	-0.018985	-0.010487	
28389	    0	26.628899	-13.212526	-18.766431	-1.177821	-0.628680	-2.217164	0.265381	-0.136169	-0.186035	0.999916	-0.005889	-0.003143	-0.011086	
28390	    0	13.465033	8.375239	-3.142475	0.202761	2.171998	-2.518580	0.135340	0.082084	-0.032808	0.999861	0.001014	0.010859	-0.012592	
28391	    0	3.879893	21.358981	5.531700	0.966882	1.840298	-2.687965	0.042175	0.212769	0.055969	0.999855	0.004834	0.009201	-0.013439	
28392	    0	2.517016	12.484206	7.688754	1.413792	1.219806	-2.764067	0.027359	0.123927	0.077603	0.999861	0.007069	0.006099	-0.013820	
28393	    0	6.512874	3.743133	4.220987	1.347435	1.039379	-3.460145	0.065979	0.036011	0.042114	0.999814	0.006737	0.005197	-0.017300	
28394	    0	12.059754	7.852084	2.912341	0.328462	0.861402	-3.355577	0.122016	0.076434	0.028727	0.999848	0.001642	0.004307	-0.016777	
28395	    0	17.702141	9.327679	2.707019	-1.175746	0.528170	-3.139647	0.178528	0.090637	0.026062	0.999856	-0.005878	0.002641	-0.015697	
28396	    0	18.267510	4.222396	2.039639	-2.796554	0.454361	-2.886969	0.183307	0.039857	0.019412	0.999795	-0.013982	0.002272	-0.014434	
28397	    0	17.064950	-3.892692	0.756163	-3.543963	0.331144	-2.759785	0.170105	-0.041138	0.007996	0.999746	-0.017718	0.001656	-0.013798	
28398	    0	16.981108	-9.376074	-1.478713	-3.709171	0.152029	-2.770099	0.168478	-0.096354	-0.013144	0.999731	-0.018544	0.000760	-0.013849	
28399	    0	16.791106	-9.793073	-3.413436	-3.726351	0.164810	-2.883415	0.166443	-0.100952	-0.032410	0.999722	-0.018630	0.000824	-0.014416	
28400	    0	14.902042	-6.674083	-5.624187	-3.591099	0.201625	-2.953796	0.147947	-0.069928	-0.055155	0.999729	-0.017954	0.001008	-0.014768	
28401	    0	13.238811	-3.113556	-6.703420	-2.610942	0.440434	-2.826104	0.131775	-0.033875	-0.066895	0.999812	-0.013054	0.002202	-0.014130	
28402	    0	11.676600	-2.108369	-4.951851	-1.394324	0.802642	-2.513597	0.116286	-0.022894	-0.049830	0.999888	-0.006971	0.004013	-0.012568	
28403	    0	9.597320	-3.818370	-1.110839	-1.004626	0.791188	-2.101951	0.095520	-0.039246	-0.011292	0.999924	-0.005023	0.003956	-0.010509	
28404	    0	8.936827	-6.037783	0.430242	-1.291874	0.509273	-1.727140	0.088854	-0.061118	0.004469	0.999938	-0.006459	0.002546	-0.008636	
28405	    0	10.160977	-6.508407	-2.145392	-1.493101	0.546466	-1.453428	0.101074	-0.065979	-0.021240	0.999942	-0.007465	0.002732	-0.007267	
28406	    0	11.438227	-5.836186	-5.265395	-1.467161	0.766769	-1.357295	0.113779	-0.059522	-0.052657	0.999942	-0.007336	0.003834	-0.006786	
28407	    0	12.274180	-5.202929	-6.315660	-1.442748	0.947781	-1.404601	0.122070	-0.053345	-0.063354	0.999938	-0.007214	0.004739	-0.007023	
28408	    0	12.093572	-4.724640	-6.499702	-1.033994	1.053640	-1.557762	0.120217	-0.048522	-0.065383	0.999942	-0.005170	0.005268	-0.007789	
28409	    0	10.712056	-5.141845	-6.521790	-0.343900	0.908675	-1.684597	0.106384	-0.052429	-0.065613	0.999952	-0.001719	0.004543	-0.008423	
28410	    0	9.515126	-6.596536	-5.911729	0.288967	0.611314	-1.733614	0.094394	-0.066700	-0.059503	0.999956	0.001445	0.003057	-0.008668	
28411	    0	7.970871	-8.415066	-4.422449	0.600442	0.195506	-1.766994	0.078918	-0.084717	-0.044556	0.999955	0.003002	0.000978	-0.008835	
28412	    0	6.171062	-8.614945	-2.844065	0.749981	-0.152781	-1.739337	0.060981	-0.086575	-0.028718	0.999954	0.003750	-0.000764	-0.008697	
28413	    0	5.542375	-6.467188	-1.256212	0.587470	-0.208857	-1.556415	0.054932	-0.065063	-0.012695	0.999965	0.002937	-0.001044	-0.007782	
28414	    0	6.228894	-3.656401	1.283996	0.185205	-0.132180	-1.133734	0.062072	-0.036928	0.012847	0.999983	0.000926	-0.000661	-0.005669	
28415	    0	7.271381	-2.339207	2.212977	-0.011253	-0.067902	-0.632478	0.072632	-0.023621	0.022156	0.999994	-0.000056	-0.000340	-0.003162	
28416	    0	7.399341	-4.020292	1.108361	0.159836	-0.169563	-0.255013	0.073933	-0.040306	0.011114	0.999998	0.000799	-0.000848	-0.001275	
28417	    0	7.272710	-6.905651	0.383198	0.321198	-0.341606	-0.080109	0.072693	-0.069092	0.003845	0.999997	0.001606	-0.001708	-0.000401	
28418	    0	7.657168	-6.801634	-0.046702	0.377846	-0.324822	0.053215	0.076591	-0.067995	-0.000471	0.999996	0.001889	-0.001624	0.000266	
28419	    0	8.859289	-4.771754	-0.382886	0.583078	-0.276185	0.360871	0.088684	-0.047546	-0.003845	0.999992	0.002915	-0.001381	0.001804	
28420	    0	10.163474	-4.161340	0.348278	1.043518	-0.214388	0.765806	0.101789	-0.041242	0.003376	0.999978	0.005218	-0.001072	0.003829	
28421	    0	11.445853	-4.077096	0.960215	1.362819	-0.232700	1.177232	0.114685	-0.040161	0.009460	0.999958	0.006814	-0.001163	0.005886	
28422	    0	12.923927	-3.423036	1.805648	1.412228	-0.320441	1.594384	0.129478	-0.033326	0.018026	0.999942	0.007061	-0.001602	0.007972	
28423	    0	13.878957	-2.542906	2.267496	1.224545	-0.436220	1.925702	0.138977	-0.024231	0.022827	0.999932	0.006123	-0.002181	0.009628	
28424	    0	14.195042	-1.378316	2.196334	0.817128	-0.520528	2.233179	0.142035	-0.012288	0.022281	0.999926	0.004086	-0.002603	0.011166	
28425	    0	14.134625	0.300282	2.115655	0.297746	-0.541702	2.533794	0.141235	0.004761	0.021545	0.999914	0.001489	-0.002708	0.012669	
28426	    0	14.025444	1.665421	1.620165	-0.190932	-0.560208	2.852159	0.139952	0.018667	0.016577	0.999893	-0.000955	-0.002801	0.014260	
28427	    0	14.169001	2.298805	0.341139	-0.519584	-0.617054	3.125136	0.141296	0.025208	0.003784	0.999869	-0.002598	-0.003085	0.015625	
28428	    0	14.609586	2.959675	-1.565789	-0.485635	-0.669703	3.318758	0.145630	0.031979	-0.015245	0.999853	-0.002428	-0.003348	0.016593	
28429	    0	15.808507	3.013473	-3.159066	-0.201999	-0.782054	3.464691	0.157654	0.032837	-0.031006	0.999842	-0.001010	-0.003910	0.017323	
28430	    0	17.612010	2.811149	-4.559285	0.098043	-0.861027	3.606431	0.175769	0.031305	-0.044821	0.999827	0.000490	-0.004305	0.018031	
28431	    0	18.804962	3.139886	-5.229527	0.195515	-0.797321	3.753130	0.187622	0.034973	-0.051514	0.999815	0.000978	-0.003986	0.018764	
28432	    0	18.436726	4.131644	-5.119761	0.166904	-0.582160	3.866442	0.183670	0.044914	-0.050626	0.999808	0.000834	-0.002911	0.019331	
28433	    0	16.665703	5.577600	-4.550337	0.367761	-0.351548	3.957629	0.165588	0.059143	-0.045105	0.999801	0.001839	-0.001758	0.019787	
28434	    0	14.491720	6.852590	-4.075563	0.848066	-0.182355	3.972518	0.143553	0.071558	-0.040325	0.999793	0.004240	-0.000912	0.019861	
28435	    0	12.033601	7.786563	-4.092906	1.378156	-0.163280	3.853877	0.118835	0.080444	-0.040283	0.999790	0.006890	-0.000816	0.019268	
28436	    0	9.657608	9.179633	-5.049420	1.587783	-0.253504	3.663498	0.094932	0.093942	-0.049633	0.999800	0.007938	-0.001267	0.018316	
28437	    0	7.816297	10.476441	-4.485230	1.773178	-0.392747	3.347981	0.076477	0.106445	-0.043762	0.999818	0.008865	-0.001964	0.016739	
28438	    0	6.120536	12.283897	-5.348747	1.532244	-0.533129	2.914182	0.059544	0.124119	-0.052380	0.999861	0.007661	-0.002666	0.014570	
28439	    0	5.023683	14.076804	-5.740714	1.122514	-0.634788	2.592559	0.048584	0.141724	-0.056458	0.999895	0.005612	-0.003174	0.012962	
28440	    0	2.829690	14.878650	-6.658495	1.161995	-0.672744	2.468763	0.026676	0.149506	-0.065626	0.999901	0.005810	-0.003364	0.012343	
28441	    0	3.598328	12.523475	-5.931923	1.314779	-0.812558	2.373584	0.034729	0.126038	-0.058350	0.999899	0.006574	-0.004063	0.011868	
28442	    0	5.186176	12.954036	-5.343558	0.582136	-0.826663	2.083253	0.050727	0.130227	-0.052846	0.999932	0.002911	-0.004133	0.010416	
28443	    0	6.375890	14.121679	-1.021008	0.502975	-0.474555	1.725031	0.062561	0.141785	-0.009705	0.999956	0.002515	-0.002373	0.008625	
28444	    0	4.889344	15.155768	1.237494	0.500874	-0.215342	1.351368	0.047854	0.151852	0.012807	0.999973	0.002504	-0.001077	0.006757	
28445	    0	2.701244	15.200200	1.453841	0.538067	-0.507358	1.039894	0.026184	0.152100	0.015015	0.999979	0.002690	-0.002537	0.005199	
28446	    0	1.145244	12.136343	-0.120807	-0.098611	-1.311697	0.820168	0.010962	0.121408	-0.001195	0.999969	-0.000493	-0.006558	0.004101	
28447	    0	1.973336	7.571051	-2.106510	-0.826853	-2.016492	0.613416	0.019714	0.075684	-0.021179	0.999935	-0.004134	-0.010082	0.003067	
28448	    0	4.260527	0.426422	-2.108042	-0.560011	-2.266174	0.426493	0.042831	0.004297	-0.020608	0.999929	-0.002800	-0.011331	0.002132	
28449	    0	6.760630	-4.960523	-0.911036	0.549516	-1.892121	0.241093	0.067749	-0.049500	-0.008606	0.999950	0.002748	-0.009460	0.001205	
28450	    0	8.652391	-6.062417	0.033361	1.348515	-1.238650	0.279812	0.086606	-0.060506	0.000462	0.999957	0.006742	-0.006193	0.001399	
28451	    0	12.915597	-8.944257	5.135249	1.564043	-0.199702	0.373844	0.129272	-0.089600	0.050781	0.999967	0.007820	-0.000998	0.001869	
28452	    0	16.777550	-16.508034	9.391493	2.370893	0.465977	0.251013	0.168199	-0.165964	0.091559	0.999926	0.011854	0.002330	0.001255	
28453	    0	19.274540	-23.613053	6.185965	2.902521	0.649286	0.305187	0.193298	-0.236694	0.057800	0.999887	0.014512	0.003246	0.001526	
28454	    0	21.273337	-24.222202	4.906087	2.196955	1.715907	0.134091	0.213291	-0.242585	0.044569	0.999902	0.010984	0.008579	0.000670	
28455	    0	18.772510	-14.150630	6.416461	1.293209	1.768721	-0.321204	0.188049	-0.142212	0.061584	0.999938	0.006466	0.008843	-0.001606	
28456	    0	13.936487	-0.493362	4.026034	0.731853	0.577547	-0.284959	0.139473	-0.005279	0.039839	0.999988	0.003659	0.002888	-0.001425	
28457	    0	8.876713	9.794511	-2.102329	-0.466157	-0.299645	-0.264740	0.088928	0.097778	-0.021118	0.999995	-0.002331	-0.001498	-0.001324	
28458	    0	5.541418	13.329162	-5.286496	-1.600286	0.021363	-0.714883	0.055883	0.132664	-0.053934	0.999961	-0.008001	0.000107	-0.003574	
28459	    0	5.696534	12.316699	-4.918102	-2.140863	0.578514	-1.100950	0.057495	0.122314	-0.050659	0.999923	-0.010704	0.002892	-0.005505	
28460	    0	7.375873	7.993188	-4.281566	-2.403534	0.742366	-1.447347	0.074170	0.078872	-0.044043	0.999894	-0.012017	0.003712	-0.007236	
28461	    0	8.859913	4.844843	-3.349271	-1.939262	0.643178	-1.838742	0.088928	0.047302	-0.034241	0.999905	-0.009696	0.003216	-0.009193	
28462	    0	9.636812	5.313953	-1.244430	-1.003861	0.042153	-2.141812	0.096927	0.052040	-0.012728	0.999929	-0.005019	0.000211	-0.010709	
28463	    0	12.190468	4.852697	-1.930575	-0.314340	-1.250302	-2.253023	0.122559	0.047119	-0.018616	0.999915	-0.001572	-0.006251	-0.011265	
