// Start Time: Unknown
// Update Rate: 100.0Hz
// Filter Profile: human (34.3)
// Firmware Version: 2.1.4
PacketCounter	SampleTimeFine	Acc_X	Acc_Y	Acc_Z	Gyr_X	Gyr_Y	Gyr_Z	VelInc_X	VelInc_Y	VelInc_Z	OriInc_q0	OriInc_q1	OriInc_q2	OriInc_q3	
40067	    0	9.066313	-38.221782	5.024563	-3.437063	-0.992645	-1.404658	0.087708	-0.381897	0.057251	0.999815	-0.017184	-0.004963	-0.007023	
40068	    0	6.808840	-45.468350	4.490140	-3.097676	-0.804366	-0.861780	0.065930	-0.454200	0.052207	0.999863	-0.015488	-0.004022	-0.004309	
40069	    0	3.796775	-45.861422	3.502406	-2.269033	-0.314910	-0.401315	0.036987	-0.458252	0.040283	0.999932	-0.011345	-0.001575	-0.002007	
40070	    0	2.420355	-40.707453	4.465523	-0.501061	0.324822	-0.283242	0.023701	-0.406995	0.045636	0.999994	-0.002505	0.001624	-0.001416	
40071	    0	1.273771	-24.456166	7.455016	0.563054	1.117906	-0.672155	0.012329	-0.244812	0.073792	0.999974	0.002815	0.005589	-0.003361	
40072	    0	-2.250069	-8.104861	8.984524	0.522239	0.992788	-1.372546	-0.022612	-0.081128	0.089746	0.999960	0.002611	0.004964	-0.006863	
40073	    0	2.888593	1.435270	8.365658	-0.006676	0.679783	-0.922399	0.029236	0.014221	0.083557	0.999983	-0.000033	0.003399	-0.004612	
40074	    0	12.411138	3.351779	5.000551	-0.716402	0.434495	0.263024	0.124175	0.033859	0.049615	0.999990	-0.003582	0.002172	0.001315	
40075	    0	16.706051	0.424636	5.071815	-1.337450	0.322155	1.087966	0.167114	0.005493	0.050415	0.999961	-0.006687	0.001611	0.005440	
40076	    0	12.983188	-0.313074	5.709478	-2.056553	0.104334	1.225692	0.129875	-0.001748	0.057050	0.999928	-0.010283	0.000522	0.006128	
40077	    0	9.765659	-2.229012	4.514996	-2.833669	-0.034906	1.207781	0.097778	-0.021057	0.045471	0.999881	-0.014168	-0.000175	0.006039	
40078	    0	6.621360	-2.645811	1.947893	-3.297022	-0.152024	1.202645	0.066355	-0.025733	0.019958	0.999846	-0.016484	-0.000760	0.006013	
40079	    0	4.706999	-0.108403	-4.132590	-3.020423	-0.197610	1.289426	0.047119	-0.001404	-0.041260	0.999865	-0.015101	-0.000988	0.006447	
40080	    0	10.812509	0.051080	-9.107480	-1.599343	-0.074770	1.431874	0.108155	0.000557	-0.091039	0.999942	-0.007997	-0.000374	0.007159	
40081	    0	26.339830	-2.352507	-10.801270	0.818073	0.039673	1.583883	0.263550	-0.020996	-0.108154	0.999960	0.004090	0.000198	0.007919	
40082	    0	44.714282	-6.014967	-10.769865	2.741409	-0.720259	2.579656	0.448242	-0.052904	-0.106844	0.999816	0.013706	-0.003601	0.012897	
40083	    0	46.824607	-7.091636	-16.352310	2.748388	-1.023778	3.984476	0.470337	-0.059326	-0.161987	0.999694	0.013741	-0.005118	0.019920	
40084	    0	32.136369	-1.229771	-13.499204	2.075031	0.089083	4.561139	0.321451	-0.003565	-0.135202	0.999685	0.010374	0.000445	0.022803	
40085	    0	23.080282	5.028833	-8.666261	2.517225	0.284800	4.579685	0.229431	0.056641	-0.086304	0.999658	0.012585	0.001424	0.022896	
40086	    0	24.903649	10.590582	-9.156217	2.929824	0.006676	4.266261	0.246680	0.112511	-0.089954	0.999664	0.014647	0.000033	0.021329	
40087	    0	30.572431	21.009569	-14.816804	2.496032	-0.220513	4.391947	0.301147	0.218567	-0.145142	0.999680	0.012479	-0.001102	0.021957	
40088	    0	30.165640	28.243630	-17.104329	1.905085	0.476128	4.829381	0.294291	0.291219	-0.169003	0.999660	0.009524	0.002380	0.024144	
40089	    0	22.825849	27.687267	-12.444932	1.024178	1.292575	5.106967	0.220276	0.283203	-0.124451	0.999640	0.005120	0.006462	0.025532	
40090	    0	15.325633	25.751234	-7.864526	0.190951	1.633862	5.410534	0.145568	0.261596	-0.079607	0.999599	0.000955	0.008168	0.027049	
40091	    0	9.806855	23.087005	-4.662297	-0.366263	1.586566	5.594663	0.091187	0.233398	-0.047791	0.999576	-0.001831	0.007932	0.027969	
40092	    0	5.733531	20.995839	-2.313677	-0.362634	1.400558	5.403269	0.051472	0.211359	-0.023893	0.999608	-0.001813	0.007002	0.027013	
40093	    0	2.513705	18.533230	-1.843954	-0.111973	1.206330	4.799379	0.020569	0.185852	-0.018677	0.999693	-0.000560	0.006031	0.023994	
40094	    0	0.805998	16.336684	-3.212799	-0.142488	1.172522	3.735018	0.004819	0.163454	-0.032279	0.999807	-0.000712	0.005862	0.018674	
40095	    0	0.035773	17.953568	-5.515598	-0.713946	1.522881	2.376640	-0.002197	0.179321	-0.055786	0.999893	-0.003570	0.007614	0.011883	
40096	    0	-2.755492	23.319480	-4.759178	-1.208725	2.010027	1.409765	-0.029682	0.232698	-0.048708	0.999906	-0.006043	0.010050	0.007049	
40097	    0	-6.885474	24.174517	-0.148566	-0.194554	1.952599	1.349672	-0.070496	0.241272	-0.001038	0.999928	-0.000973	0.009763	0.006748	
40098	    0	-10.670422	11.780000	4.886795	1.858013	1.225896	1.849811	-0.107478	0.116343	0.050611	0.999895	0.009290	0.006129	0.009249	
40099	    0	-9.414205	0.153944	9.671671	2.730120	0.180062	2.021124	-0.094055	-0.000732	0.096802	0.999855	0.013650	0.000900	0.010105	
40100	    0	-6.748098	-1.537360	4.361869	2.212616	-0.675420	2.128116	-0.067455	-0.016571	0.043212	0.999876	0.011063	-0.003377	0.010640	
40101	    0	0.423267	-3.180945	5.601127	3.363995	-0.699465	1.446617	0.004272	-0.032715	0.055481	0.999825	0.016819	-0.003497	0.007233	
40102	    0	10.567627	-6.515380	-0.722164	2.410594	-1.644193	0.292407	0.105830	-0.064913	-0.007135	0.999892	0.012053	-0.008221	0.001462	
40103	    0	12.447376	0.179245	0.659539	0.800345	-2.339044	-0.576035	0.124390	0.001404	0.008057	0.999919	0.004002	-0.011695	-0.002880	
40104	    0	4.251579	-6.300634	9.555743	4.123273	-1.797065	0.173202	0.041718	-0.064927	0.094609	0.999746	0.020615	-0.008985	0.000866	
40105	    0	1.545734	-9.443593	2.545005	4.239427	0.061040	1.240640	0.016052	-0.094849	0.023438	0.999756	0.021195	0.000305	0.006203	
40106	    0	-1.120178	-9.247811	-8.823112	1.081488	0.371940	1.823270	-0.010526	-0.092097	-0.088710	0.999942	0.005407	0.001860	0.009116	
40107	    0	4.576439	-8.744254	-5.196364	-0.606359	2.135515	0.601972	0.045471	-0.087463	-0.052185	0.999933	-0.003032	0.010677	0.003010	
40108	    0	6.436208	-7.173702	5.523374	-1.413990	3.086631	-0.923586	0.064878	-0.071648	0.054742	0.999845	-0.007070	0.015432	-0.004618	
40109	    0	3.865356	-1.575205	5.216921	-2.639166	1.915284	-1.937982	0.039001	-0.015442	0.052002	0.999820	-0.013195	0.009576	-0.009689	
40110	    0	-0.184384	5.926827	-1.451034	-1.493509	1.497706	-2.105600	-0.001331	0.059174	-0.014941	0.999888	-0.007467	0.007488	-0.010528	
40111	    0	-3.049988	6.059020	-3.334465	0.123029	2.295010	-1.993638	-0.030273	0.060913	-0.032959	0.999884	0.000615	0.011475	-0.009968	
40112	    0	3.437831	3.669999	6.946257	-1.579530	1.184886	-2.099301	0.035174	0.036880	0.068965	0.999896	-0.007897	0.005924	-0.010496	
40113	    0	49.370120	-20.168185	-6.673666	-0.961893	-1.766999	0.428017	0.494690	-0.200928	-0.061401	0.999947	-0.004809	-0.008835	0.002140	
40114	    0	79.404165	-70.936337	-24.105281	2.616332	-3.064977	1.817088	0.804087	-0.698961	-0.237970	0.999755	0.013081	-0.015324	0.009085	
40115	    0	16.991769	-22.464670	-13.670395	0.553144	-1.795810	-1.406893	0.169556	-0.225464	-0.135803	0.999930	0.002766	-0.008979	-0.007034	
40116	    0	-12.193439	38.262627	10.073977	-0.348683	-1.431547	-3.395656	-0.116127	0.384805	0.099225	0.999828	-0.001743	-0.007157	-0.016977	
40117	    0	-34.027745	85.461770	-13.937397	-0.179864	-0.032044	-1.379406	-0.334351	0.856812	-0.140198	0.999975	-0.000899	-0.000160	-0.006897	
40118	    0	-2.313733	69.472729	-6.639120	-1.219601	-0.930437	-2.433289	-0.014364	0.694515	-0.070707	0.999896	-0.006098	-0.004652	-0.012166	
40119	    0	19.940755	21.385962	-12.714859	-4.914096	-0.874274	-3.532960	0.203674	0.207092	-0.131409	0.999532	-0.024567	-0.004371	-0.017662	
40120	    0	23.605805	2.564779	-1.927238	-5.384535	0.062959	-5.876571	0.236659	0.018168	-0.019903	0.999206	-0.026916	0.000315	-0.029375	
40121	    0	30.999781	-2.443135	4.319712	-1.631877	0.258659	-4.236968	0.309448	-0.030640	0.043030	0.999741	-0.008159	0.001293	-0.021183	
40122	    0	24.879549	-14.898462	-9.547362	0.162127	-0.718699	-1.698518	0.247860	-0.151015	-0.094704	0.999957	0.000811	-0.003593	-0.008492	
40123	    0	22.070432	-0.752959	-10.272087	1.055370	-0.925475	-2.401048	0.221069	-0.009644	-0.101746	0.999903	0.005277	-0.004627	-0.012005	
40124	    0	16.712685	2.375812	-9.824007	2.957636	-1.300558	-3.635383	0.168172	0.022146	-0.096813	0.999703	0.014787	-0.006502	-0.018175	
40125	    0	15.805925	-2.587860	-7.909001	3.944262	-1.744167	-4.429569	0.158142	-0.027832	-0.078247	0.999522	0.019718	-0.008719	-0.022144	
40126	    0	25.900915	-0.076710	-9.896399	3.397832	-1.713796	-4.268274	0.259773	-0.004649	-0.096797	0.999591	0.016987	-0.008568	-0.021338	
40127	    0	30.846836	0.601792	-5.630140	1.886147	-0.952802	-3.999670	0.308777	0.000366	-0.054810	0.999743	0.009430	-0.004764	-0.019997	
40128	    0	19.602642	-1.612213	3.669399	0.942885	-0.844266	-4.401401	0.195449	-0.020603	0.037430	0.999738	0.004714	-0.004221	-0.022005	
40129	    0	10.926802	-4.306082	7.601080	0.548606	-1.540332	-4.518562	0.107666	-0.045715	0.076721	0.999711	0.002743	-0.007701	-0.022591	
40130	    0	12.661881	-4.756050	5.918249	0.154510	-1.518392	-4.489175	0.125054	-0.050426	0.060098	0.999719	0.000772	-0.007591	-0.022444	
40131	    0	14.606825	-2.811695	4.740282	-1.092447	-1.229980	-4.586483	0.145081	-0.031189	0.048462	0.999702	-0.005462	-0.006149	-0.022930	
40132	    0	14.064385	-3.220436	2.488543	-2.086849	-1.106182	-4.298641	0.139771	-0.034947	0.026015	0.999699	-0.010433	-0.005530	-0.021491	
40133	    0	12.278088	-11.239479	1.392668	-2.605653	-0.860476	-3.496839	0.120728	-0.114319	0.015930	0.999753	-0.013027	-0.004302	-0.017483	
40134	    0	10.543569	-21.683080	0.478127	-2.514603	-0.837565	-2.609403	0.102567	-0.218095	0.007952	0.999826	-0.012572	-0.004188	-0.013046	
40135	    0	10.080275	-35.123464	3.499007	-2.381994	-0.882566	-1.833418	0.097412	-0.351685	0.039612	0.999877	-0.011909	-0.004413	-0.009167	
40136	    0	9.276363	-45.242372	6.885234	-2.303388	-0.790240	-1.343198	0.089439	-0.452196	0.074419	0.999903	-0.011517	-0.003951	-0.006716	
40137	    0	5.018316	-49.909075	7.041145	-1.445787	-0.572021	-0.630958	0.048401	-0.498718	0.074158	0.999965	-0.007229	-0.002860	-0.003155	
40138	    0	3.184162	-41.916509	7.976465	0.081635	0.029373	-0.141335	0.031557	-0.419220	0.079589	0.999999	0.000408	0.000147	-0.000707	
40139	    0	1.533854	-24.615412	9.235106	1.689173	0.753986	-0.342565	0.015259	-0.246948	0.090210	0.999955	0.008446	0.003770	-0.001713	
40140	    0	-3.806844	-9.287346	10.005510	1.870958	0.778215	-0.983831	-0.038140	-0.093617	0.099330	0.999936	0.009355	0.003891	-0.004919	
40141	    0	-0.950447	1.243728	9.841390	1.037798	0.735481	-0.793464	-0.009094	0.011963	0.098511	0.999971	0.005189	0.003677	-0.003967	
40142	    0	7.251057	4.873563	6.378048	0.173569	0.680162	0.120545	0.072698	0.048724	0.063576	0.999993	0.000868	0.003401	0.000603	
40143	    0	14.384357	3.496366	6.736941	-0.926979	0.685316	0.854500	0.143921	0.035889	0.066711	0.999974	-0.004635	0.003427	0.004272	
40144	    0	15.818043	3.061783	7.499627	-2.238335	0.469221	1.184687	0.158167	0.032389	0.074269	0.999917	-0.011191	0.002346	0.005923	
40145	    0	13.695749	0.554367	5.005973	-3.463754	0.202191	1.338273	0.136963	0.007324	0.049805	0.999826	-0.017318	0.001011	0.006691	
40146	    0	9.447803	-0.136896	-0.607429	-4.139845	-0.140964	1.316174	0.094489	-0.000872	-0.005986	0.999763	-0.020698	-0.000705	0.006580	
40147	    0	7.471324	1.178371	-7.407444	-3.761540	-0.339340	1.270378	0.074768	0.010864	-0.074158	0.999801	-0.018806	-0.001697	0.006351	
40148	    0	14.246969	-0.507725	-11.686034	-1.913307	-0.246435	1.402697	0.142650	-0.005194	-0.116635	0.999928	-0.009566	-0.001232	0.007013	
40149	    0	30.936017	-5.658920	-12.192088	0.874535	-0.096132	1.908147	0.309937	-0.053101	-0.122009	0.999945	0.004373	-0.000481	0.009541	
40150	    0	47.177525	-12.068177	-13.279727	2.392170	-0.746778	3.190450	0.474098	-0.111546	-0.132401	0.999794	0.011960	-0.003734	0.015951	
40151	    0	42.135521	-11.262340	-17.321883	2.060129	-0.485084	4.240051	0.424011	-0.101868	-0.173279	0.999719	0.010300	-0.002425	0.021198	
40152	    0	27.319125	-2.867782	-11.949466	2.315191	0.299867	4.429899	0.273537	-0.021233	-0.120179	0.999686	0.011575	0.001499	0.022147	
40153	    0	21.391087	3.895135	-10.631532	2.860769	0.298343	4.291249	0.212830	0.045044	-0.106018	0.999666	0.014302	0.001492	0.021454	
40154	    0	25.391885	13.407109	-13.155607	2.478082	0.100909	4.199063	0.250941	0.140978	-0.129965	0.999702	0.012389	0.000504	0.020993	
40155	    0	30.860775	25.799980	-18.649259	1.832197	-0.035862	4.616258	0.302551	0.266724	-0.184021	0.999691	0.009160	-0.000179	0.023079	
40156	    0	27.915630	29.208690	-18.671585	1.313368	0.622252	5.175069	0.270876	0.300389	-0.185613	0.999639	0.006566	0.003111	0.025872	
40157	    0	20.421543	26.242477	-12.919215	0.484530	1.159248	5.480916	0.196167	0.268188	-0.129700	0.999604	0.002422	0.005795	0.027401	
40158	    0	14.174578	23.858027	-8.632807	-0.299498	1.080480	5.818455	0.134259	0.242429	-0.087428	0.999560	-0.001497	0.005402	0.029088	
40159	    0	9.393056	20.802837	-6.030383	-0.820089	0.802730	5.819792	0.087585	0.210388	-0.061523	0.999559	-0.004100	0.004013	0.029095	
40160	    0	5.891854	18.191439	-4.306141	-0.766656	0.624541	5.293914	0.053944	0.183219	-0.043936	0.999637	-0.003833	0.003122	0.026466	
40161	    0	3.013992	14.854268	-2.973614	-0.334005	0.756900	4.422370	0.026733	0.149109	-0.030090	0.999746	-0.001670	0.003784	0.022110	
40162	    0	0.859683	12.951317	-2.379830	0.004387	1.066070	3.280993	0.006344	0.129630	-0.023833	0.999851	0.000022	0.005330	0.016404	
40163	    0	-0.272174	14.836165	-3.374849	-0.046350	1.569408	1.980644	-0.004456	0.148315	-0.033752	0.999920	-0.000232	0.007847	0.009903	
40164	    0	-2.147838	20.974959	-3.133192	-0.143817	2.147534	0.969909	-0.022831	0.209619	-0.031242	0.999929	-0.000719	0.010737	0.004849	
40165	    0	-5.844687	26.047581	1.449656	0.961331	2.270001	0.907161	-0.059448	0.260132	0.016418	0.999913	0.004807	0.011350	0.004536	
40166	    0	-8.761569	17.810852	6.540990	2.453724	1.536248	1.579356	-0.088497	0.176586	0.068260	0.999864	0.012268	0.007681	0.007896	
40167	    0	-7.491849	6.114983	11.706470	2.698832	0.297560	1.925748	-0.075317	0.058838	0.117981	0.999861	0.013494	0.001488	0.009628	
40168	    0	-5.366332	4.667670	5.983610	1.380957	-0.645273	2.010017	-0.054319	0.045719	0.059979	0.999920	0.006905	-0.003226	0.010050	
40169	    0	-1.190575	2.828276	7.623628	2.032533	-0.665876	1.660970	-0.012390	0.027405	0.076477	0.999907	0.010162	-0.003329	0.008305	
40170	    0	8.073493	-6.363901	2.410537	1.391445	-1.884316	0.658624	0.080715	-0.063542	0.024424	0.999926	0.006957	-0.009421	0.003293	
40171	    0	8.566230	-3.145168	-0.625432	-1.284657	-3.012984	-0.305190	0.085693	-0.031616	-0.004761	0.999865	-0.006423	-0.015064	-0.001526	
40172	    0	-0.142551	-8.235816	8.532634	1.540869	-3.875443	0.357654	-0.002922	-0.083016	0.084641	0.999781	0.007704	-0.019376	0.001788	
40173	    0	0.878168	-16.554508	-7.963820	2.003569	-2.261263	1.271114	0.010742	-0.164673	-0.081177	0.999866	0.010017	-0.011306	0.006355	
40174	    0	4.561700	-20.432184	-13.266735	0.452999	-0.506406	1.327527	0.047307	-0.203711	-0.133011	0.999971	0.002265	-0.002532	0.006638	
40175	    0	7.898089	-10.120937	-0.558018	1.005007	2.201135	0.259406	0.079041	-0.101074	-0.006958	0.999926	0.005025	0.011005	0.001297	
40176	    0	6.912338	-3.451025	13.596605	0.644892	2.421254	-0.426304	0.070687	-0.035096	0.135004	0.999919	0.003224	0.012106	-0.002131	
40177	    0	4.550663	-0.230620	8.693629	-0.801097	0.937093	-1.309985	0.045898	-0.002258	0.086731	0.999959	-0.004005	0.004685	-0.006550	
40178	    0	-1.459664	8.324430	0.844564	-1.811846	0.815798	-1.833590	-0.013800	0.083446	0.007748	0.999908	-0.009059	0.004079	-0.009168	
40179	    0	-4.401896	11.439866	-4.565951	-0.532356	1.704454	-1.872306	-0.043335	0.114685	-0.045593	0.999916	-0.002662	0.008522	-0.009361	
40180	    0	-2.349031	8.609029	5.073278	-1.773922	1.719941	-2.402234	-0.022017	0.086807	0.050159	0.999851	-0.008869	0.008599	-0.012011	
40181	    0	30.222556	-7.567142	3.332822	-3.722633	-1.325125	-0.770621	0.301697	-0.076172	0.036743	0.999797	-0.018612	-0.006625	-0.003853	
40182	    0	81.496661	-62.123004	-21.094667	0.895745	-2.601398	2.609600	0.825646	-0.609582	-0.203001	0.999820	0.004478	-0.013006	0.013047	
40183	    0	34.131886	-48.032254	-8.050921	0.020790	-1.712057	-0.233462	0.341431	-0.480713	-0.077637	0.999962	0.000104	-0.008560	-0.001167	
40184	    0	-1.819543	21.189628	9.365225	-1.590615	-0.711476	-2.934598	-0.015406	0.212872	0.091904	0.999854	-0.007953	-0.003557	-0.014672	
40185	    0	-25.278368	74.931379	-4.667822	0.153355	-0.776505	-2.560501	-0.242981	0.752502	-0.047058	0.999909	0.000767	-0.003882	-0.012802	
40186	    0	-13.811092	69.238427	-7.300674	-0.868443	-0.255784	-2.602469	-0.128993	0.693776	-0.076186	0.999905	-0.004342	-0.001279	-0.013012	
40187	    0	14.221381	32.783732	-6.962175	-1.761772	-1.136682	-3.913438	0.148987	0.324341	-0.071655	0.999753	-0.008808	-0.005683	-0.019566	
40188	    0	21.546871	11.640711	-3.797557	-4.236826	-0.356360	-5.196785	0.218451	0.109923	-0.039963	0.999436	-0.021180	-0.001781	-0.025979	
40189	    0	27.334642	6.246065	-1.259069	-2.139500	-0.200483	-4.456021	0.274658	0.056213	-0.012939	0.999694	-0.010696	-0.001002	-0.022278	
40190	    0	25.135879	-3.619509	-9.552813	-0.237469	-0.596057	-1.912149	0.251280	-0.038711	-0.094734	0.999949	-0.001187	-0.002980	-0.009561	
40191	    0	21.669749	0.177236	-14.935187	0.106242	-0.954466	-2.491834	0.217407	-0.000854	-0.148315	0.999910	0.000531	-0.004772	-0.012459	
40192	    0	21.186943	-0.253648	-11.833205	1.649594	-1.160706	-3.646924	0.212470	-0.005438	-0.117137	0.999783	0.008247	-0.005803	-0.018233	
40193	    0	20.458255	-4.426295	-9.126143	3.136868	-1.739546	-4.422595	0.204346	-0.047363	-0.090210	0.999595	0.015682	-0.008697	-0.022110	
40194	    0	25.290339	-5.377688	-10.093166	3.619388	-1.806355	-4.666498	0.252489	-0.057860	-0.099672	0.999523	0.018094	-0.009030	-0.023329	
40195	    0	27.179847	-4.469598	-7.022541	2.576761	-1.383188	-4.558357	0.271179	-0.049988	-0.068970	0.999633	0.012882	-0.006915	-0.022789	
40196	    0	20.084585	-4.094743	2.673102	1.436198	-0.838943	-4.818675	0.199665	-0.045962	0.027252	0.999675	0.007180	-0.004194	-0.024091	
40197	    0	11.679571	-4.853816	8.948768	0.754062	-1.475695	-4.987146	0.114868	-0.051758	0.090149	0.999655	0.003770	-0.007378	-0.024933	
40198	    0	12.997494	-6.297350	7.567160	0.351942	-1.641822	-4.643340	0.127838	-0.066092	0.076612	0.999695	0.001760	-0.008208	-0.023214	
40199	    0	14.725684	-6.041690	5.982683	-0.694912	-1.357396	-4.478109	0.145447	-0.063477	0.061035	0.999720	-0.003474	-0.006786	-0.022388	
40200	    0	14.229307	-6.622100	3.607488	-1.849540	-1.087864	-4.255125	0.140645	-0.068883	0.037472	0.999716	-0.009247	-0.005439	-0.021274	
40201	    0	11.901804	-12.584750	3.056467	-2.781714	-0.759950	-3.367128	0.116760	-0.127380	0.032776	0.999754	-0.013907	-0.003799	-0.016834	
40202	    0	9.894438	-19.988563	2.563469	-3.194068	-0.507198	-2.354588	0.096515	-0.200585	0.029081	0.999800	-0.015969	-0.002536	-0.011772	
40203	    0	9.246971	-28.250392	1.425133	-3.344158	-0.675813	-1.512997	0.090271	-0.282898	0.019287	0.999825	-0.016720	-0.003379	-0.007565	
40204	    0	10.505507	-38.069232	3.395304	-3.289770	-0.770226	-0.841565	0.103306	-0.380498	0.040613	0.999848	-0.016448	-0.003851	-0.004208	
40205	    0	9.195659	-46.881890	3.375787	-2.017821	-0.459298	-0.266271	0.091248	-0.468567	0.038696	0.999945	-0.010089	-0.002296	-0.001331	
40206	    0	6.589219	-46.300559	4.272394	-0.339318	0.130272	-0.085068	0.065723	-0.462960	0.043467	0.999998	-0.001697	0.000651	-0.000425	
40207	    0	4.638780	-31.930298	8.742819	0.967605	0.816351	-0.450138	0.046021	-0.319824	0.085693	0.999977	0.004838	0.004082	-0.002251	
40208	    0	0.699209	-12.996620	10.245883	1.632530	0.877015	-0.997180	0.006787	-0.130831	0.101363	0.999944	0.008162	0.004385	-0.004986	
40209	    0	2.485960	-2.951117	8.194223	2.144861	0.608839	-0.556195	0.025024	-0.030457	0.081543	0.999933	0.010724	0.003044	-0.002781	
40210	    0	8.898187	1.529448	6.674609	1.614972	0.487715	0.377278	0.089116	0.014924	0.066650	0.999962	0.008075	0.002439	0.001886	
40211	    0	13.134205	2.590653	8.173732	0.473025	0.483134	0.994879	0.131409	0.026367	0.081482	0.999982	0.002365	0.002416	0.004974	
40212	    0	13.513910	3.251920	9.158130	-0.981916	0.430113	1.433201	0.135096	0.033936	0.091126	0.999960	-0.004910	0.002151	0.007166	
40213	    0	12.304168	2.016503	9.104946	-2.667160	0.299085	1.765518	0.122986	0.022461	0.090576	0.999870	-0.013335	0.001495	0.008827	
40214	    0	8.542054	3.142111	5.161230	-3.949489	0.102815	2.017187	0.085117	0.033291	0.050923	0.999754	-0.019746	0.000514	0.010085	
40215	    0	6.356241	2.973387	-1.483419	-4.342887	0.056463	2.173065	0.063232	0.030090	-0.015503	0.999704	-0.021712	0.000282	0.010864	
40216	    0	13.804511	-0.218116	-5.202655	-2.895512	0.222600	2.129861	0.138005	-0.001466	-0.052155	0.999838	-0.014477	0.001113	0.010649	
40217	    0	30.436242	-4.933617	-5.884457	0.053597	0.267796	1.966127	0.304749	-0.046326	-0.059265	0.999950	0.000268	0.001339	0.009830	
40218	    0	48.493214	-9.792157	-8.799328	1.777350	-0.737034	2.735075	0.486526	-0.090499	-0.087029	0.999860	0.008886	-0.003685	0.013675	
40219	    0	50.519065	-10.184171	-18.674840	1.242355	-0.728665	4.133173	0.507812	-0.090210	-0.185486	0.999760	0.006211	-0.003643	0.020664	
40220	    0	36.386958	-1.484616	-13.869826	0.796207	0.405352	4.809287	0.363795	-0.005543	-0.139470	0.999701	0.003981	0.002027	0.024044	
40221	    0	28.836431	6.572748	-10.473661	1.787000	0.313793	4.795600	0.286499	0.073547	-0.104553	0.999671	0.008934	0.001569	0.023975	
40222	    0	31.618474	16.778154	-14.841563	1.914230	0.118459	4.701356	0.312016	0.176560	-0.146939	0.999678	0.009570	0.000592	0.023504	
40223	    0	33.960080	26.428794	-20.150633	1.382050	0.336499	5.333624	0.332031	0.274597	-0.200195	0.999619	0.006909	0.001682	0.026665	
40224	    0	27.711475	26.896723	-18.041499	0.865311	1.262674	5.979152	0.267755	0.277848	-0.180936	0.999523	0.004326	0.006312	0.029891	
40225	    0	19.816120	27.626763	-12.672466	0.223773	1.650544	6.458717	0.188049	0.282593	-0.127991	0.999443	0.001119	0.008251	0.032288	
40226	    0	13.924222	27.336181	-8.434069	-0.480371	1.415930	6.927414	0.129066	0.277745	-0.085942	0.999372	-0.002401	0.007078	0.034630	
40227	    0	9.330085	25.702458	-6.004858	-1.128635	1.014360	7.098421	0.083801	0.259766	-0.061951	0.999341	-0.005642	0.005071	0.035484	
40228	    0	5.476889	22.259444	-4.294451	-1.311172	0.804674	6.602407	0.047213	0.223948	-0.044610	0.999425	-0.006555	0.004023	0.033006	
40229	    0	2.115786	18.218992	-3.637306	-1.328272	0.842402	5.561077	0.015930	0.182434	-0.037659	0.999582	-0.006640	0.004211	0.027802	
40230	    0	-0.161395	15.893511	-4.084376	-1.317516	1.159574	4.128421	-0.005131	0.158580	-0.041866	0.999748	-0.006587	0.005797	0.020640	
40231	    0	-2.500153	18.968886	-4.551517	-1.579371	1.901540	2.655175	-0.027954	0.188965	-0.046753	0.999835	-0.007896	0.009507	0.013275	
40232	    0	-5.373886	23.184344	-2.179632	-0.906977	2.324761	1.572666	-0.055816	0.231310	-0.022205	0.999890	-0.004535	0.011623	0.007863	
40233	    0	-8.340012	22.617512	1.199552	0.463306	1.866955	1.326782	-0.084778	0.225586	0.013306	0.999931	0.002316	0.009335	0.006634	
40234	    0	-8.771697	8.246666	5.328561	2.154409	0.763151	1.146920	-0.087979	0.081380	0.054502	0.999918	0.010772	0.003816	0.005734	
40235	    0	-8.541298	4.287521	2.412855	1.995886	-0.182155	0.640118	-0.085571	0.042358	0.024475	0.999944	0.009979	-0.000911	0.003201	
40236	    0	-7.023601	5.461632	0.905714	1.859885	-0.219730	0.477989	-0.070376	0.054361	0.009486	0.999953	0.009299	-0.001099	0.002390	
40237	    0	-1.739372	1.540872	0.776423	2.785776	-0.499742	-0.239571	-0.017395	0.015320	0.007935	0.999899	0.013928	-0.002499	-0.001198	
40238	    0	8.151038	-2.927043	-1.407535	1.311906	-2.005054	-0.289161	0.081605	-0.029299	-0.013450	0.999927	0.006559	-0.010025	-0.001446	
40239	    0	10.101001	-7.028216	3.566049	2.795628	-3.271548	-0.392181	0.100281	-0.070984	0.036316	0.999766	0.013977	-0.016356	-0.001961	
40240	    0	11.095292	-18.770589	-0.418156	4.795820	-2.184930	-0.090037	0.110938	-0.187603	-0.007469	0.999652	0.023976	-0.010923	-0.000450	
40241	    0	13.017177	-14.742360	6.270143	4.704151	0.205250	0.432627	0.130554	-0.148560	0.059082	0.999720	0.023519	0.001026	0.002163	
40242	    0	7.087056	-2.222773	4.517941	3.555904	0.224700	1.575951	0.071097	-0.022466	0.044702	0.999810	0.017778	0.001123	0.007879	
40243	    0	1.921848	1.421548	-4.625326	1.467352	1.241327	0.985737	0.018860	0.014648	-0.046265	0.999941	0.007337	0.006207	0.004929	
40244	    0	1.285898	-0.301227	1.370097	-0.044251	1.977765	-0.553522	0.012985	-0.003045	0.013574	0.999947	-0.000221	0.009889	-0.002768	
40245	    0	-0.028668	0.101661	1.513622	-0.253114	2.034068	-2.069165	-0.000122	0.001038	0.015137	0.999893	-0.001266	0.010170	-0.010345	
40246	    0	-2.949875	5.457531	-0.304012	0.462367	1.954760	-3.069096	-0.028684	0.055026	-0.002630	0.999831	0.002312	0.009773	-0.015345	
40247	    0	-7.036786	11.472812	4.017233	0.245683	1.330082	-3.748570	-0.067932	0.115967	0.040771	0.999801	0.001228	0.006650	-0.018742	
40248	    0	-7.070715	21.133832	7.565041	-2.837846	-0.019075	-3.993052	-0.066463	0.213738	0.072622	0.999700	-0.014188	-0.000095	-0.019963	
40249	    0	7.036701	8.739947	-5.847133	-2.611725	-0.414877	-3.131323	0.071838	0.085510	-0.059448	0.999789	-0.013058	-0.002074	-0.015656	
40250	    0	46.046295	-27.196801	5.118802	-1.915389	-0.027848	0.231556	0.460770	-0.270927	0.053850	0.999953	-0.009577	-0.000139	0.001158	
40251	    0	88.303588	-72.096562	-5.897019	2.321089	-2.813043	3.200082	0.895203	-0.706055	-0.054688	0.999705	0.011604	-0.014064	0.015999	
40252	    0	21.686923	-31.272713	-23.873595	0.674259	-1.650266	-0.978487	0.217304	-0.312986	-0.237999	0.999948	0.003371	-0.008251	-0.004892	
40253	    0	-10.283625	29.737999	-0.313276	-0.714924	-1.867615	-3.564701	-0.097473	0.299133	-0.005127	0.999791	-0.003574	-0.009337	-0.017822	
40254	    0	-26.929509	62.110323	-14.302567	0.831441	-1.497509	-2.222134	-0.261300	0.624629	-0.142410	0.999901	0.004157	-0.007487	-0.011110	
40255	    0	-20.052612	59.331706	-7.700911	-1.863151	-0.534645	-1.764729	-0.195068	0.594299	-0.083069	0.999913	-0.009315	-0.002673	-0.008823	
40256	    0	17.532787	25.321776	-11.110943	-2.609602	-0.782060	-2.665300	0.179110	0.249375	-0.113685	0.999818	-0.013047	-0.003910	-0.013326	
40257	    0	35.424431	1.313425	-2.087541	-4.505211	0.439551	-5.761482	0.354370	0.002441	-0.021790	0.999329	-0.022521	0.002197	-0.028801	
40258	    0	39.646462	4.924696	-2.200853	-2.864162	0.180465	-5.573232	0.397605	0.037852	-0.022964	0.999509	-0.014318	0.000902	-0.027862	
40259	    0	23.287471	-4.795031	-10.679469	-1.940806	-0.718718	-2.336215	0.232666	-0.051697	-0.105469	0.999878	-0.009704	-0.003593	-0.011681	
40260	    0	14.746942	5.205965	-13.320372	-0.638599	-0.356112	-2.515674	0.148342	0.049772	-0.133101	0.999914	-0.003193	-0.001781	-0.012578	
40261	    0	16.223567	-2.311165	-7.871780	1.589311	-0.672005	-3.656255	0.162048	-0.025452	-0.078369	0.999795	0.007946	-0.003360	-0.018280	
40262	    0	19.348187	-9.625688	-4.922862	3.690900	-1.598983	-4.509086	0.191655	-0.099680	-0.049510	0.999543	0.018452	-0.007994	-0.022542	
40263	    0	28.370297	-6.527598	-8.312279	3.982478	-1.866286	-4.757760	0.282837	-0.070374	-0.081848	0.999475	0.019909	-0.009330	-0.023785	
40264	    0	32.090724	-3.557489	-2.806709	3.877149	-1.245136	-4.884017	0.320089	-0.042871	-0.026856	0.999495	0.019382	-0.006225	-0.024416	
40265	    0	19.290530	-5.221700	8.471600	2.715119	-1.179674	-5.068935	0.190979	-0.058228	0.085083	0.999569	0.013574	-0.005898	-0.025341	
40266	    0	7.085858	-5.021882	10.695201	1.779210	-1.816599	-4.896976	0.068613	-0.052870	0.107120	0.999619	0.008895	-0.009082	-0.024482	
40267	    0	11.954435	-5.387882	6.656991	0.305968	-1.207656	-4.594092	0.117859	-0.056702	0.067200	0.999717	0.001530	-0.006038	-0.022968	
40268	    0	17.841193	-8.403974	5.964976	-1.156902	-0.875163	-4.195176	0.176337	-0.087403	0.060924	0.999753	-0.005784	-0.004375	-0.020974	
40269	    0	16.700895	-16.039739	8.412407	-1.761739	-0.544582	-3.430393	0.164001	-0.162476	0.085999	0.999810	-0.008808	-0.002723	-0.017151	
40270	    0	11.498459	-22.972293	8.776020	-2.512111	-0.379201	-2.492464	0.111949	-0.230002	0.090862	0.999841	-0.012560	-0.001896	-0.012462	
40271	    0	6.843582	-28.965087	6.102889	-2.839598	-0.691254	-1.503058	0.066040	-0.289246	0.065369	0.999865	-0.014197	-0.003456	-0.007515	
40272	    0	6.083042	-37.603695	5.851651	-3.318951	-0.707852	-0.610191	0.059463	-0.375177	0.064960	0.999851	-0.016594	-0.003539	-0.003051	
40273	    0	7.257842	-42.001947	3.831686	-2.790161	-0.218780	-0.010682	0.072510	-0.419434	0.044250	0.999902	-0.013950	-0.001094	-0.000053	
40274	    0	7.323214	-39.607283	4.167241	-1.296436	0.506405	0.180055	0.073698	-0.395726	0.044052	0.999975	-0.006482	0.002532	0.000900	
40275	    0	4.043260	-25.452980	9.381856	0.341989	0.902561	-0.352480	0.040405	-0.254761	0.093201	0.999987	0.001710	0.004513	-0.001762	
40276	    0	0.452895	-7.860739	10.604142	0.770001	0.663761	-0.619510	0.004636	-0.079029	0.105722	0.999982	0.003850	0.003319	-0.003098	
40277	    0	4.270809	-1.099343	8.295980	0.622560	0.468637	0.097657	0.042908	-0.011230	0.082825	0.999991	0.003113	0.002343	0.000488	
40278	    0	10.028250	1.870903	6.671164	-0.362779	0.446703	0.807193	0.100354	0.019235	0.066453	0.999988	-0.001814	0.002234	0.004036	
40279	    0	11.514937	3.362507	6.621329	-1.361865	0.425154	1.032270	0.115112	0.034668	0.065735	0.999961	-0.006809	0.002126	0.005161	
40280	    0	11.996076	2.643480	5.998144	-2.493178	0.441375	1.250499	0.119921	0.027927	0.059375	0.999900	-0.012465	0.002207	0.006252	
40281	    0	12.194019	0.573719	5.512944	-3.660630	0.214400	1.453494	0.121948	0.007629	0.054871	0.999805	-0.018302	0.001072	0.007267	
40282	    0	8.973832	-0.124400	2.726965	-4.207971	0.002671	1.674032	0.089742	0.000081	0.027276	0.999743	-0.021038	0.000013	0.008369	
40283	    0	5.444674	-1.169908	-2.647266	-3.814229	-0.018121	1.992952	0.054565	-0.011658	-0.026245	0.999768	-0.019070	-0.000091	0.009964	
40284	    0	8.828833	-1.473560	-6.390273	-2.082900	0.004769	2.076224	0.088438	-0.014482	-0.063753	0.999891	-0.010414	0.000024	0.010381	
40285	    0	19.012099	-3.121218	-9.006831	0.770583	-0.035668	1.968420	0.190430	-0.028992	-0.090149	0.999944	0.003853	-0.000178	0.009842	
40286	    0	33.432031	-7.688138	-12.749926	2.875685	-0.827837	2.224097	0.335661	-0.071323	-0.127164	0.999825	0.014378	-0.004139	0.011120	
40287	    0	43.847057	-9.170548	-20.945238	2.280586	-1.431947	3.094699	0.441284	-0.082520	-0.207275	0.999789	0.011402	-0.007159	0.015472	
40288	    0	37.695762	-2.187519	-19.490071	1.042823	-0.246829	4.039868	0.377523	-0.013238	-0.194519	0.999782	0.005214	-0.001234	0.020198	
40289	    0	25.731469	6.090226	-11.488588	1.908301	0.187892	4.489582	0.255737	0.067749	-0.114502	0.999701	0.009541	0.000939	0.022446	
40290	    0	21.976109	9.458771	-10.770880	2.546399	0.092135	4.457200	0.217511	0.100814	-0.106552	0.999670	0.012731	0.000461	0.022284	
40291	    0	22.406160	17.281892	-13.665774	2.172500	-0.026706	4.433892	0.220154	0.179199	-0.134705	0.999695	0.010861	-0.000134	0.022167	
40292	    0	21.410992	22.428896	-14.964210	1.544911	0.126660	4.564536	0.208806	0.230243	-0.148012	0.999709	0.007724	0.000633	0.022820	
40293	    0	19.195204	23.075914	-12.868916	0.972269	0.597439	4.674981	0.186096	0.235779	-0.128113	0.999710	0.004861	0.002987	0.023373	
40294	    0	16.987157	22.495725	-9.889662	0.271443	0.913139	4.793072	0.163961	0.229069	-0.099345	0.999701	0.001357	0.004565	0.023963	
40295	    0	13.748860	21.077622	-7.208240	-0.259237	0.956831	5.039006	0.131775	0.214050	-0.072998	0.999670	-0.001296	0.004784	0.025192	
40296	    0	9.729286	19.989819	-4.638744	-0.417377	0.894843	5.230949	0.091813	0.202250	-0.047227	0.999645	-0.002087	0.004474	0.026152	
40297	    0	5.416579	18.739577	-2.762810	-0.139633	0.763976	5.038998	0.049316	0.188660	-0.027954	0.999675	-0.000698	0.003819	0.025192	
40298	    0	2.557084	16.783558	-2.593668	0.102433	0.748693	4.263257	0.021889	0.168342	-0.025937	0.999765	0.000512	0.003743	0.021315	
40299	    0	1.025655	16.367968	-4.751029	-0.212679	1.070451	3.046550	0.007507	0.163757	-0.047729	0.999868	-0.001063	0.005352	0.015232	
40300	    0	-1.480800	21.221525	-5.904774	-1.219789	1.728114	1.835311	-0.017269	0.211699	-0.060198	0.999902	-0.006099	0.008640	0.009176	
40301	    0	-4.244065	25.179851	-0.351991	-0.444804	1.919789	1.216916	-0.044006	0.251526	-0.003662	0.999932	-0.002224	0.009599	0.006084	
40302	    0	-6.596716	15.721010	7.009382	1.845794	1.143106	1.445621	-0.066690	0.156072	0.071918	0.999914	0.009229	0.005715	0.007228	
40303	    0	-5.752899	1.011846	13.258250	3.351777	-0.324076	1.346662	-0.057800	0.007507	0.132629	0.999835	0.016758	-0.001620	0.006733	
40304	    0	-3.901554	-1.085790	8.147705	2.984964	-1.327202	1.300307	-0.039477	-0.012325	0.081039	0.999845	0.014924	-0.006636	0.006501	
40305	    0	0.098693	-1.708308	6.649054	3.716524	-1.038239	1.000280	0.000732	-0.018311	0.066162	0.999801	0.018581	-0.005191	0.005001	
40306	    0	6.232500	-4.827980	0.185122	3.015093	-1.581460	0.354212	0.062397	-0.048195	0.001617	0.999853	0.015075	-0.007907	0.001771	
40307	    0	12.473366	-1.981160	-1.050491	0.253303	-2.496977	-0.352487	0.124817	-0.020020	-0.008972	0.999919	0.001266	-0.012485	-0.001762	
40308	    0	6.513958	-5.593796	9.254650	2.209257	-3.611454	-0.234621	0.063396	-0.057039	0.093076	0.999775	0.011045	-0.018056	-0.001173	
40309	    0	4.798717	-10.421913	0.973870	3.395312	-2.140763	0.508152	0.048157	-0.104248	0.008484	0.999795	0.016975	-0.010703	0.002541	
40310	    0	1.644558	-6.936182	-3.871911	1.149767	-0.494392	1.452850	0.017044	-0.069016	-0.039075	0.999953	0.005749	-0.002472	0.007264	
40311	    0	2.471933	-6.533492	-6.118329	-0.034142	0.370028	1.282511	0.025024	-0.065186	-0.061218	0.999977	-0.000171	0.001850	0.006413	
40312	    0	5.307486	-4.113821	3.322752	-0.811785	2.086492	0.075914	0.053434	-0.040984	0.032838	0.999937	-0.004059	0.010432	0.000380	
40313	    0	3.720240	-1.623850	6.576886	-2.017283	1.690161	-1.236768	0.037659	-0.015808	0.065613	0.999894	-0.010086	0.008451	-0.006184	
40314	    0	-1.179096	3.034920	2.909167	-2.147958	1.101160	-2.127739	-0.011306	0.030782	0.028826	0.999870	-0.010739	0.005506	-0.010638	
40315	    0	-3.559447	4.525690	-2.397198	0.097659	1.515433	-2.180545	-0.035278	0.045654	-0.023682	0.999911	0.000488	0.007577	-0.010902	
40316	    0	-4.511050	3.705103	2.557475	-0.131422	1.887975	-2.587429	-0.044382	0.037645	0.025971	0.999871	-0.000657	0.009439	-0.012937	
40317	    0	12.832008	-2.000490	8.559489	-2.129257	-0.101475	-2.210322	0.128052	-0.020508	0.085876	0.999882	-0.010646	-0.000507	-0.011051	
40318	    0	75.979656	-43.625572	-11.295412	0.651969	-2.868817	2.268540	0.766206	-0.427241	-0.103396	0.999827	0.003260	-0.014343	0.011342	
40319	    0	62.253470	-78.261750	-11.938088	2.459280	-2.353798	1.286387	0.628967	-0.777100	-0.121582	0.999834	0.012296	-0.011768	0.006432	
40320	    0	4.937387	-6.306602	0.679522	-0.253112	-1.242478	-2.097755	0.048665	-0.063570	0.007179	0.999925	-0.001266	-0.006212	-0.010489	
40321	    0	-19.498935	60.888651	4.688016	1.357328	-0.835264	-2.800872	-0.186646	0.611206	0.050232	0.999869	0.006786	-0.004176	-0.014004	
40322	    0	-24.984093	90.506247	-9.351242	-0.424196	0.150681	-0.938611	-0.245662	0.906021	-0.095247	0.999986	-0.002121	0.000753	-0.004693	
40323	    0	8.656531	54.877794	-6.394576	-2.293518	-1.415137	-2.337770	0.093445	0.546936	-0.069580	0.999841	-0.011467	-0.007075	-0.011688	
40324	    0	19.696655	15.713213	-13.584336	-6.536036	-1.092424	-4.085810	0.200816	0.148531	-0.139702	0.999242	-0.032672	-0.005461	-0.020424	
40325	    0	18.898129	4.103296	-3.308427	-5.558568	-0.049605	-5.849518	0.190063	0.034546	-0.034058	0.999186	-0.027785	-0.000248	-0.029240	
40326	    0	26.254665	-4.763481	-2.518766	-2.085625	0.146875	-3.260244	0.261703	-0.052166	-0.024852	0.999812	-0.010427	0.000734	-0.016300	
40327	    0	20.265686	-14.854519	-11.904304	0.015450	-0.458532	-1.533525	0.201782	-0.150085	-0.118591	0.999968	0.000077	-0.002293	-0.007668	
40328	    0	23.346478	-1.418448	-12.127306	1.158557	-0.829149	-2.224605	0.233793	-0.016085	-0.120394	0.999912	0.005793	-0.004146	-0.011123	
40329	    0	21.377868	0.648298	-11.648029	3.320114	-1.255177	-3.795288	0.214600	0.004333	-0.115051	0.999662	0.016599	-0.006275	-0.018974	
40330	    0	21.715212	-0.914957	-10.520174	4.329536	-2.154753	-4.628664	0.218016	-0.011942	-0.103094	0.999439	0.021644	-0.010772	-0.023139	
40331	    0	27.618974	2.918580	-12.451954	3.636752	-2.209636	-4.511984	0.278137	0.025146	-0.120972	0.999518	0.018181	-0.011046	-0.022556	
40332	    0	26.953536	1.211647	-5.469219	2.305863	-1.291230	-4.485446	0.270071	0.006680	-0.052852	0.999660	0.011528	-0.006455	-0.022425	
40333	    0	17.790123	-2.190154	3.165868	0.930882	-1.183250	-4.727658	0.177124	-0.026245	0.032593	0.999692	0.004654	-0.005916	-0.023636	
40334	    0	14.124298	-3.893378	8.761678	-0.069435	-1.524514	-4.800350	0.139582	-0.042267	0.088699	0.999682	-0.000347	-0.007622	-0.023999	
40335	    0	16.622374	-4.340879	8.477414	-0.424812	-1.439059	-4.863501	0.164490	-0.047241	0.086060	0.999676	-0.002124	-0.007195	-0.024315	
40336	    0	16.760338	-3.864532	8.496807	-1.553147	-1.150458	-4.973429	0.166091	-0.042122	0.086245	0.999643	-0.007765	-0.005752	-0.024864	
40337	    0	14.267295	-4.892563	5.691527	-2.231078	-1.055069	-4.475890	0.141235	-0.051453	0.058228	0.999673	-0.011154	-0.005275	-0.022377	
40338	    0	11.476049	-11.061083	4.582234	-2.650482	-0.796003	-3.510195	0.112616	-0.111976	0.047751	0.999750	-0.013251	-0.003980	-0.017550	
40339	    0	9.507395	-20.935880	3.633035	-2.754382	-0.841384	-2.562109	0.092224	-0.210022	0.039612	0.999814	-0.013771	-0.004207	-0.012810	
40340	    0	9.518613	-33.601416	4.173949	-2.917628	-1.024870	-1.607976	0.092252	-0.336102	0.047120	0.999847	-0.014587	-0.005124	-0.008039	
40341	    0	11.354192	-45.817578	6.447211	-2.763474	-0.875698	-0.968208	0.111023	-0.457764	0.071289	0.999883	-0.013817	-0.004378	-0.004841	
40342	    0	7.965810	-50.265599	4.828334	-2.090116	-0.589764	-0.467692	0.078330	-0.502297	0.053766	0.999938	-0.010450	-0.002949	-0.002338	
40343	    0	4.330300	-45.353419	6.531623	-0.475121	-0.059509	-0.246430	0.042725	-0.453430	0.066406	0.999996	-0.002376	-0.000298	-0.001232	
40344	    0	4.103839	-28.812819	8.935923	1.102075	0.858505	-0.172426	0.041168	-0.288650	0.087593	0.999975	0.005510	0.004292	-0.000862	
40345	    0	-0.547710	-12.615463	10.466570	1.570919	1.040095	-0.686657	-0.005371	-0.126953	0.103699	0.999949	0.007854	0.005200	-0.003433	
40346	    0	0.418129	0.253505	11.015211	1.036272	0.828751	-0.711638	0.004645	0.001948	0.110145	0.999971	0.005181	0.004144	-0.003558	
40347	    0	8.052537	5.992975	8.008053	0.229645	0.630380	0.093079	0.080750	0.059875	0.079895	0.999993	0.001148	0.003152	0.000465	
40348	    0	13.881007	5.102464	7.142465	-0.879104	0.537495	0.915916	0.138764	0.051972	0.070825	0.999976	-0.004395	0.002687	0.004580	
40349	    0	13.474851	3.837458	7.954106	-2.252260	0.354205	1.239811	0.134644	0.040100	0.078857	0.999915	-0.011261	0.001771	0.006199	
40350	    0	11.496974	2.632725	6.149515	-3.599581	0.193608	1.386156	0.114838	0.028223	0.060887	0.999813	-0.017997	0.000968	0.006930	
40351	    0	7.857410	1.786723	1.965313	-4.646765	-0.011254	1.538239	0.078430	0.018921	0.019226	0.999700	-0.023232	-0.000056	0.007690	
40352	    0	5.508908	1.978751	-4.480896	-4.702287	-0.135817	1.577348	0.054967	0.019161	-0.045227	0.999692	-0.023509	-0.000679	0.007886	
40353	    0	11.776688	0.136555	-8.987901	-2.890903	-0.086025	1.441255	0.117798	0.000916	-0.089844	0.999869	-0.014454	-0.000430	0.007206	
40354	    0	27.986478	-4.885261	-10.571691	0.275424	-0.057602	1.500716	0.280251	-0.046605	-0.105701	0.999970	0.001377	-0.000288	0.007504	
40355	    0	47.046493	-11.458869	-13.227627	2.078353	-0.927591	2.665084	0.472534	-0.106934	-0.131226	0.999846	0.010391	-0.004638	0.013325	
40356	    0	46.739935	-11.176803	-19.037425	1.647897	-0.853038	4.089890	0.470342	-0.100607	-0.189232	0.999747	0.008239	-0.004265	0.020448	
40357	    0	28.620129	-3.364750	-12.244345	1.516875	0.099383	4.643711	0.286804	-0.026062	-0.122803	0.999701	0.007584	0.000497	0.023216	
40358	    0	20.395382	3.311795	-9.062174	2.564147	0.104153	4.519590	0.203072	0.038873	-0.090254	0.999661	0.012819	0.000521	0.022595	
40359	    0	23.740479	10.414201	-12.208580	2.560679	-0.129522	4.156144	0.235229	0.110596	-0.120544	0.999701	0.012802	-0.000648	0.020779	
40360	    0	30.865433	22.935627	-17.924741	1.659546	-0.291279	4.387687	0.303761	0.237531	-0.176854	0.999723	0.008297	-0.001456	0.021936	
40361	    0	29.420463	28.959049	-18.928595	1.047632	0.425195	5.032907	0.286377	0.297852	-0.188354	0.999667	0.005238	0.002126	0.025162	
40362	    0	20.604751	26.032488	-12.696660	0.338789	1.120141	5.473279	0.198105	0.266035	-0.127644	0.999608	0.001694	0.005600	0.027363	
40363	    0	13.996191	23.725949	-8.104219	-0.321246	1.166137	5.869409	0.132446	0.241089	-0.082214	0.999551	-0.001606	0.005830	0.029343	
40364	    0	9.769333	21.132190	-5.592386	-0.864735	0.935890	5.967303	0.091071	0.213860	-0.057281	0.999534	-0.004323	0.004679	0.029832	
40365	    0	6.487619	18.344508	-3.730198	-0.862048	0.759228	5.595396	0.059570	0.184998	-0.038330	0.999592	-0.004310	0.003796	0.027973	
40366	    0	3.599557	15.342020	-2.925042	-0.421567	0.778658	4.846682	0.032150	0.154168	-0.029705	0.999696	-0.002108	0.003893	0.024231	
40367	    0	1.334434	13.204654	-2.434963	-0.016595	0.920926	3.766868	0.010742	0.132263	-0.024414	0.999811	-0.000083	0.004604	0.018833	
40368	    0	0.110816	13.622290	-3.228223	0.154500	1.180496	2.520834	-0.000799	0.136246	-0.032176	0.999903	0.000772	0.005902	0.012604	
40369	    0	-2.151520	20.572257	-7.231545	-0.498973	1.716078	1.384002	-0.023560	0.205383	-0.072632	0.999936	-0.002495	0.008580	0.006920	
40370	    0	-5.324661	28.782341	-2.597665	0.237852	2.087643	1.148633	-0.055163	0.287540	-0.025065	0.999928	0.001189	0.010438	0.005743	
40371	    0	-7.893182	19.200964	2.397355	1.899218	1.595366	1.666322	-0.080322	0.191101	0.026428	0.999887	0.009496	0.007977	0.008331	
40372	    0	-6.401006	3.475102	7.985980	2.369777	0.460260	1.736133	-0.064118	0.033244	0.080407	0.999889	0.011848	0.002301	0.008680	
40373	    0	-3.964835	4.013316	2.644984	1.622241	-0.194554	1.835679	-0.040039	0.039551	0.026733	0.999924	0.008111	-0.000973	0.009178	
40374	    0	0.225654	2.591961	5.946403	2.967397	0.070003	1.453275	0.002093	0.025049	0.059839	0.999863	0.014836	0.000350	0.007266	
40375	    0	2.999030	0.008027	2.798540	2.998674	-1.029250	0.647001	0.029846	-0.000244	0.028137	0.999868	0.014993	-0.005146	0.003235	
40376	    0	5.756840	-1.064859	5.899279	2.384689	-2.568376	0.085072	0.056810	-0.011333	0.059593	0.999846	0.011923	-0.012841	0.000425	
40377	    0	4.351106	-10.315341	5.259134	3.989115	-3.493718	-0.009919	0.042603	-0.104187	0.051270	0.999648	0.019943	-0.017467	-0.000050	
40378	    0	6.442186	-13.252353	-4.900761	3.393189	-1.732550	0.253693	0.065023	-0.131591	-0.050684	0.999817	0.016965	-0.008662	0.001268	
40379	    0	4.905269	-6.113479	1.152796	2.907869	0.080875	1.049084	0.049377	-0.061035	0.010620	0.999880	0.014539	0.000404	0.005245	
40380	    0	3.067177	-4.579238	-3.185760	1.520399	2.252273	0.849943	0.030501	-0.045417	-0.032548	0.999898	0.007602	0.011261	0.004250	
40381	    0	5.124962	-7.257225	1.513850	0.220497	2.785774	-0.169378	0.051392	-0.072632	0.014343	0.999902	0.001102	0.013928	-0.000847	
40382	    0	5.175946	-8.775822	0.411906	0.582907	2.549834	-1.306390	0.051229	-0.088104	0.003207	0.999892	0.002914	0.012749	-0.006532	
40383	    0	0.258888	-0.334472	3.110515	-0.177014	2.885821	-2.781101	0.002991	-0.003357	0.031067	0.999799	-0.000885	0.014428	-0.013905	
40384	    0	-4.759904	7.740716	15.891215	-2.603962	1.023196	-3.786246	-0.045286	0.080341	0.158114	0.999722	-0.013019	0.005116	-0.018929	
40385	    0	15.560432	-6.619195	3.306203	-2.990716	-0.541720	-2.349998	0.154724	-0.067505	0.034485	0.999815	-0.014953	-0.002708	-0.011749	
40386	    0	55.677995	-25.778185	-2.337610	-1.209087	-0.645266	1.327344	0.558543	-0.254207	-0.020032	0.999954	-0.006045	-0.003226	0.006637	
40387	    0	42.669369	-14.928751	-25.769611	0.204477	-3.053997	1.297057	0.431519	-0.146240	-0.251282	0.999862	0.001022	-0.015269	0.006485	
40388	    0	8.908442	18.858764	-14.042411	-2.158452	-0.814283	-2.311809	0.091821	0.186009	-0.142071	0.999866	-0.010792	-0.004071	-0.011559	
40389	    0	-7.738856	51.801731	-7.413465	-2.831535	-1.581532	-3.478569	-0.067749	0.518127	-0.082031	0.999717	-0.014156	-0.007907	-0.017391	
40390	    0	-13.254714	49.730339	-11.924635	-3.515950	0.043492	-3.129294	-0.124795	0.497098	-0.127959	0.999722	-0.017578	0.000217	-0.015645	
40391	    0	2.025081	18.554545	-3.304840	-1.566965	-0.127417	-3.089297	0.023132	0.184937	-0.034485	0.999849	-0.007834	-0.000637	-0.015446	
40392	    0	16.123730	-2.948850	0.756159	-0.761468	-0.361468	-4.060464	0.160581	-0.032723	0.007973	0.999784	-0.003807	-0.001807	-0.020301	
40393	    0	30.812378	-3.103010	0.016151	0.653134	-0.129520	-4.547519	0.307312	-0.038025	0.000244	0.999736	0.003265	-0.000648	-0.022736	
40394	    0	32.110274	3.278069	-5.442847	1.633163	-0.822876	-3.176295	0.321794	0.028110	-0.052863	0.999831	0.008165	-0.004114	-0.015881	
40395	    0	24.658603	9.904504	-9.814687	1.092784	-1.347430	-3.316691	0.248840	0.095459	-0.095947	0.999825	0.005464	-0.006737	-0.016582	
40396	    0	15.244910	8.822295	-8.575745	1.152684	-1.213913	-3.512986	0.154488	0.086010	-0.084324	0.999810	0.005763	-0.006069	-0.017564	
40397	    0	14.984329	0.065745	-5.704146	1.437677	-1.356609	-3.774547	0.150208	-0.001770	-0.056030	0.999773	0.007188	-0.006783	-0.018871	
40398	    0	24.545007	-6.291875	-6.565034	1.716186	-1.566256	-3.854695	0.244691	-0.067084	-0.064296	0.999746	0.008580	-0.007831	-0.019272	
40399	    0	31.189597	-12.124091	-4.942822	1.735831	-1.242741	-3.913440	0.309753	-0.126892	-0.048584	0.999751	0.008678	-0.006213	-0.019566	
40400	    0	25.677335	-12.478083	1.478822	1.019378	-0.807453	-4.449861	0.253851	-0.130527	0.015162	0.999731	0.005096	-0.004037	-0.022247	
40401	    0	13.028384	-9.794676	6.932406	0.534307	-1.196420	-4.963466	0.127380	-0.101318	0.069824	0.999670	0.002671	-0.005981	-0.024815	
40402	    0	9.027024	-5.826067	5.447450	0.637505	-1.390607	-4.849384	0.088439	-0.060595	0.054903	0.999677	0.003187	-0.006952	-0.024244	
40403	    0	13.173694	-4.107876	3.161043	-0.140393	-1.080987	-4.410932	0.130615	-0.043945	0.032349	0.999742	-0.000702	-0.005404	-0.022053	
40404	    0	16.410667	-6.761539	3.261908	-1.522382	-0.875165	-4.118691	0.162525	-0.070719	0.033863	0.999749	-0.007611	-0.004375	-0.020592	
40405	    0	14.033494	-12.742103	2.167961	-2.161565	-0.878016	-3.466286	0.138000	-0.129578	0.023682	0.999782	-0.010807	-0.004390	-0.017330	
40406	    0	9.117263	-20.257213	1.603222	-2.281492	-0.901267	-2.411008	0.088643	-0.203447	0.018753	0.999851	-0.011407	-0.004506	-0.012054	
40407	    0	6.984910	-29.611284	5.664146	-2.437488	-0.695063	-1.486260	0.067444	-0.295898	0.060486	0.999891	-0.012187	-0.003475	-0.007431	
40408	    0	6.349579	-41.247430	8.277193	-2.487065	-0.618762	-0.718710	0.061749	-0.411625	0.088087	0.999911	-0.012435	-0.003094	-0.003593	
40409	    0	6.072105	-47.388013	5.965376	-1.448835	-0.286677	-0.061799	0.060486	-0.473450	0.063171	0.999972	-0.007244	-0.001433	-0.000309	
40410	    0	4.510938	-37.116306	8.004320	0.175285	0.325585	0.046349	0.045325	-0.371222	0.079644	0.999998	0.000876	0.001628	0.000232	
40411	    0	2.944912	-18.661451	9.240534	1.797704	0.582132	-0.446327	0.029297	-0.187500	0.090637	0.999952	0.008988	0.002911	-0.002232	
40412	    0	2.935638	-6.759505	8.318101	2.729887	0.517862	-0.386060	0.029438	-0.068778	0.082171	0.999901	0.013649	0.002589	-0.001930	
40413	    0	6.599425	-0.687138	7.263819	2.858835	0.433556	0.286875	0.066162	-0.007812	0.072388	0.999894	0.014294	0.002168	0.001434	
40414	    0	9.256423	2.947629	7.577264	2.033467	0.516330	0.782792	0.092646	0.029068	0.075830	0.999937	0.010167	0.002582	0.003914	
40415	    0	10.293886	4.440819	8.011486	0.560193	0.669866	1.077279	0.102966	0.044739	0.079895	0.999975	0.002801	0.003349	0.005386	
40416	    0	11.553115	3.823683	8.255676	-1.387238	0.649654	1.296637	0.115544	0.039556	0.081910	0.999949	-0.006936	0.003248	0.006483	
40417	    0	10.370560	3.509979	5.883544	-3.122867	0.435851	1.414560	0.103577	0.036743	0.058044	0.999850	-0.015614	0.002179	0.007072	
40418	    0	7.389723	2.989785	-0.663173	-4.112768	0.202005	1.587806	0.073650	0.030337	-0.007327	0.999756	-0.020562	0.001010	0.007938	
40419	    0	8.213513	1.882194	-7.208542	-3.926962	0.006867	1.769393	0.081970	0.018127	-0.072449	0.999767	-0.019633	0.000034	0.008846	
40420	    0	16.223949	0.108115	-10.178846	-2.274208	-0.044252	1.707898	0.162251	0.001309	-0.101767	0.999898	-0.011371	-0.000221	0.008539	
40421	    0	31.430662	-4.906966	-11.916449	-0.039483	-0.280766	1.991306	0.314941	-0.045959	-0.118713	0.999949	-0.000197	-0.001404	0.009956	
40422	    0	44.997970	-10.767593	-15.846107	0.832976	-0.831450	3.015078	0.452183	-0.100214	-0.157012	0.999868	0.004165	-0.004157	0.015075	
40423	    0	42.421420	-11.277696	-18.280523	0.575300	-0.260754	4.217086	0.426697	-0.103271	-0.182556	0.999772	0.002876	-0.001304	0.021084	
40424	    0	29.724744	-0.106200	-11.306280	1.336038	0.245500	4.650380	0.297014	0.006603	-0.113400	0.999706	0.006680	0.001227	0.023250	
40425	    0	23.000032	8.454874	-12.416852	2.316713	0.132765	4.393457	0.227966	0.091003	-0.123291	0.999691	0.011582	0.000664	0.021965	
40426	    0	23.124440	18.587443	-15.146064	2.019127	0.195522	4.414230	0.226898	0.192432	-0.149763	0.999704	0.010095	0.000978	0.022069	
40427	    0	25.570713	27.206990	-17.291098	1.485612	0.377126	4.986375	0.248474	0.279602	-0.171326	0.999660	0.007427	0.001885	0.024929	
40428	    0	22.548533	26.546838	-15.341279	0.869479	0.859369	5.369102	0.217582	0.272047	-0.153186	0.999620	0.004347	0.004296	0.026842	
40429	    0	18.172207	24.518442	-11.463524	0.232156	1.143038	5.576316	0.174133	0.250244	-0.115356	0.999594	0.001161	0.005714	0.027878	
40430	    0	13.830776	24.691110	-8.236985	-0.367600	1.060069	5.815784	0.130614	0.250631	-0.083534	0.999561	-0.001838	0.005300	0.029075	
40431	    0	9.398256	23.876578	-4.805466	-0.662329	0.907460	5.848032	0.086731	0.241211	-0.049255	0.999557	-0.003311	0.004537	0.029236	
40432	    0	5.662414	21.576081	-2.383710	-0.556827	0.769905	5.472505	0.050601	0.217133	-0.024643	0.999614	-0.002784	0.003849	0.027359	
40433	    0	2.923982	18.941161	-1.433198	-0.335535	0.915615	4.692527	0.024719	0.190002	-0.014771	0.999712	-0.001678	0.004578	0.023460	
40434	    0	0.882330	18.976876	-3.620472	-0.810674	1.340187	3.542931	0.005216	0.189734	-0.037017	0.999812	-0.004053	0.006701	0.017714	
40435	    0	-2.818830	22.962895	-0.648856	-1.091821	1.944258	2.662793	-0.031311	0.229187	-0.007446	0.999848	-0.005459	0.009721	0.013313	
40436	    0	-6.197765	18.758603	3.852121	0.198370	1.583718	2.135912	-0.063667	0.186873	0.039207	0.999910	0.000992	0.007918	0.010679	
40437	    0	-8.949462	3.678133	11.446351	2.897980	0.585204	1.818176	-0.089478	0.034302	0.115234	0.999849	0.014489	0.002926	0.009090	
40438	    0	-8.537809	0.210654	6.257273	2.801623	-0.459307	1.145789	-0.085528	0.000742	0.062393	0.999883	0.014008	-0.002296	0.005729	
40439	    0	-9.626328	5.958981	1.070750	1.565003	-0.636301	0.877394	-0.096558	0.059082	0.010864	0.999954	0.007825	-0.003181	0.004387	
40440	    0	-5.602322	2.791296	-0.050520	2.295938	-1.137192	0.105289	-0.056035	0.027889	-0.000504	0.999917	0.011479	-0.005686	0.000526	
40441	    0	6.669468	-5.090880	-5.436527	-0.166897	-2.372803	-0.760670	0.067139	-0.051208	-0.053528	0.999922	-0.000834	-0.011864	-0.003803	
40442	    0	11.951184	-10.354030	-0.701209	0.066760	-3.026725	-1.514316	0.118812	-0.104440	-0.005245	0.999856	0.000334	-0.015133	-0.007571	
40443	    0	11.239506	-19.709974	-0.332545	3.125135	-0.435467	-0.659971	0.111755	-0.197388	-0.006165	0.999869	0.015625	-0.002177	-0.003300	
40444	    0	5.602724	-21.100319	2.683718	2.953665	0.937696	1.184327	0.057392	-0.211029	0.023454	0.999862	0.014768	0.004688	0.005921	
40445	    0	5.741375	-18.405806	-2.359644	2.176736	0.139050	1.703698	0.058960	-0.183289	-0.025635	0.999904	0.010883	0.000695	0.008518	
40446	    0	6.688605	-6.314584	2.611170	0.908676	1.498057	0.959412	0.067380	-0.062940	0.025322	0.999949	0.004543	0.007490	0.004797	
40447	    0	3.914442	0.021482	5.850230	-0.172235	1.393139	-0.106049	0.039551	0.000244	0.058228	0.999975	-0.000861	0.006966	-0.000530	
40448	    0	-1.667909	3.463728	1.471230	-0.985539	0.746545	-1.196495	-0.016417	0.034808	0.014603	0.999963	-0.004928	0.003733	-0.005982	
40449	    0	-4.199786	8.159091	-4.145258	0.146487	1.222442	-1.673919	-0.041565	0.081970	-0.041138	0.999946	0.000732	0.006112	-0.008369	
40450	    0	-8.027675	13.700848	0.684134	1.435731	1.838583	-2.501800	-0.078482	0.137940	0.008556	0.999853	0.007178	0.009192	-0.012508	
40451	    0	-7.317140	27.632705	9.300325	-2.551261	0.228135	-3.257222	-0.068542	0.278625	0.089539	0.999784	-0.012755	0.001141	-0.016285	
40452	    0	12.829524	3.193390	-4.261159	-2.739313	-1.153636	-2.446898	0.128913	0.029778	-0.042287	0.999814	-0.013696	-0.005768	-0.012234	
40453	    0	69.947547	-42.767611	-6.623234	0.096133	-1.258694	2.232422	0.704590	-0.419800	-0.062012	0.999917	0.000481	-0.006293	0.011162	
40454	    0	69.043308	-84.106795	-9.010883	1.741155	-3.088605	2.231761	0.701111	-0.832520	-0.086609	0.999780	0.008705	-0.015442	0.011158	
40455	    0	6.866200	-11.065856	-2.144790	0.125698	-0.990708	-2.575193	0.067335	-0.111518	-0.021182	0.999903	0.000628	-0.004953	-0.012876	
40456	    0	-16.179524	54.201444	6.243808	1.517610	-1.648655	-3.806614	-0.151978	0.544481	0.065284	0.999756	0.007587	-0.008243	-0.019032	
40457	    0	-27.774973	83.940772	-12.903290	0.761613	-0.241092	-1.482409	-0.271362	0.841919	-0.126160	0.999964	0.003808	-0.001205	-0.007412	
40458	    0	5.770842	51.026518	-3.530335	-0.490205	-1.313444	-2.458273	0.064209	0.509415	-0.036145	0.999900	-0.002451	-0.006567	-0.012291	
40459	    0	20.315832	13.831322	-12.200581	-4.575281	-1.554153	-3.626040	0.206543	0.131775	-0.123474	0.999543	-0.022873	-0.007770	-0.018127	
40460	    0	21.497256	5.975155	-9.282941	-5.233124	-0.930058	-5.465114	0.216887	0.051405	-0.093242	0.999273	-0.026159	-0.004649	-0.027319	
40461	    0	26.282175	2.532467	-6.003859	-2.495751	-0.007439	-3.276294	0.263184	0.020264	-0.060303	0.999787	-0.012478	-0.000037	-0.016380	
40462	    0	19.582026	-7.891721	-11.500114	-1.058219	-0.360496	-1.921693	0.195252	-0.081401	-0.114223	0.999938	-0.005291	-0.001802	-0.009608	
40463	    0	20.921998	1.647756	-11.097919	-0.327310	-0.796340	-2.446052	0.209839	0.013733	-0.110168	0.999915	-0.001637	-0.003982	-0.012230	
40464	    0	20.733891	0.139687	-8.274961	1.801240	-1.085742	-3.602861	0.207773	-0.001605	-0.081628	0.999782	0.009006	-0.005428	-0.018013	
40465	    0	23.027574	-3.707094	-8.250104	3.439252	-1.846578	-4.379901	0.230164	-0.040710	-0.081055	0.999569	0.017194	-0.009232	-0.021896	
40466	    0	28.506218	-0.686734	-10.140313	3.096258	-2.073011	-4.504845	0.285866	-0.011760	-0.098599	0.999573	0.015479	-0.010364	-0.022521	
40467	    0	28.761179	1.284852	-4.178228	2.053299	-1.360282	-4.549152	0.288086	0.006714	-0.039734	0.999665	0.010265	-0.006801	-0.022743	
40468	    0	21.180430	-1.431625	5.055861	0.801357	-1.229217	-4.654774	0.211076	-0.019441	0.051786	0.999701	0.004006	-0.006145	-0.023272	
40469	    0	16.768268	-4.451630	9.845442	0.239016	-1.749602	-4.673490	0.165710	-0.048523	0.099854	0.999687	0.001195	-0.008747	-0.023365	
40470	    0	19.640948	-7.011727	7.452763	-0.308450	-1.645256	-4.658030	0.194085	-0.074539	0.076243	0.999693	-0.001542	-0.008225	-0.023288	
40471	    0	19.566525	-9.230400	6.551356	-1.729588	-1.269674	-4.732283	0.192993	-0.096313	0.067566	0.999662	-0.008647	-0.006348	-0.023659	
40472	    0	16.534781	-14.329355	4.741130	-2.429265	-1.049916	-4.287983	0.161976	-0.146194	0.050032	0.999682	-0.012145	-0.005249	-0.021438	
40473	    0	12.087420	-22.628805	7.187937	-2.904762	-0.757474	-3.431236	0.116699	-0.227234	0.075623	0.999740	-0.014523	-0.003787	-0.017155	
40474	    0	7.109076	-29.676799	5.625078	-3.056343	-0.912725	-2.316434	0.067383	-0.296654	0.061098	0.999805	-0.015281	-0.004563	-0.011581	
40475	    0	5.656923	-36.710458	6.948063	-3.678377	-0.937524	-1.270379	0.053894	-0.366089	0.076477	0.999799	-0.018391	-0.004687	-0.006351	
40476	    0	6.403455	-41.712627	7.629549	-3.141347	-0.511191	-0.365845	0.063066	-0.415974	0.082997	0.999871	-0.015706	-0.002556	-0.001829	
40477	    0	5.024292	-43.135565	4.253118	-1.642628	-0.039483	0.310520	0.050903	-0.430908	0.046082	0.999965	-0.008213	-0.000197	0.001553	
40478	    0	3.606043	-37.638513	6.066948	0.338937	0.658228	0.169373	0.036577	-0.376456	0.059912	0.999992	0.001695	0.003291	0.000847	
40479	    0	0.238295	-21.901414	8.453377	1.548027	0.927939	-0.521858	0.002197	-0.219666	0.082825	0.999955	0.007740	0.004640	-0.002609	
40480	    0	-0.094927	-7.296641	8.356503	1.572824	0.893606	-0.619326	-0.000805	-0.073618	0.082992	0.999954	0.007864	0.004468	-0.003097	
40481	    0	5.917650	-0.658851	5.708772	1.474206	0.720223	0.168612	0.059387	-0.006958	0.056824	0.999966	0.007371	0.003601	0.000843	
40482	    0	11.802368	3.614183	5.133172	0.361635	0.611117	0.763515	0.118041	0.036500	0.051037	0.999986	0.001808	0.003056	0.003818	
40483	    0	12.757057	5.013716	6.524553	-0.987825	0.562292	0.986490	0.127502	0.051086	0.064636	0.999971	-0.004939	0.002811	0.004932	
40484	    0	12.659166	3.232949	5.625446	-2.426609	0.461021	1.337477	0.126497	0.033853	0.055558	0.999901	-0.012133	0.002305	0.006687	
40485	    0	10.438069	1.277247	3.936538	-3.773000	0.197806	1.596181	0.104309	0.014343	0.039001	0.999789	-0.018864	0.000989	0.007980	
40486	    0	6.390951	0.864638	-0.969820	-4.257771	0.033763	1.786391	0.063828	0.009007	-0.009898	0.999733	-0.021287	0.000169	0.008931	
40487	    0	6.958042	-0.008499	-5.450536	-3.434782	0.010682	1.882292	0.069580	-0.000366	-0.054504	0.999807	-0.017173	0.000053	0.009411	
40488	    0	16.888922	-2.662957	-7.306462	-1.217866	0.099947	1.819456	0.169088	-0.025537	-0.072991	0.999940	-0.006089	0.000500	0.009097	
40489	    0	32.743643	-6.977482	-8.401694	1.168851	-0.259215	2.089742	0.328247	-0.065857	-0.083984	0.999927	0.005844	-0.001296	0.010448	
40490	    0	44.441672	-9.090378	-13.537316	1.973654	-1.082486	3.089711	0.446464	-0.082691	-0.133803	0.999817	0.009868	-0.005412	0.015448	
40491	    0	39.782666	-4.668645	-17.424828	1.333719	-0.469052	4.008786	0.399048	-0.037537	-0.173584	0.999774	0.006668	-0.002345	0.020042	
40492	    0	27.920537	3.683614	-11.316322	1.432359	0.223562	4.445481	0.278156	0.043838	-0.113177	0.999726	0.007161	0.001118	0.022225	
40493	    0	23.240822	8.548260	-8.995853	2.251104	0.193044	4.542266	0.230286	0.091736	-0.089172	0.999678	0.011254	0.000965	0.022709	
40494	    0	24.862703	14.888793	-12.810889	2.306621	-0.070961	4.610763	0.245130	0.156030	-0.126249	0.999667	0.011532	-0.000355	0.023051	
40495	    0	26.951563	21.425873	-16.157570	1.607113	0.120557	4.794060	0.264160	0.221924	-0.159973	0.999680	0.008035	0.000603	0.023968	
40496	    0	23.442138	22.945064	-13.499540	0.889496	0.726018	5.054467	0.228024	0.235868	-0.134791	0.999663	0.004447	0.003630	0.025270	
40497	    0	17.207582	22.040730	-9.254097	0.228146	1.089799	5.244311	0.165710	0.224915	-0.093201	0.999640	0.001141	0.005448	0.026218	
40498	    0	12.029791	21.237992	-6.176679	-0.264392	1.181181	5.408789	0.114130	0.215440	-0.062737	0.999616	-0.001322	0.005905	0.027040	
40499	    0	8.442975	19.937826	-3.976455	-0.534887	1.164581	5.316825	0.078857	0.201416	-0.040771	0.999625	-0.002674	0.005822	0.026581	
40500	    0	5.346480	17.838187	-2.500250	-0.438928	1.136901	4.914809	0.048917	0.179565	-0.025682	0.999679	-0.002194	0.005684	0.024571	
40501	    0	3.119885	15.847201	-1.754110	-0.202767	1.252846	4.175136	0.027771	0.159058	-0.017883	0.999762	-0.001014	0.006264	0.020874	
40502	    0	1.613420	15.246902	-1.858002	-0.131995	1.477889	3.166742	0.013579	0.152685	-0.018787	0.999846	-0.000660	0.007389	0.015833	
40503	    0	0.408312	17.672958	-5.309101	-0.675986	1.776370	2.011936	0.001831	0.176575	-0.053711	0.999904	-0.003380	0.008882	0.010059	
40504	    0	-2.440762	25.788301	-4.889791	-1.209107	2.106162	1.329464	-0.026644	0.257410	-0.050182	0.999904	-0.006045	0.010530	0.006647	
40505	    0	-4.898762	21.818704	-0.332122	-0.163844	1.547269	1.399256	-0.050537	0.217834	-0.003113	0.999945	-0.000819	0.007736	0.006996	
40506	    0	-4.793553	2.898810	6.927039	1.497490	0.313384	1.620135	-0.048057	0.028079	0.069558	0.999937	0.007487	0.001567	0.008101	
40507	    0	-4.152320	-5.021671	4.966249	1.602982	-1.181636	1.704456	-0.041382	-0.050964	0.049011	0.999913	0.008015	-0.005908	0.008522	
40508	    0	-1.690933	-3.828205	2.523107	2.091102	-0.978505	1.847525	-0.016675	-0.038697	0.024746	0.999890	0.010455	-0.004892	0.009237	
40509	    0	2.716098	-6.555833	0.771011	3.281591	-1.474656	0.904135	0.027405	-0.065552	0.006836	0.999827	0.016407	-0.007373	0.004520	
40510	    0	6.172967	-3.835144	-4.671216	2.009665	-2.386572	0.272381	0.062336	-0.037800	-0.046352	0.999877	0.010048	-0.011932	0.001362	
40511	    0	8.709072	-7.399410	1.692473	4.610971	-2.490329	0.077829	0.086914	-0.074341	0.016296	0.999656	0.023052	-0.012450	0.000389	
40512	    0	7.418913	-11.932412	0.474936	5.408000	-0.269923	0.505128	0.074487	-0.119208	0.001625	0.999630	0.027037	-0.001349	0.002525	
40513	    0	1.407637	-1.662459	6.046111	3.785961	1.035569	0.891173	0.014465	-0.017700	0.060059	0.999797	0.018929	0.005177	0.004456	
40514	    0	-0.518604	2.288629	-2.534905	2.037702	1.936990	1.288084	-0.005578	0.023108	-0.025062	0.999880	0.010188	0.009685	0.006440	
40515	    0	2.582851	-3.694241	-2.691618	0.659197	2.385965	0.378428	0.025574	-0.036804	-0.027344	0.999921	0.003296	0.011930	0.001892	
40516	    0	2.238127	-4.490730	-0.327894	-0.060847	2.789048	-1.667287	0.021957	-0.045093	-0.003573	0.999867	-0.000304	0.013945	-0.008336	
40517	    0	-1.494651	4.742762	4.424216	-0.620323	3.108671	-3.227509	-0.013489	0.047791	0.044312	0.999743	-0.003101	0.015542	-0.016136	
40518	    0	-5.273880	6.633865	14.318624	-2.022721	1.279556	-3.782588	-0.050539	0.068754	0.142827	0.999749	-0.010113	0.006397	-0.018911	
40519	    0	12.009793	-4.722377	3.663247	-3.151203	-0.858951	-3.060406	0.119202	-0.048462	0.037903	0.999749	-0.015755	-0.004294	-0.015301	
40520	    0	63.510461	-27.194931	-9.242703	-2.231864	-1.102485	1.382302	0.637454	-0.268532	-0.085908	0.999898	-0.011159	-0.005512	0.006911	
40521	    0	59.480471	-45.922691	-16.182673	0.095564	-3.093894	1.990621	0.601746	-0.453186	-0.152771	0.999830	0.000478	-0.015469	0.009953	
40522	    0	5.393169	-2.124948	-12.588003	-0.761043	-0.847256	-1.439305	0.054307	-0.022118	-0.125567	0.999957	-0.003805	-0.004236	-0.007196	
40523	    0	-10.989736	46.608174	-0.523110	-1.949272	-1.831198	-3.402213	-0.101868	0.467773	-0.010742	0.999765	-0.009746	-0.009155	-0.017010	
40524	    0	-26.034306	72.545985	-15.548510	-3.119833	-0.233282	-1.896773	-0.253273	0.725338	-0.167099	0.999832	-0.015598	-0.001166	-0.009483	
40525	    0	-0.331304	42.909843	-7.252121	-2.131570	-0.419638	-2.725358	0.002686	0.428284	-0.077087	0.999847	-0.010657	-0.002098	-0.013626	
40526	    0	16.272810	4.467211	-4.158850	-3.027256	-0.594387	-3.709008	0.163635	0.041012	-0.041742	0.999709	-0.015135	-0.002972	-0.018543	
40527	    0	25.242217	-6.349912	0.259539	-2.244761	-0.237315	-5.991624	0.250366	-0.070984	0.003662	0.999487	-0.011222	-0.001186	-0.029953	
40528	    0	32.531522	0.810955	-0.942726	1.132109	-0.196474	-4.399297	0.325398	0.001004	-0.009089	0.999742	0.005660	-0.000982	-0.021995	
40529	    0	26.543445	-0.950154	-11.163903	1.304111	-1.071214	-2.763487	0.265869	-0.012451	-0.110291	0.999868	0.006520	-0.005356	-0.013817	
40530	    0	19.497118	10.083755	-11.721776	1.568684	-1.307746	-2.864985	0.197155	0.098932	-0.115152	0.999845	0.007843	-0.006538	-0.014324	
40531	    0	12.525826	7.489733	-10.449267	2.615012	-1.358150	-3.494567	0.127258	0.074036	-0.102661	0.999739	0.013074	-0.006790	-0.017471	
40532	    0	16.816266	-0.739548	-7.191574	3.361774	-1.754234	-4.240417	0.168595	-0.009773	-0.070589	0.999595	0.016807	-0.008770	-0.021199	
40533	    0	27.893742	-1.069778	-9.603098	3.192784	-2.183081	-4.383711	0.279663	-0.015320	-0.093201	0.999573	0.015962	-0.010914	-0.021915	
40534	    0	31.957830	-2.922434	-6.389707	2.284671	-1.547975	-4.184016	0.319367	-0.035193	-0.061804	0.999685	0.011422	-0.007739	-0.020918	
40535	    0	20.935855	-5.224225	3.332096	1.221781	-1.033125	-4.667374	0.207886	-0.057312	0.034058	0.999695	0.006108	-0.005165	-0.023335	
40536	    0	10.983529	-5.994961	9.214909	0.796599	-1.647183	-4.894241	0.107556	-0.062969	0.092794	0.999659	0.003983	-0.008235	-0.024468	
40537	    0	13.174826	-3.025749	6.737694	0.441025	-1.610544	-4.738352	0.130432	-0.033508	0.068359	0.999684	0.002205	-0.008052	-0.023689	
40538	    0	17.682015	-0.039447	5.536477	-0.937173	-1.097787	-4.644279	0.176444	-0.004232	0.056348	0.999704	-0.004685	-0.005488	-0.023219	
40539	    0	19.041014	-0.632395	4.259716	-2.460754	-0.983348	-4.436987	0.190002	-0.010010	0.043640	0.999665	-0.012302	-0.004916	-0.022182	
40540	    0	16.460277	-8.661423	4.957233	-3.042132	-0.821574	-3.621258	0.162799	-0.088799	0.051583	0.999712	-0.015209	-0.004107	-0.018105	
40541	    0	11.723870	-20.311611	4.984975	-2.970901	-0.921695	-2.631560	0.114319	-0.203857	0.053406	0.999792	-0.014853	-0.004608	-0.013157	
40542	    0	7.777306	-33.261470	5.310240	-3.129570	-1.026023	-1.780232	0.074522	-0.332398	0.058693	0.999825	-0.015647	-0.005130	-0.008901	
40543	    0	5.587856	-43.704232	8.019815	-3.115997	-0.823824	-1.168880	0.052979	-0.436035	0.087219	0.999852	-0.015579	-0.004119	-0.005844	
40544	    0	3.801523	-50.188113	5.117768	-1.887162	-0.572786	-0.237850	0.037263	-0.501412	0.056018	0.999950	-0.009436	-0.002864	-0.001189	
40545	    0	5.163092	-45.701638	4.914087	-0.292015	0.012970	0.134277	0.051941	-0.456909	0.049805	0.999998	-0.001460	0.000065	0.000671	
40546	    0	5.516466	-28.916222	8.028948	1.652358	0.668916	-0.154688	0.055203	-0.289854	0.077712	0.999960	0.008262	0.003345	-0.000773	
40547	    0	-0.443669	-11.390323	9.441474	2.363655	0.828767	-0.815606	-0.004517	-0.114990	0.093079	0.999913	0.011818	0.004144	-0.004078	
40548	    0	0.599626	-0.394991	9.054717	2.303565	0.746937	-0.652521	0.006319	-0.005013	0.090470	0.999921	0.011518	0.003735	-0.003263	
40549	    0	7.347326	5.161787	5.920048	1.606198	0.613411	0.182345	0.073608	0.051208	0.059387	0.999962	0.008031	0.003067	0.000912	
40550	    0	12.006316	5.640579	6.730609	0.075341	0.595667	0.743106	0.120052	0.056827	0.066970	0.999989	0.000377	0.002978	0.003716	
40551	    0	13.275153	5.759803	6.917872	-1.515794	0.567636	1.084917	0.132629	0.058838	0.068359	0.999952	-0.007579	0.002838	0.005424	
40552	    0	12.887005	2.616291	4.614124	-2.981511	0.400561	1.339782	0.128779	0.027707	0.045478	0.999864	-0.014907	0.002003	0.006699	
40553	    0	9.475562	1.211879	-1.003258	-3.888788	0.086218	1.379492	0.094666	0.012573	-0.010315	0.999786	-0.019443	0.000431	0.006897	
40554	    0	8.017867	1.369631	-6.846904	-3.622471	-0.093275	1.340759	0.080122	0.012991	-0.068671	0.999813	-0.018111	-0.000466	0.006703	
40555	    0	14.990463	-1.495651	-9.466236	-2.021649	-0.038911	1.359592	0.150024	-0.014893	-0.094482	0.999926	-0.010108	-0.000195	0.006798	
40556	    0	31.032496	-7.201615	-10.708700	-0.047684	0.053216	1.775956	0.310920	-0.069283	-0.107153	0.999960	-0.000238	0.000266	0.008880	
40557	    0	44.230756	-11.641443	-12.690038	1.114127	-0.394455	2.855796	0.444153	-0.109375	-0.126648	0.999880	0.005570	-0.001972	0.014278	
40558	    0	40.132291	-10.506737	-15.314292	1.230327	-0.159466	3.925791	0.403392	-0.096219	-0.153432	0.999787	0.006151	-0.000797	0.019628	
40559	    0	27.698177	-0.744803	-10.746654	1.961129	0.344881	4.307197	0.276855	-0.000427	-0.107971	0.999718	0.009805	0.001724	0.021534	
40560	    0	22.811645	6.367051	-11.363137	2.912266	0.226236	4.194335	0.226563	0.070081	-0.112899	0.999673	0.014560	0.001131	0.020969	
40561	    0	26.705106	15.354945	-14.301414	2.677427	0.120747	4.156155	0.263672	0.160950	-0.141052	0.999694	0.013386	0.000604	0.020779	
40562	    0	31.656291	26.082472	-18.502193	1.971465	0.236728	4.781113	0.309962	0.270097	-0.182759	0.999664	0.009856	0.001184	0.023903	
40563	    0	26.603164	27.920447	-17.754580	1.303274	0.913551	5.419879	0.257507	0.287415	-0.176880	0.999600	0.006516	0.004567	0.027096	
40564	    0	19.376030	25.746711	-12.530960	0.554545	1.337242	5.670785	0.185512	0.263154	-0.125844	0.999572	0.002772	0.006685	0.028350	
40565	    0	14.066403	24.829930	-8.682500	-0.201256	1.201048	5.887728	0.132751	0.252197	-0.087891	0.999548	-0.001006	0.006004	0.029434	
40566	    0	9.599546	23.289457	-5.643180	-0.731197	1.003226	5.891164	0.088799	0.235372	-0.057747	0.999546	-0.003655	0.005015	0.029451	
40567	    0	6.089674	20.480001	-3.320487	-0.791083	0.992717	5.515262	0.055054	0.206238	-0.034302	0.999599	-0.003955	0.004963	0.027573	
40568	    0	3.367989	17.477368	-1.922121	-0.577413	1.185729	4.765805	0.029387	0.175451	-0.019910	0.999694	-0.002887	0.005928	0.023827	
40569	    0	1.365242	16.391705	-2.205827	-0.603336	1.580920	3.704327	0.010437	0.164062	-0.022644	0.999792	-0.003016	0.007904	0.018520	
40570	    0	-1.185133	19.558208	-1.927796	-0.816959	2.164760	2.608241	-0.014613	0.195323	-0.019928	0.999847	-0.004085	0.010823	0.013041	
40571	    0	-4.598581	22.643239	1.288081	-0.411811	2.216419	1.884528	-0.047974	0.226013	0.012939	0.999891	-0.002059	0.011082	0.009422	
40572	    0	-8.608446	16.759728	3.905445	0.921467	1.630449	1.878603	-0.087326	0.166596	0.040532	0.999911	0.004607	0.008152	0.009393	
40573	    0	-10.365129	5.096268	8.996955	2.491869	0.685340	1.937950	-0.103821	0.048828	0.090942	0.999869	0.012459	0.003427	0.009689	
40574	    0	-9.981396	2.819993	6.155855	2.168347	-0.344097	1.807274	-0.100165	0.026628	0.061681	0.999898	0.010841	-0.001720	0.009036	
40575	    0	-8.113184	5.522007	3.861997	2.145448	-0.350009	1.481671	-0.081604	0.054199	0.039062	0.999913	0.010727	-0.001750	0.007408	
40576	    0	0.639862	-0.003312	-0.133576	2.401230	-0.947217	0.511184	0.006405	-0.000001	-0.001306	0.999913	0.012006	-0.004736	0.002556	
40577	    0	10.359205	-2.220123	-4.080601	-0.594153	-2.171377	-0.741595	0.103943	-0.022705	-0.039612	0.999929	-0.002971	-0.010857	-0.003708	
40578	    0	6.066870	-7.973199	4.523260	0.648337	-3.134869	-0.745998	0.059654	-0.080104	0.045914	0.999865	0.003242	-0.015674	-0.003730	
40579	    0	5.026921	-17.293620	-2.905934	2.211258	-1.536608	0.466933	0.050903	-0.172485	-0.030579	0.999907	0.011056	-0.007683	0.002335	
40580	    0	7.096375	-23.029669	-5.019777	1.777706	-0.475517	2.087660	0.073482	-0.229081	-0.052065	0.999903	0.008888	-0.002378	0.010438	
40581	    0	7.784323	-17.444550	-4.322700	1.285579	0.692191	1.623567	0.079102	-0.173523	-0.044617	0.999940	0.006428	0.003461	0.008118	
40582	    0	6.478251	-0.939173	6.631259	-0.233464	2.110333	0.535785	0.065502	-0.009140	0.065635	0.999940	-0.001167	0.010551	0.002679	
40583	    0	4.395703	6.050562	7.698740	-1.202221	1.477838	-0.511178	0.044678	0.060852	0.076294	0.999950	-0.006011	0.007389	-0.002556	
40584	    0	-1.971792	9.838405	-0.952663	-0.875107	1.236175	-1.398493	-0.019090	0.098476	-0.009838	0.999947	-0.004375	0.006181	-0.006992	
40585	    0	-9.583049	11.346266	-0.789660	-0.830686	1.947104	-2.383524	-0.094543	0.114563	-0.007446	0.999872	-0.004153	0.009735	-0.011917	
40586	    0	-8.859416	16.619364	11.449056	-3.966601	1.149120	-3.284835	-0.085177	0.169845	0.111642	0.999652	-0.019831	0.005745	-0.016422	
40587	    0	13.319184	0.597439	-1.356028	-4.533917	-0.721634	-2.650762	0.133301	0.003906	-0.013184	0.999648	-0.022667	-0.003608	-0.013252	
40588	    0	71.359885	-37.741791	-4.345303	-0.914973	-0.993367	1.721416	0.717011	-0.371439	-0.038189	0.999940	-0.004575	-0.004967	0.008607	
40589	    0	61.756409	-67.837112	-16.734535	1.217169	-3.340397	2.270676	0.627930	-0.670288	-0.161011	0.999777	0.006085	-0.016701	0.011353	
40590	    0	-0.472762	-14.138787	-8.814550	-0.707071	-1.130512	-1.955459	-0.005615	-0.141646	-0.087675	0.999929	-0.003535	-0.005652	-0.009777	
40591	    0	-16.661223	34.068535	7.330400	0.653313	-1.898328	-3.604382	-0.161133	0.343384	0.072876	0.999786	0.003266	-0.009491	-0.018021	
40592	    0	-26.980222	66.851682	-11.058475	0.890935	0.218967	-1.560805	-0.264690	0.671079	-0.107307	0.999959	0.004455	0.001095	-0.007804	
40593	    0	-6.534819	53.274126	-5.056870	-0.126650	-0.383573	-1.787592	-0.060486	0.533264	-0.051025	0.999957	-0.000633	-0.001918	-0.008938	
40594	    0	20.763549	24.502546	-6.857537	-2.041958	-1.131708	-3.342288	0.212076	0.240797	-0.069857	0.999792	-0.010209	-0.005658	-0.016710	
40595	    0	25.262883	8.968438	-7.448366	-4.011643	-0.855250	-5.936194	0.255432	0.080627	-0.075073	0.999349	-0.020054	-0.004275	-0.029675	
40596	    0	26.387959	11.741693	-3.338685	-2.389749	-0.502483	-5.964167	0.267301	0.109075	-0.034055	0.999480	-0.011947	-0.002512	-0.029816	
40597	    0	25.015002	-4.100753	-9.129570	-0.874356	-0.716994	-2.472763	0.249939	-0.044495	-0.090210	0.999907	-0.004372	-0.003585	-0.012363	
40598	    0	19.452020	-1.332369	-10.850995	-0.721570	-0.897051	-2.321308	0.194829	-0.015973	-0.107582	0.999916	-0.003608	-0.004485	-0.011606	
40599	    0	18.293714	2.940253	-8.237318	1.003311	-0.553728	-3.093097	0.183594	0.026978	-0.081726	0.999864	0.005016	-0.002769	-0.015465	
40600	    0	18.879234	-3.687219	-7.410732	2.930204	-1.378785	-4.029341	0.188520	-0.039594	-0.073374	0.999665	0.014649	-0.006893	-0.020144	
40601	    0	24.800515	-6.607881	-9.620445	3.606966	-1.799858	-4.516528	0.247314	-0.069946	-0.095215	0.999541	0.018032	-0.008998	-0.022579	
40602	    0	28.219933	-3.512655	-6.611857	3.148525	-1.618615	-4.635705	0.281826	-0.040639	-0.064447	0.999575	0.015740	-0.008092	-0.023175	
40603	    0	22.344887	-2.868336	0.457732	2.382953	-1.275601	-4.710204	0.222656	-0.033997	0.005615	0.999631	0.011913	-0.006377	-0.023548	
40604	    0	13.913495	-0.718805	6.618887	1.403773	-1.474925	-4.738570	0.138412	-0.010942	0.067143	0.999667	0.007018	-0.007374	-0.023690	
40605	    0	13.720110	1.423547	6.833020	0.459338	-1.516693	-4.777268	0.136963	0.010803	0.069397	0.999682	0.002296	-0.007583	-0.023884	
40606	    0	18.968659	-1.865325	4.774184	-1.124119	-1.108477	-4.774597	0.188905	-0.022897	0.048911	0.999683	-0.005620	-0.005542	-0.023870	
40607	    0	19.248990	-6.300440	2.933230	-2.771339	-0.733848	-4.632378	0.190857	-0.067017	0.030945	0.999629	-0.013855	-0.003669	-0.023159	
40608	    0	16.020390	-12.743309	3.014646	-3.768265	-0.475182	-4.082255	0.157491	-0.130063	0.032957	0.999611	-0.018839	-0.002376	-0.020409	
40609	    0	11.297060	-21.482094	2.872424	-3.633472	-0.353085	-3.170322	0.109497	-0.216003	0.032837	0.999707	-0.018166	-0.001765	-0.015850	
40610	    0	8.663005	-34.235803	4.607458	-2.792309	-0.467515	-2.035053	0.083030	-0.342525	0.051053	0.999847	-0.013961	-0.002337	-0.010175	
40611	    0	7.602480	-45.907440	9.344596	-2.699949	-0.588248	-1.008642	0.073425	-0.458130	0.099854	0.999891	-0.013499	-0.002941	-0.005043	
40612	    0	6.028394	-51.505278	9.475852	-1.822879	-0.239948	-0.159075	0.059757	-0.514208	0.099520	0.999957	-0.009114	-0.001200	-0.000795	
40613	    0	5.284290	-42.009427	8.623800	0.042725	0.332833	0.257874	0.053528	-0.420044	0.086060	0.999997	0.000214	0.001664	0.001289	
40614	    0	4.947131	-27.683344	10.090170	1.611349	0.704965	0.071908	0.049921	-0.277616	0.098492	0.999961	0.008057	0.003525	0.000360	
40615	    0	5.600340	-14.344078	10.331130	2.691740	0.828770	0.128941	0.056519	-0.144775	0.101135	0.999900	0.013458	0.004144	0.000645	
40616	    0	8.724682	-5.280857	8.364191	2.846445	0.814088	0.640131	0.087755	-0.053708	0.082525	0.999885	0.014232	0.004070	0.003201	
40617	    0	11.748184	1.087310	7.801277	1.576450	0.784315	0.923172	0.117737	0.010803	0.077637	0.999950	0.007882	0.003922	0.004616	
40618	    0	13.634231	6.462302	5.211562	-0.062752	0.715070	1.046951	0.136187	0.065352	0.051608	0.999979	-0.000314	0.003575	0.005235	
40619	    0	15.100752	7.736903	-0.959969	-1.630434	0.510607	1.358059	0.150452	0.078308	-0.010620	0.999940	-0.008152	0.002553	0.006790	
40620	    0	18.674473	7.651313	-6.355735	-2.898351	0.270856	1.645356	0.186025	0.077111	-0.064924	0.999860	-0.014491	0.001354	0.008226	
40621	    0	26.312742	4.348681	-8.735170	-3.262335	0.139626	1.951717	0.262634	0.044617	-0.088257	0.999819	-0.016311	0.000698	0.009758	
40622	    0	33.993650	-4.173203	-10.582826	-2.357225	0.168237	2.636284	0.340369	-0.038493	-0.105648	0.999843	-0.011786	0.000841	0.013181	
40623	    0	35.975600	-13.014527	-10.071869	-0.898028	0.139053	3.470798	0.361877	-0.124329	-0.100403	0.999839	-0.004490	0.000695	0.017353	
40624	    0	31.978361	-13.271854	-8.325417	0.325797	-0.078016	4.021345	0.322396	-0.126118	-0.083338	0.999796	0.001629	-0.000390	0.020105	
40625	    0	27.622010	-5.309627	-8.561494	1.628247	-0.274490	4.120974	0.277344	-0.046692	-0.085632	0.999753	0.008141	-0.001372	0.020603	
40626	    0	26.830554	4.326878	-13.141843	2.294558	-0.228712	4.053102	0.267485	0.050197	-0.130563	0.999727	0.011472	-0.001143	0.020264	
40627	    0	31.346387	16.685416	-17.053960	2.162563	0.095376	4.209530	0.309753	0.175232	-0.168823	0.999720	0.010812	0.000477	0.021046	
40628	    0	34.151160	29.165086	-20.141682	1.779376	0.487764	4.868676	0.333761	0.301620	-0.199583	0.999660	0.008896	0.002439	0.024341	
40629	    0	25.911815	31.030690	-18.184194	0.982042	1.358415	5.574823	0.249084	0.318237	-0.182007	0.999576	0.004910	0.006791	0.027870	
40630	    0	17.409829	28.883615	-11.561757	0.125715	1.920070	6.058569	0.164124	0.293983	-0.117042	0.999495	0.000628	0.009599	0.030288	
40631	    0	11.604654	26.373920	-6.460180	-0.645564	1.607996	6.363305	0.107056	0.267029	-0.066345	0.999455	-0.003227	0.008039	0.031811	
40632	    0	7.366125	24.276220	-4.539289	-1.127438	1.164257	6.241735	0.065774	0.244635	-0.047167	0.999479	-0.005636	0.005820	0.031203	
40633	    0	4.646346	21.131115	-3.906812	-1.236718	0.991206	5.758760	0.040161	0.212280	-0.040588	0.999554	-0.006183	0.004955	0.028790	
40634	    0	2.528962	18.284343	-3.835230	-1.121838	1.214545	4.920558	0.020548	0.183168	-0.039514	0.999662	-0.005609	0.006072	0.024600	
40635	    0	0.416035	18.540445	-4.641800	-1.071827	1.832731	3.893599	0.000122	0.185181	-0.047424	0.999754	-0.005359	0.009163	0.019466	
40636	    0	-3.145195	23.367689	-2.940578	-1.107674	2.368709	3.113198	-0.035438	0.232980	-0.030293	0.999793	-0.005538	0.011843	0.015565	
40637	    0	-7.073919	22.494397	-1.297971	-0.951244	2.203484	2.592603	-0.073792	0.223938	-0.013245	0.999844	-0.004756	0.011017	0.012962	
40638	    0	-10.918876	10.638042	7.273887	1.035921	1.396424	2.493001	-0.109986	0.104631	0.074050	0.999884	0.005179	0.006982	0.012465	
40639	    0	-11.741477	1.198513	9.815219	3.073294	-0.071530	2.039453	-0.117554	0.009277	0.098267	0.999829	0.015366	-0.000358	0.010197	
40640	    0	-10.690226	3.439058	2.539235	2.941277	-0.428602	1.731958	-0.107247	0.033087	0.025656	0.999851	0.014706	-0.002143	0.008659	
40641	    0	-5.192276	2.998086	1.942420	3.310557	-0.064662	0.904128	-0.052063	0.029419	0.019897	0.999852	0.016552	-0.000323	0.004520	
40642	    0	3.816545	2.336839	-3.877043	1.677159	-1.037042	0.183681	0.038343	0.023726	-0.038374	0.999950	0.008386	-0.005185	0.000918	
40643	    0	9.549104	-4.788990	4.504177	1.895226	-2.638172	-0.423450	0.094788	-0.048523	0.045837	0.999866	0.009476	-0.013190	-0.002117	
40644	    0	8.324035	-16.997093	1.155913	2.475673	-2.422836	-0.326555	0.082831	-0.170240	0.010458	0.999848	0.012378	-0.012114	-0.001633	
40645	    0	7.836494	-14.237657	1.452805	3.437214	-0.167664	0.363940	0.078613	-0.142456	0.012146	0.999850	0.017185	-0.000838	0.001820	
40646	    0	4.380245	-8.466387	-2.641824	3.011284	0.203143	1.743023	0.044508	-0.083867	-0.027730	0.999847	0.015056	0.001016	0.008715	
40647	    0	3.797017	-2.854924	-5.368940	1.210230	0.823223	1.096359	0.037903	-0.028015	-0.054016	0.999958	0.006051	0.004116	0.005482	
40648	    0	4.789550	1.414197	0.238994	-0.081445	1.898604	-0.246052	0.047933	0.014084	0.001929	0.999953	-0.000407	0.009493	-0.001230	
40649	    0	3.465143	4.556108	0.352665	0.583860	2.430811	-1.508385	0.035034	0.045288	0.003235	0.999893	0.002919	0.012154	-0.007542	
40650	    0	-3.781616	11.857185	3.985574	0.081449	2.425729	-3.051951	-0.035514	0.119109	0.040344	0.999809	0.000407	0.012128	-0.015259	
40651	    0	-8.636219	18.696089	11.076007	-2.631640	1.032550	-3.984466	-0.082031	0.190063	0.108704	0.999701	-0.013157	0.005162	-0.019920	
40652	    0	3.281393	5.395994	2.879812	-3.495213	-0.573030	-3.666893	0.033721	0.053841	0.027952	0.999675	-0.017474	-0.002865	-0.018332	
40653	    0	41.829931	-19.961141	-3.948753	-1.968227	-0.164798	-0.421913	0.417908	-0.200867	-0.037170	0.999949	-0.009841	-0.000824	-0.002110	
40654	    0	86.938789	-68.915999	-11.463668	2.564935	-2.989181	3.720166	0.883657	-0.671378	-0.110187	0.999633	0.012823	-0.014944	0.018599	
40655	    0	18.469387	-40.398603	-24.647098	1.803650	-2.206305	-0.174719	0.187073	-0.401917	-0.248047	0.999898	0.009018	-0.011031	-0.000874	
40656	    0	-9.246703	22.198743	1.582232	0.268386	-2.086046	-3.887493	-0.088290	0.223710	0.015186	0.999755	0.001342	-0.010429	-0.019436	
40657	    0	-25.312803	64.542051	-19.091434	0.753821	-1.742449	-2.862690	-0.242188	0.649658	-0.190613	0.999852	0.003769	-0.008712	-0.014313	
40658	    0	-25.104859	68.363673	-9.502620	-0.684173	0.070000	-1.444260	-0.246139	0.685096	-0.097281	0.999968	-0.003421	0.000350	-0.007221	
40659	    0	16.579977	33.740988	-6.901327	-2.175822	-1.194823	-2.423217	0.170288	0.334595	-0.071655	0.999849	-0.010879	-0.005974	-0.012115	
40660	    0	31.148562	7.293934	-5.430082	-5.066641	-0.854106	-5.092778	0.313417	0.063592	-0.054655	0.999346	-0.025328	-0.004270	-0.025458	
40661	    0	34.697904	4.485473	1.186687	-3.230189	-0.230264	-6.247474	0.348145	0.034180	0.011658	0.999381	-0.016148	-0.001151	-0.031231	
40662	    0	30.356999	-5.996507	-1.509777	-0.959624	-0.723867	-2.792657	0.302744	-0.064264	-0.013700	0.999884	-0.004798	-0.003619	-0.013963	
40663	    0	16.233758	-2.678362	-5.907611	-0.191313	-1.012450	-2.426218	0.162292	-0.028809	-0.058228	0.999912	-0.000957	-0.005062	-0.012131	
40664	    0	14.733199	4.535576	-5.290265	1.284093	-1.211038	-3.029788	0.148315	0.043448	-0.051723	0.999846	0.006420	-0.006055	-0.015148	
40665	    0	15.601089	1.919540	-5.734501	2.415897	-1.564182	-3.950131	0.156799	0.016785	-0.055908	0.999701	0.012078	-0.007820	-0.019749	
40666	    0	22.426674	0.780526	-8.657886	2.152497	-1.770221	-4.425362	0.225134	0.003747	-0.084534	0.999658	0.010761	-0.008850	-0.022124	
40667	    0	30.175711	0.971558	-7.849361	1.489579	-1.265064	-4.144650	0.302368	0.004028	-0.076538	0.999737	0.007447	-0.006325	-0.020721	
40668	    0	25.334048	-1.727242	1.337606	0.803623	-0.852645	-3.953832	0.252872	-0.022331	0.014372	0.999787	0.004018	-0.004263	-0.019768	
40669	    0	13.080795	-5.642882	6.875023	0.570722	-1.441874	-3.974453	0.129150	-0.059204	0.069519	0.999772	0.002853	-0.007209	-0.019871	
40670	    0	11.513900	-8.111833	6.062332	0.148975	-1.565481	-3.995821	0.113008	-0.083436	0.061452	0.999769	0.000745	-0.007827	-0.019978	
40671	    0	16.521885	-7.410956	5.124284	-1.200769	-1.261999	-3.939361	0.163391	-0.077026	0.052734	0.999767	-0.006003	-0.006310	-0.019695	
40672	    0	16.934034	-7.084003	5.286534	-2.165779	-1.063433	-3.692926	0.167714	-0.073362	0.054545	0.999756	-0.010828	-0.005317	-0.018463	
40673	    0	13.966251	-12.473694	5.233581	-2.758808	-0.894233	-3.135156	0.137451	-0.126160	0.054688	0.999771	-0.013793	-0.004471	-0.015675	
40674	    0	10.568697	-19.509654	4.314476	-3.202673	-0.862185	-2.564809	0.102983	-0.195700	0.046723	0.999780	-0.016012	-0.004311	-0.012823	
40675	    0	6.359619	-26.653988	2.062365	-3.454632	-1.111678	-1.729700	0.061157	-0.266663	0.025574	0.999798	-0.017272	-0.005558	-0.008648	
40676	    0	5.063980	-34.604629	2.571381	-3.670921	-0.931226	-0.793507	0.049128	-0.345691	0.032292	0.999812	-0.018353	-0.004656	-0.003967	
40677	    0	5.323618	-41.067494	3.261901	-2.631264	-0.255592	-0.073244	0.053040	-0.410217	0.038086	0.999912	-0.013156	-0.001278	-0.000366	
40678	    0	4.795083	-37.825850	6.405594	-1.337445	0.614553	-0.013924	0.048126	-0.377823	0.066436	0.999972	-0.006687	0.003073	-0.000070	
40679	    0	2.068493	-27.055691	9.313600	-0.605014	0.799755	-0.498202	0.020386	-0.270325	0.093872	0.999984	-0.003025	0.003999	-0.002491	
40680	    0	1.564459	-13.491210	10.239460	-0.278856	0.790218	-0.674823	0.015594	-0.134822	0.102521	0.999985	-0.001394	0.003951	-0.003374	
40681	    0	4.044663	-7.781105	5.835853	0.113869	0.728609	-0.180817	0.040588	-0.077881	0.058167	0.999992	0.000569	0.003643	-0.000904	
40682	    0	7.478762	-6.498225	3.845359	-0.337983	0.593950	0.411798	0.075035	-0.064763	0.038341	0.999991	-0.001690	0.002970	0.002059	
40683	    0	9.183589	-3.800519	3.331610	-0.451471	0.563814	0.590517	0.092041	-0.037659	0.033142	0.999989	-0.002257	0.002819	0.002953	
40684	    0	9.886003	-2.929093	1.420639	-0.632289	0.521853	0.684360	0.098996	-0.028908	0.014040	0.999986	-0.003161	0.002609	0.003422	
40685	    0	10.679007	-3.701100	-2.020374	-0.773626	0.377848	0.990303	0.106934	-0.036560	-0.020264	0.999978	-0.003868	0.001889	0.004951	
40686	    0	10.824674	-3.452238	-6.125726	-0.600820	0.180818	1.329434	0.108418	-0.033986	-0.061253	0.999972	-0.003004	0.000904	0.006647	
40687	    0	14.189996	-3.663925	-8.130529	-0.031090	0.084687	1.589983	0.142151	-0.035522	-0.081360	0.999968	-0.000155	0.000423	0.007950	
40688	    0	24.336353	-5.617991	-9.039796	0.368125	-0.091745	1.980052	0.243944	-0.053600	-0.090386	0.999949	0.001841	-0.000459	0.009900	
40689	    0	36.510530	-5.595969	-11.099212	0.512712	-0.256928	2.743620	0.365967	-0.050659	-0.110657	0.999902	0.002563	-0.001285	0.013718	
40690	    0	38.447666	-6.017791	-11.934057	0.731889	-0.263037	3.489489	0.385600	-0.053020	-0.119037	0.999840	0.003659	-0.001315	0.017447	
40691	    0	27.756943	-2.820569	-9.788299	1.415346	-0.111206	3.723391	0.278076	-0.022339	-0.097900	0.999801	0.007076	-0.000556	0.018616	
40692	    0	20.549648	1.616728	-9.230513	2.161956	-0.251980	3.722479	0.205252	0.020984	-0.091837	0.999767	0.010809	-0.001260	0.018611	
40693	    0	22.958990	7.354708	-10.887724	2.543287	-0.252555	3.762379	0.228271	0.079224	-0.107605	0.999741	0.012715	-0.001263	0.018810	
40694	    0	31.706193	15.682800	-14.156729	2.243632	-0.188082	4.153066	0.313825	0.164940	-0.139451	0.999721	0.011217	-0.000940	0.020763	
40695	    0	33.385890	22.643775	-17.615028	1.617603	0.287849	4.765061	0.328064	0.235718	-0.174744	0.999682	0.008087	0.001439	0.023823	
40696	    0	24.514583	23.080395	-14.602412	0.919257	1.119743	5.058109	0.238376	0.237562	-0.146290	0.999654	0.004596	0.005598	0.025288	
40697	    0	16.761554	22.204748	-8.958416	0.408415	1.404749	5.306914	0.161011	0.226562	-0.090271	0.999620	0.002042	0.007023	0.026531	
40698	    0	11.730631	20.292354	-5.853624	-0.064095	1.135778	5.366044	0.111472	0.205948	-0.059246	0.999623	-0.000320	0.005678	0.026827	
40699	    0	8.809588	17.964933	-4.196588	-0.340308	0.917343	5.001609	0.083374	0.181702	-0.042664	0.999675	-0.001701	0.004586	0.025005	
40700	    0	6.296088	15.802194	-3.011384	-0.169387	1.043982	4.425240	0.059286	0.159335	-0.030564	0.999741	-0.000847	0.005219	0.022124	
40701	    0	3.714335	14.007803	-1.733746	0.164996	1.327601	3.705837	0.034424	0.140747	-0.017456	0.999805	0.000825	0.006638	0.018528	
40702	    0	1.724393	14.087112	-1.761285	0.216684	1.600717	2.819567	0.015115	0.141113	-0.017587	0.999867	0.001083	0.008003	0.014097	
40703	    0	0.548520	16.345509	-1.515384	0.222785	1.973214	1.899016	0.003784	0.163513	-0.015015	0.999906	0.001114	0.009866	0.009495	
40704	    0	-1.325892	20.274357	-2.444220	0.004959	2.160127	1.187927	-0.014726	0.202660	-0.024283	0.999924	0.000025	0.010800	0.005939	
40705	    0	-4.699270	19.620148	1.876363	0.881980	1.897669	1.316104	-0.048096	0.195801	0.020081	0.999923	0.004410	0.009488	0.006580	
40706	    0	-5.642823	8.334702	8.365457	2.495307	1.372972	1.667289	-0.056534	0.081820	0.085070	0.999864	0.012476	0.006865	0.008336	
40707	    0	-3.595203	0.148792	12.250499	3.202428	0.302141	1.781564	-0.035767	-0.000793	0.122559	0.999830	0.016011	0.001511	0.008907	
40708	    0	-0.977788	-1.329426	5.216925	2.502742	-0.689346	1.948633	-0.009823	-0.014041	0.051963	0.999867	0.012513	-0.003447	0.009743	
40709	    0	3.475306	-4.065969	2.208436	2.197343	-1.221318	1.441243	0.034912	-0.040649	0.021851	0.999894	0.010986	-0.006106	0.007206	
40710	    0	6.897136	-5.127274	-5.537299	0.280386	-2.154968	0.600255	0.069716	-0.050987	-0.054696	0.999936	0.001402	-0.010775	0.003001	
40711	    0	8.095045	-0.878237	1.736308	-0.367750	-2.910528	0.051882	0.080688	-0.008728	0.018555	0.999892	-0.001839	-0.014552	0.000259	
40712	    0	3.974555	-9.356216	5.777474	2.242244	-3.316347	0.824223	0.039179	-0.094045	0.057375	0.999791	0.011210	-0.016581	0.004121	
40713	    0	4.695246	-9.477264	-3.901105	1.654870	-1.262516	1.899019	0.048096	-0.093994	-0.039490	0.999900	0.008274	-0.006312	0.009495	
40714	    0	1.028009	-3.702237	-10.642725	-1.040489	0.026131	2.429079	0.010719	-0.037447	-0.106235	0.999912	-0.005202	0.000131	0.012145	
40715	    0	3.384705	0.797051	-4.951919	-1.379238	1.375614	1.464117	0.033447	0.007874	-0.049805	0.999926	-0.006896	0.006878	0.007320	
40716	    0	4.136565	1.276224	3.630697	-1.993823	2.117232	-0.296603	0.041765	0.013059	0.035737	0.999892	-0.009969	0.010586	-0.001483	
40717	    0	1.026696	1.595989	1.249610	-2.200441	2.164772	-1.989095	0.010559	0.015991	0.012207	0.999831	-0.011002	0.010823	-0.009945	
40718	    0	-3.986536	3.169832	3.172857	-0.951636	2.488292	-2.822099	-0.039014	0.032405	0.032064	0.999811	-0.004758	0.012441	-0.014110	
40719	    0	-3.949650	-1.679415	11.552340	-0.858926	1.605312	-3.128986	-0.038818	-0.015686	0.115906	0.999836	-0.004294	0.008026	-0.015644	
40720	    0	14.972938	-13.413723	8.087019	-1.114127	-0.552390	-2.825277	0.147593	-0.135777	0.082033	0.999881	-0.005570	-0.002762	-0.014126	
40721	    0	72.452773	-36.029874	-9.563047	1.178792	-2.334505	1.884542	0.728943	-0.352905	-0.089233	0.999869	0.005894	-0.011672	0.009422	
40722	    0	51.360303	-50.712097	-17.076490	1.471008	-2.338887	1.485504	0.519323	-0.502033	-0.168419	0.999877	0.007355	-0.011694	0.007427	
40723	    0	3.893469	4.394014	-1.027315	1.141382	-0.692573	-1.821175	0.039368	0.043640	-0.009888	0.999936	0.005707	-0.003463	-0.009106	
40724	    0	-12.690605	58.530148	-2.227808	0.210391	-1.364588	-3.244568	-0.117236	0.587279	-0.022483	0.999845	0.001052	-0.006823	-0.016222	
40725	    0	-30.186190	84.016264	-14.254217	-2.047590	0.261695	-1.334415	-0.296448	0.840637	-0.150757	0.999924	-0.010238	0.001308	-0.006672	
40726	    0	5.953127	46.482707	-5.537070	-2.431246	-0.873616	-2.663193	0.065965	0.463261	-0.060730	0.999827	-0.012156	-0.004368	-0.013315	
40727	    0	21.049389	8.202327	-6.985664	-4.953672	-0.528809	-4.102274	0.212280	0.075928	-0.071228	0.999479	-0.024764	-0.002644	-0.020508	
40728	    0	25.374729	-1.229289	-3.776421	-4.167553	-0.185055	-6.107578	0.253233	-0.020811	-0.037155	0.999316	-0.020833	-0.000925	-0.030531	
40729	    0	34.354677	-3.309392	-3.398464	-0.885816	-0.466751	-3.285379	0.343018	-0.038879	-0.033020	0.999852	-0.004429	-0.002334	-0.016426	
40730	    0	25.427335	-6.924122	-12.071778	0.339135	-0.784703	-2.329695	0.253917	-0.071997	-0.119842	0.999923	0.001696	-0.003923	-0.011648	
40731	    0	20.779622	2.264079	-11.024968	0.586723	-0.605607	-2.944298	0.208435	0.019897	-0.109558	0.999883	0.002934	-0.003028	-0.014721	
40732	    0	14.065508	0.457231	-9.542289	2.275085	-0.830910	-3.765039	0.141116	0.002999	-0.094797	0.999749	0.011374	-0.004154	-0.018824	
40733	    0	14.902260	-3.353950	-8.641621	3.435431	-1.445212	-4.485194	0.148865	-0.035400	-0.085938	0.999575	0.017175	-0.007225	-0.022423	
40734	    0	23.655569	-0.839397	-11.383724	3.241041	-1.663824	-4.527348	0.237249	-0.011934	-0.112040	0.999578	0.016203	-0.008318	-0.022634	
40735	    0	28.887953	-1.720311	-7.025891	2.660865	-1.294856	-4.319494	0.288879	-0.022522	-0.068665	0.999657	0.013303	-0.006474	-0.021595	
40736	    0	22.294614	-4.403280	1.451469	1.928152	-1.181346	-4.510023	0.221786	-0.049189	0.015369	0.999681	0.009640	-0.005906	-0.022548	
40737	    0	14.383261	-5.952522	7.433288	1.613807	-1.658635	-4.786483	0.141724	-0.063538	0.075012	0.999646	0.008068	-0.008292	-0.023930	
40738	    0	13.096737	-3.440103	6.860864	1.082737	-1.633644	-4.913903	0.129498	-0.037970	0.069471	0.999650	0.005413	-0.008167	-0.024567	
40739	    0	14.343784	-1.551933	7.698148	-0.015070	-1.257456	-4.856619	0.142517	-0.018982	0.077881	0.999685	-0.000075	-0.006287	-0.024281	
40740	    0	14.503648	-1.745344	5.014604	-1.185344	-1.259166	-4.561495	0.144273	-0.020449	0.051171	0.999702	-0.005926	-0.006295	-0.022805	
40741	    0	13.877417	-7.063071	2.291365	-2.054587	-1.100256	-3.971451	0.137207	-0.073120	0.024414	0.999735	-0.010272	-0.005501	-0.019855	
40742	    0	12.728211	-17.691477	1.699219	-2.393692	-1.075244	-3.021823	0.124491	-0.178584	0.019797	0.999800	-0.011968	-0.005376	-0.015108	
40743	    0	12.846783	-33.154976	5.138706	-2.651345	-1.063399	-1.914309	0.125000	-0.332031	0.056458	0.999852	-0.013256	-0.005317	-0.009571	
40744	    0	11.797891	-46.597584	9.779406	-2.919519	-0.780331	-1.288663	0.114579	-0.465223	0.105041	0.999865	-0.014597	-0.003901	-0.006443	
40745	    0	6.102358	-51.438004	7.987925	-2.244624	-0.565924	-0.782032	0.058777	-0.513672	0.085815	0.999925	-0.011223	-0.002830	-0.003910	
40746	    0	2.858029	-45.681861	7.330257	-0.497819	-0.132752	-0.204659	0.028064	-0.456663	0.074458	0.999995	-0.002489	-0.000664	-0.001023	
40747	    0	3.389275	-32.030980	8.995088	1.559657	0.633247	0.080873	0.034302	-0.320984	0.087341	0.999964	0.007798	0.003166	0.000404	
40748	    0	-1.444276	-16.546500	8.966899	2.565848	0.864629	-0.647184	-0.014599	-0.166551	0.087600	0.999903	0.012829	0.004323	-0.003236	
40749	    0	-1.607487	-1.420700	10.566311	1.898234	0.865383	-0.919362	-0.015686	-0.015137	0.105591	0.999934	0.009491	0.004327	-0.004597	
40750	    0	6.159059	5.817405	8.097818	0.719646	0.781826	-0.134087	0.061946	0.057841	0.080945	0.999985	0.003598	0.003909	-0.000670	
40751	    0	14.964413	6.138693	7.278275	-0.548367	0.708776	0.978096	0.149597	0.062317	0.072083	0.999977	-0.002742	0.003544	0.004890	
40752	    0	17.041622	4.451936	8.966832	-2.056751	0.523391	1.459734	0.170314	0.046679	0.088750	0.999917	-0.010283	0.002617	0.007298	
40753	    0	14.637674	2.587913	6.506736	-3.588335	0.250451	1.585490	0.146240	0.028198	0.064392	0.999806	-0.017941	0.001252	0.007927	
40754	    0	10.261014	0.740078	1.037887	-4.634176	-0.092706	1.589553	0.102541	0.008454	0.010239	0.999700	-0.023169	-0.000463	0.007947	
40755	    0	8.006857	1.946223	-6.401783	-4.480398	-0.275256	1.480240	0.080017	0.018616	-0.064331	0.999721	-0.022400	-0.001376	0.007401	
40756	    0	14.665105	-0.480894	-10.785232	-2.533242	-0.140767	1.522883	0.146765	-0.005056	-0.107686	0.999890	-0.012666	-0.000704	0.007614	
40757	    0	31.844079	-6.967285	-10.745039	0.329595	0.142100	1.976046	0.319031	-0.066345	-0.107788	0.999949	0.001648	0.000710	0.009880	
40758	    0	48.529915	-13.928123	-12.002813	2.082201	-0.685165	3.350291	0.487938	-0.129874	-0.119744	0.999799	0.010410	-0.003426	0.016750	
40759	    0	43.238921	-11.312648	-16.645923	1.871103	-0.518850	4.468215	0.435181	-0.101868	-0.166321	0.999702	0.009355	-0.002594	0.022339	
40760	    0	27.972294	-1.505757	-11.781958	1.952768	0.388760	4.740856	0.279727	-0.007272	-0.118460	0.999669	0.009763	0.001944	0.023702	
40761	    0	22.498406	6.611932	-9.713565	2.687405	0.493874	4.712497	0.223083	0.072693	-0.096741	0.999629	0.013435	0.002469	0.023560	
40762	    0	27.398443	16.357226	-12.281330	2.533260	0.288044	4.695306	0.269845	0.171481	-0.121065	0.999642	0.012665	0.001440	0.023474	
40763	    0	32.867528	27.429749	-17.884787	1.674282	0.236540	5.110786	0.321289	0.284058	-0.176880	0.999638	0.008370	0.001183	0.025551	
40764	    0	27.657112	29.590606	-16.809846	0.833433	0.995007	5.540832	0.267385	0.304100	-0.168188	0.999595	0.004167	0.004974	0.027700	
40765	    0	19.285355	28.055221	-10.918765	-0.084699	1.443889	5.828207	0.183777	0.285950	-0.110657	0.999549	-0.000423	0.007218	0.029137	
40766	    0	13.456414	25.995580	-7.458754	-0.964325	1.295878	6.109110	0.126058	0.263527	-0.076688	0.999500	-0.004821	0.006478	0.030540	
40767	    0	9.436457	22.718522	-5.418421	-1.574775	1.054556	5.991586	0.087219	0.229431	-0.056458	0.999506	-0.007873	0.005272	0.029953	
40768	    0	6.013296	19.928248	-3.851079	-1.498620	0.886849	5.492780	0.054461	0.200533	-0.040260	0.999584	-0.007492	0.004434	0.027460	
40769	    0	2.803679	17.044196	-3.463446	-1.113241	0.957013	4.689498	0.023865	0.170837	-0.035706	0.999698	-0.005566	0.004785	0.023445	
40770	    0	0.600977	15.716943	-3.964051	-0.906621	1.261410	3.601305	0.002928	0.157059	-0.040378	0.999807	-0.004533	0.006307	0.018005	
40771	    0	-1.564176	18.477823	-5.624090	-1.067207	1.800613	2.405650	-0.018372	0.184265	-0.057068	0.999872	-0.005336	0.009003	0.012028	
40772	    0	-5.028772	25.093550	-4.261769	-1.013981	2.135731	1.618631	-0.052775	0.250297	-0.043333	0.999897	-0.005070	0.010678	0.008093	
40773	    0	-8.821004	23.887890	0.205214	0.375375	1.780172	1.596871	-0.090088	0.238159	0.003296	0.999927	0.001877	0.008901	0.007984	
40774	    0	-10.647272	10.323279	6.043935	2.257431	0.724247	1.827880	-0.107183	0.101562	0.061979	0.999887	0.011287	0.003621	0.009139	
40775	    0	-8.052254	3.441560	7.313103	2.337729	-0.539989	1.636563	-0.080994	0.032898	0.073303	0.999894	0.011688	-0.002700	0.008183	
40776	    0	-5.642615	3.223616	2.643459	1.773880	-0.964190	1.464691	-0.056787	0.031587	0.026443	0.999922	0.008869	-0.004821	0.007323	
40777	    0	2.302013	-3.530070	5.112287	2.834635	-1.442782	0.633267	0.022766	-0.035950	0.050781	0.999868	0.014173	-0.007214	0.003166	
40778	    0	9.307507	-9.093302	-2.184576	0.838883	-2.858840	0.085643	0.093417	-0.090804	-0.020893	0.999888	0.004194	-0.014294	0.000428	
40779	    0	7.569196	-9.929503	4.392476	1.937439	-3.763862	-0.183882	0.074768	-0.099792	0.044373	0.999775	0.009686	-0.018818	-0.000919	
40780	    0	5.903510	-17.078903	-1.404308	4.450285	-1.985937	0.092516	0.059275	-0.170402	-0.017250	0.999702	0.022249	-0.009929	0.000463	
40781	    0	4.951927	-8.716710	-1.103855	4.457482	0.840261	0.637110	0.049744	-0.086731	-0.013184	0.999738	0.022285	0.004201	0.003185	
40782	    0	1.674273	-1.359630	-2.161788	2.864410	1.600156	1.176131	0.016646	-0.013186	-0.021942	0.999847	0.014321	0.008000	0.005880	
40783	    0	4.493604	-1.816825	2.572324	1.409185	1.986936	0.431072	0.045227	-0.018250	0.025146	0.999923	0.007046	0.009934	0.002155	
40784	    0	4.414334	-3.876755	7.358365	0.150684	2.239473	-0.947594	0.044779	-0.039034	0.073055	0.999926	0.000753	0.011197	-0.004738	
40785	    0	1.018126	0.117234	4.341594	-1.277965	1.400230	-2.052374	0.010498	0.001343	0.043335	0.999902	-0.006390	0.007001	-0.010262	
40786	    0	-2.162694	7.039715	-2.802001	-0.366606	1.332904	-2.617741	-0.020890	0.070622	-0.028008	0.999890	-0.001833	0.006664	-0.013088	
40787	    0	-4.503001	8.433027	-3.239935	0.273342	2.456069	-3.194645	-0.044067	0.085083	-0.031738	0.999796	0.001367	0.012280	-0.015972	
40788	    0	1.286294	7.775438	11.390523	-2.705413	1.119705	-3.318676	0.014801	0.079050	0.112762	0.999755	-0.013526	0.005598	-0.016592	
40789	    0	56.998079	-27.047547	3.225392	-1.992683	-2.111896	0.818665	0.570679	-0.267761	0.040955	0.999886	-0.009963	-0.010559	0.004093	
40790	    0	84.851470	-68.566272	-21.487351	1.209920	-2.933909	2.753270	0.860904	-0.672602	-0.206400	0.999779	0.006049	-0.014668	0.013765	
40791	    0	9.758230	-24.217684	-15.117216	-0.324826	-1.666284	-0.770580	0.097900	-0.242798	-0.149963	0.999956	-0.001624	-0.008331	-0.003853	
40792	    0	-13.252279	33.260341	8.254030	-0.648725	-1.784996	-3.113156	-0.128045	0.334883	0.080300	0.999833	-0.003243	-0.008924	-0.015565	
40793	    0	-34.820314	81.356122	-12.665567	-1.181620	0.283055	-1.422903	-0.342590	0.815247	-0.130981	0.999956	-0.005908	0.001415	-0.007114	
40794	    0	-4.044245	72.575642	-11.863013	-2.253632	-0.892870	-2.184774	-0.031967	0.724737	-0.126956	0.999866	-0.011268	-0.004464	-0.010923	
40795	    0	22.447109	22.790463	-13.382034	-4.922490	-1.043673	-3.479547	0.229065	0.220581	-0.138123	0.999532	-0.024609	-0.005218	-0.017395	
40796	    0	27.691137	0.682316	-2.619846	-5.542860	-0.113521	-6.316518	0.276942	-0.002648	-0.026055	0.999117	-0.027706	-0.000567	-0.031573	
40797	    0	31.552972	-3.304484	4.195255	-1.429723	0.341836	-5.057347	0.314636	-0.040710	0.041687	0.999653	-0.007148	0.001709	-0.025284	
40798	    0	20.469156	-13.971812	-9.868592	0.071908	-0.742541	-1.668572	0.203881	-0.141386	-0.097979	0.999958	0.000360	-0.003713	-0.008343	
40799	    0	17.173170	0.889451	-10.996064	0.898954	-0.780505	-2.042436	0.172241	0.007629	-0.109253	0.999929	0.004495	-0.003902	-0.010212	
40800	    0	17.774240	6.379057	-10.991182	2.410686	-1.117980	-3.279166	0.179379	0.062169	-0.108156	0.999777	0.012053	-0.005589	-0.016395	
40801	    0	20.689018	0.863581	-8.491422	3.654229	-1.601444	-4.210490	0.207703	0.005798	-0.083130	0.999579	0.018269	-0.008006	-0.021049	
40802	    0	28.582402	-0.670216	-10.856073	3.483708	-2.132345	-4.281859	0.286757	-0.010978	-0.105673	0.999562	0.017416	-0.010660	-0.021406	
40803	    0	30.502519	-1.643380	-9.091737	2.288471	-1.372663	-4.062289	0.305237	-0.021606	-0.089050	0.999704	0.011441	-0.006863	-0.020309	
40804	    0	20.044380	-3.968476	1.830403	1.060586	-0.821954	-4.572347	0.199389	-0.044351	0.018898	0.999716	0.005302	-0.004109	-0.022860	
40805	    0	10.938777	-5.660611	8.063280	0.766074	-1.535010	-4.799409	0.107361	-0.059509	0.081238	0.999675	0.003830	-0.007674	-0.023994	
40806	    0	13.376689	-5.676953	6.174540	0.496153	-1.569721	-4.721752	0.131886	-0.060053	0.062639	0.999687	0.002481	-0.007848	-0.023606	
40807	    0	16.081118	-3.534908	5.649550	-0.690339	-1.086535	-4.735277	0.159607	-0.038940	0.057495	0.999699	-0.003451	-0.005432	-0.023674	
40808	    0	15.556267	-3.060027	4.096213	-1.957720	-0.872132	-4.573545	0.154634	-0.033736	0.041958	0.999681	-0.009788	-0.004360	-0.022865	
40809	    0	13.546441	-8.587601	2.135069	-2.706207	-0.619564	-3.815051	0.133728	-0.088135	0.022949	0.999722	-0.013530	-0.003098	-0.019073	
40810	    0	11.158821	-17.458573	3.205609	-2.821935	-0.436051	-3.022602	0.108864	-0.175767	0.034770	0.999784	-0.014109	-0.002180	-0.015112	
40811	    0	9.788050	-28.553481	2.455761	-2.419392	-0.632315	-2.188211	0.094666	-0.286255	0.028320	0.999862	-0.012096	-0.003161	-0.010941	
40812	    0	11.579653	-41.618601	7.820672	-2.581123	-0.708989	-1.438387	0.112514	-0.415944	0.083979	0.999884	-0.012905	-0.003545	-0.007192	
40813	    0	10.344002	-51.069582	8.402990	-1.924170	-0.694098	-0.664533	0.101440	-0.510193	0.089294	0.999942	-0.009621	-0.003470	-0.003323	
40814	    0	5.602702	-47.695045	6.808786	-0.558663	-0.293923	-0.076485	0.055743	-0.476779	0.069502	0.999994	-0.002793	-0.001470	-0.000382	
40815	    0	3.673355	-34.441228	8.699985	1.454177	0.439648	0.003052	0.036926	-0.345032	0.084412	0.999970	0.007271	0.002198	0.000015	
40816	    0	-1.477646	-16.827734	9.360931	2.395505	0.742361	-0.586907	-0.014930	-0.169339	0.091640	0.999917	0.011977	0.003712	-0.002934	
40817	    0	-0.756632	-4.174559	9.902296	2.261599	0.792714	-0.415049	-0.007263	-0.042847	0.098572	0.999926	0.011308	0.003963	-0.002075	
40818	    0	6.601958	2.959372	7.412606	1.646638	0.776874	0.393682	0.066250	0.029114	0.074110	0.999956	0.008233	0.003884	0.001968	
40819	    0	13.865078	5.506518	8.627354	0.188638	0.823980	0.980384	0.138733	0.055664	0.085754	0.999979	0.000943	0.004120	0.004902	
40820	    0	16.853990	6.795514	9.231689	-1.565581	0.659764	1.276231	0.168401	0.069747	0.091220	0.999943	-0.007828	0.003299	0.006381	
40821	    0	15.987932	4.459820	7.641283	-3.411876	0.383018	1.539703	0.159668	0.047119	0.075317	0.999823	-0.017058	0.001915	0.007698	
40822	    0	10.232978	3.471994	3.155953	-4.851496	0.049787	1.729012	0.102028	0.036354	0.030665	0.999668	-0.024255	0.000249	0.008644	
40823	    0	5.574874	2.434456	-3.708283	-5.058714	-0.118270	1.902240	0.055542	0.023926	-0.037659	0.999634	-0.025290	-0.000591	0.009510	
40824	    0	9.364795	-0.392664	-8.517071	-3.462635	-0.078588	1.897744	0.093722	-0.004511	-0.085059	0.999804	-0.017312	-0.000393	0.009488	
40825	    0	23.794403	-4.688300	-9.851349	-0.422675	0.181010	1.873045	0.238281	-0.044861	-0.098633	0.999953	-0.002113	0.000905	0.009365	
40826	    0	43.120550	-10.788283	-12.149387	1.775241	-0.443095	2.520282	0.432779	-0.101357	-0.121455	0.999878	0.008876	-0.002215	0.012601	
40827	    0	49.049301	-11.918341	-19.254487	1.424507	-0.861228	3.726455	0.493408	-0.108643	-0.191223	0.999791	0.007122	-0.004306	0.018631	
40828	    0	34.597773	-3.191231	-15.149814	1.052567	0.243971	4.459200	0.346377	-0.023393	-0.152059	0.999737	0.005262	0.001220	0.022294	
40829	    0	24.099911	6.248418	-10.435863	2.235656	0.277168	4.589581	0.239319	0.069153	-0.103943	0.999673	0.011177	0.001386	0.022945	
40830	    0	23.958944	12.982683	-13.460251	2.480964	0.155656	4.428576	0.236508	0.136744	-0.133120	0.999677	0.012403	0.000778	0.022141	
40831	    0	28.010567	23.813027	-17.872687	1.693137	0.066573	4.677301	0.274353	0.246094	-0.176758	0.999690	0.008465	0.000333	0.023384	
40832	    0	26.802187	28.383620	-18.692965	0.942914	0.553197	5.221032	0.259961	0.291573	-0.186294	0.999644	0.004714	0.002766	0.026102	
40833	    0	21.209337	27.078714	-13.994103	0.296823	1.116521	5.557234	0.203674	0.276733	-0.140686	0.999597	0.001484	0.005582	0.027782	
40834	    0	15.896660	26.122605	-9.437366	-0.236547	1.170527	5.920738	0.150588	0.265655	-0.095584	0.999543	-0.001183	0.005852	0.029599	
40835	    0	11.711232	24.345314	-6.725876	-0.702591	0.970617	6.130452	0.109253	0.246643	-0.068665	0.999512	-0.003512	0.004852	0.030647	
40836	    0	7.916949	21.675207	-4.433512	-0.850617	0.748939	5.946877	0.072515	0.218782	-0.045543	0.999541	-0.004252	0.003744	0.029730	
40837	    0	4.365285	18.445629	-3.393879	-0.567504	0.708856	5.289331	0.038635	0.185425	-0.034607	0.999640	-0.002837	0.003544	0.026443	
40838	    0	1.838429	15.956763	-3.235771	-0.337818	1.016887	4.197067	0.014866	0.159849	-0.032709	0.999765	-0.001689	0.005084	0.020984	
40839	    0	-0.126113	17.212554	-5.437438	-0.750577	1.698384	2.819195	-0.004150	0.171875	-0.054993	0.999857	-0.003753	0.008492	0.014095	
40840	    0	-3.985476	22.959607	-2.418072	-0.721197	2.391147	1.798701	-0.042209	0.229136	-0.024512	0.999881	-0.003606	0.011955	0.008993	
40841	    0	-7.593754	23.411578	3.475345	0.722525	2.189893	1.372569	-0.077148	0.233459	0.036438	0.999909	0.003613	0.010949	0.006863	
40842	    0	-8.632171	10.377158	8.809133	2.943183	1.146754	1.333683	-0.086493	0.101879	0.090096	0.999852	0.014715	0.005733	0.006668	
40843	    0	-7.948119	4.366564	7.828319	2.769571	-0.195129	1.007880	-0.079773	0.042175	0.078796	0.999890	0.013847	-0.000976	0.005039	
40844	    0	-6.785013	4.823421	2.669816	1.721797	-0.767532	1.029034	-0.068199	0.047653	0.026849	0.999942	0.008609	-0.003838	0.005145	
40845	    0	-1.401338	-1.049590	4.984314	2.799330	-0.958097	0.550863	-0.014221	-0.011230	0.049622	0.999887	0.013996	-0.004790	0.002754	
40846	    0	7.588077	-9.796689	0.396890	1.247815	-1.914257	0.005531	0.075845	-0.097990	0.004084	0.999934	0.006239	-0.009571	0.000028	
40847	    0	12.613486	-10.472477	5.029663	0.814288	-3.306745	-0.658450	0.124939	-0.105347	0.051941	0.999849	0.004071	-0.016533	-0.003292	
40848	    0	10.172988	-18.566657	0.961398	3.139959	-3.307629	-0.082214	0.101508	-0.185846	0.008377	0.999740	0.015698	-0.016537	-0.000411	
40849	    0	9.669091	-14.796125	-3.334991	3.603764	-0.487547	0.863698	0.097412	-0.146912	-0.035767	0.999825	0.018018	-0.002438	0.004318	
40850	    0	2.031956	-5.432461	-3.192505	1.886032	0.519956	1.413761	0.020617	-0.053875	-0.032488	0.999927	0.009430	0.002600	0.007069	
40851	    0	2.005312	-1.029575	-0.288446	1.296252	1.006522	0.831616	0.020081	-0.010193	-0.003052	0.999957	0.006481	0.005033	0.004158	
40852	    0	2.348546	-3.606175	4.542133	0.673877	1.783780	-0.247768	0.023844	-0.036243	0.045088	0.999953	0.003369	0.008919	-0.001239	
40853	    0	0.836956	-1.999984	3.778138	-1.188686	1.368935	-1.453432	0.008484	-0.019836	0.037842	0.999932	-0.005943	0.006845	-0.007267	
40854	    0	-1.590667	4.585637	0.126195	-1.198044	1.133955	-2.205346	-0.015393	0.046035	0.001075	0.999905	-0.005990	0.005670	-0.011026	
40855	    0	-3.161934	6.421419	-2.908458	1.409986	1.975544	-2.583448	-0.031067	0.064819	-0.028320	0.999843	0.007050	0.009877	-0.012917	
40856	    0	-9.198172	20.677410	8.264347	-0.509674	1.654725	-3.390898	-0.087771	0.208497	0.082851	0.999819	-0.002548	0.008273	-0.016953	
40857	    0	-4.134220	18.102571	2.404655	-3.558516	-0.620332	-3.322172	-0.038391	0.182068	0.020691	0.999699	-0.017791	-0.003101	-0.016609	
40858	    0	29.712659	-27.750449	-10.335952	-1.267257	-1.049817	-0.228694	0.297339	-0.278485	-0.100037	0.999965	-0.006336	-0.005249	-0.001143	
40859	    0	93.821784	-64.657820	0.034974	1.439184	-1.930357	3.022954	0.947815	-0.632324	0.004883	0.999813	0.007195	-0.009651	0.015114	
40860	    0	28.575469	-33.456396	-28.259486	0.454722	-2.288680	-0.115969	0.288775	-0.334092	-0.280062	0.999931	0.002274	-0.011443	-0.000580	
40861	    0	-4.475551	31.178534	9.619019	-0.829376	-1.113782	-3.942395	-0.039124	0.312988	0.094666	0.999782	-0.004147	-0.005569	-0.019711	
40862	    0	-27.194010	72.406739	-9.193610	0.468649	-1.231610	-2.250163	-0.263204	0.727277	-0.091873	0.999914	0.002343	-0.006158	-0.011250	
40863	    0	-13.555986	64.546193	-6.874111	-1.502870	-0.772131	-2.897780	-0.125916	0.646790	-0.074097	0.999859	-0.007514	-0.003860	-0.014488	
40864	    0	17.116003	22.999940	-7.297551	-2.602210	-0.939825	-3.353955	0.175323	0.226114	-0.075117	0.999763	-0.013010	-0.004699	-0.016768	
40865	    0	26.394431	0.431558	-2.170086	-5.210591	0.038347	-5.476921	0.263916	-0.003479	-0.021729	0.999286	-0.026047	0.000192	-0.027378	
40866	    0	29.341763	0.635612	2.234069	-2.462294	-0.191902	-4.694345	0.293442	-0.000255	0.022598	0.999648	-0.012310	-0.000959	-0.023469	
40867	    0	24.098807	-1.364399	-11.557962	-1.007677	-0.777454	-2.073721	0.241272	-0.016724	-0.114563	0.999926	-0.005038	-0.003887	-0.010368	
40868	    0	19.568394	2.943716	-14.910887	-0.166135	-0.511565	-2.478857	0.196408	0.026882	-0.148630	0.999919	-0.000831	-0.002558	-0.012394	
40869	    0	18.260984	-1.077418	-11.167777	1.471241	-1.083450	-3.662365	0.182983	-0.013306	-0.110779	0.999790	0.007356	-0.005417	-0.018311	
40870	    0	20.525009	-7.948340	-8.579997	3.550272	-1.727732	-4.309695	0.204235	-0.082373	-0.085478	0.999573	0.017749	-0.008637	-0.021545	
40871	    0	28.790164	-9.482317	-9.385254	3.909375	-2.084695	-4.474616	0.286682	-0.099426	-0.092773	0.999504	0.019544	-0.010422	-0.022369	
40872	    0	30.854364	-4.729606	-6.401360	3.304761	-1.487753	-4.584202	0.307837	-0.053316	-0.062570	0.999573	0.016521	-0.007438	-0.022918	
40873	    0	18.186590	-4.058288	4.094564	1.963473	-1.226956	-4.884933	0.180542	-0.045410	0.041626	0.999634	0.009816	-0.006134	-0.024422	
40874	    0	8.385634	-1.841276	8.921482	1.142260	-1.836620	-4.969251	0.082533	-0.020987	0.089862	0.999633	0.005711	-0.009182	-0.024843	
40875	    0	13.475017	-1.714700	6.310776	0.089273	-1.564000	-4.787188	0.133789	-0.020386	0.064148	0.999682	0.000446	-0.007819	-0.023933	
40876	    0	17.928336	-3.500157	4.482015	-1.756861	-1.064990	-4.701367	0.178158	-0.038797	0.046101	0.999670	-0.008783	-0.005324	-0.023504	
40877	    0	15.565892	-6.882816	3.002766	-3.152092	-0.770473	-4.372946	0.153992	-0.071716	0.031738	0.999629	-0.015759	-0.003852	-0.021862	
40878	    0	12.283903	-15.093165	3.873497	-3.587526	-0.340497	-3.485854	0.120123	-0.152311	0.041665	0.999685	-0.017936	-0.001702	-0.017427	
40879	    0	10.275163	-25.098894	3.890049	-3.134357	-0.256173	-2.360687	0.099731	-0.251526	0.042969	0.999806	-0.015671	-0.001281	-0.011803	
40880	    0	9.948057	-36.408773	6.349270	-2.845310	-0.530265	-1.246695	0.097034	-0.363743	0.068929	0.999875	-0.014226	-0.002651	-0.006233	
40881	    0	10.307875	-48.752281	9.597552	-3.112163	-0.653676	-0.386827	0.101807	-0.486145	0.103882	0.999871	-0.015560	-0.003268	-0.001934	
40882	    0	7.888391	-52.308771	8.549501	-2.094500	-0.422104	0.334365	0.079569	-0.522020	0.091133	0.999941	-0.010472	-0.002110	0.001672	
40883	    0	6.483838	-40.769730	7.888199	-0.277710	-0.060845	0.541688	0.065918	-0.407410	0.079468	0.999995	-0.001389	-0.000304	0.002708	
40884	    0	7.072747	-29.067945	6.913674	2.490114	0.397503	0.623148	0.071767	-0.291286	0.065371	0.999915	0.012450	0.001987	0.003116	
40885	    0	2.103829	-14.696905	8.455318	2.980349	0.708799	0.122838	0.021423	-0.148193	0.082275	0.999882	0.014901	0.003544	0.000614	
40886	    0	1.935982	-2.637387	8.021965	2.299174	0.656525	0.321778	0.019666	-0.027262	0.079845	0.999927	0.011496	0.003283	0.001609	
40887	    0	10.551031	4.214695	6.994004	0.807390	0.659950	1.282516	0.105469	0.042542	0.069763	0.999966	0.004037	0.003300	0.006413	
40888	    0	18.351956	5.124541	8.661460	-1.154162	0.631346	1.866763	0.183299	0.053453	0.085732	0.999934	-0.005771	0.003157	0.009334	
40889	    0	21.719897	6.516992	8.076677	-3.129581	0.278490	2.240129	0.216553	0.068848	0.079407	0.999813	-0.015647	0.001392	0.011200	
40890	    0	18.774596	4.724946	2.887259	-4.580838	-0.134674	2.610700	0.187083	0.050341	0.027869	0.999652	-0.022902	-0.000673	0.013052	
40891	    0	14.482464	3.953166	-3.355176	-4.635228	-0.424246	2.720972	0.144348	0.040710	-0.034180	0.999636	-0.023173	-0.002121	0.013603	
40892	    0	18.433598	0.656653	-6.577082	-2.844415	-0.354980	2.591867	0.184355	0.008022	-0.065551	0.999813	-0.014221	-0.001775	0.012959	
40893	    0	32.437978	-6.740489	-8.612669	-0.337804	-0.424973	2.918351	0.325500	-0.062805	-0.085327	0.999889	-0.001689	-0.002125	0.014591	
40894	    0	45.453096	-9.276779	-13.177347	1.235672	-0.898046	3.926949	0.456812	-0.083005	-0.130259	0.999778	0.006178	-0.004490	0.019633	
40895	    0	40.786929	-5.242465	-17.269781	1.652896	-0.703506	4.764309	0.409546	-0.041260	-0.171631	0.999676	0.008264	-0.003517	0.023819	
40896	    0	29.787264	2.028077	-15.253403	1.760505	-0.120178	5.091329	0.297297	0.029195	-0.152124	0.999637	0.008801	-0.000601	0.025454	
40897	    0	26.928460	9.428268	-13.941238	1.896912	-0.073824	5.232914	0.266724	0.102600	-0.138367	0.999612	0.009483	-0.000369	0.026161	
40898	    0	30.407384	17.485531	-16.122877	1.827109	-0.147649	5.433255	0.299267	0.184491	-0.159350	0.999589	0.009134	-0.000738	0.027163	
40899	    0	30.871040	21.879370	-19.868450	1.298711	0.110070	5.745002	0.302124	0.228821	-0.197388	0.999566	0.006493	0.000550	0.028721	
40900	    0	23.771291	23.223549	-17.847091	0.565807	0.816662	6.006215	0.229858	0.239723	-0.178749	0.999537	0.002829	0.004083	0.030026	
40901	    0	15.862453	25.580474	-11.913039	0.046547	1.211181	6.268612	0.149780	0.260620	-0.119995	0.999490	0.000233	0.006055	0.031338	
40902	    0	10.555966	25.853199	-7.341603	-0.219003	1.104551	6.430051	0.096771	0.261657	-0.074252	0.999467	-0.001095	0.005522	0.032145	
40903	    0	7.390566	23.190489	-5.184407	-0.415108	0.824302	6.244170	0.066406	0.233948	-0.052612	0.999501	-0.002075	0.004121	0.031216	
40904	    0	4.717878	19.704679	-4.192971	-0.392585	0.669760	5.616368	0.041482	0.198182	-0.042463	0.999598	-0.001963	0.003348	0.028078	
40905	    0	2.111878	16.929527	-3.646003	-0.250267	0.771594	4.657416	0.017029	0.169678	-0.036743	0.999721	-0.001251	0.003858	0.023285	
40906	    0	0.464629	15.880108	-3.895463	-0.099760	1.065693	3.429788	0.001715	0.158828	-0.039048	0.999838	-0.000499	0.005328	0.017148	
40907	    0	-0.837471	20.178786	-8.223814	-0.786425	1.635032	2.102729	-0.011169	0.201355	-0.082947	0.999903	-0.003932	0.008175	0.010513	
40908	    0	-4.120583	32.536049	-6.361038	-1.314790	2.552520	1.318033	-0.044172	0.324651	-0.065195	0.999875	-0.006574	0.012762	0.006590	
40909	    0	-6.447829	29.183422	6.513680	1.436874	2.716957	1.405401	-0.065613	0.290894	0.068115	0.999857	0.007184	0.013584	0.007027	
40910	    0	-5.367557	9.319169	11.796384	3.320683	0.859307	1.096022	-0.053666	0.090919	0.119717	0.999838	0.016603	0.004296	0.005480	
40911	    0	-6.189945	6.088306	5.529292	2.439379	-0.778984	0.666066	-0.062317	0.059998	0.055786	0.999912	0.012197	-0.003895	0.003330	
40912	    0	-5.434839	4.813276	5.632925	2.481341	-0.693532	0.512329	-0.054667	0.047291	0.056730	0.999913	0.012406	-0.003468	0.002562	
40913	    0	-2.412552	-0.008782	4.882744	2.982452	-0.931396	-0.175483	-0.024353	-0.000793	0.048706	0.999877	0.014912	-0.004657	-0.000877	
40914	    0	4.581088	-5.440707	7.293242	2.522386	-1.954353	-0.289548	0.045020	-0.055390	0.072680	0.999871	0.012611	-0.009771	-0.001448	
40915	    0	10.807547	-14.983897	7.526387	3.574239	-4.016608	-0.813394	0.105957	-0.151611	0.074707	0.999630	0.017869	-0.020081	-0.004066	
40916	    0	10.946750	-19.181913	-7.647261	3.151064	-3.705205	-0.596678	0.110326	-0.190932	-0.077447	0.999700	0.015754	-0.018524	-0.002983	
40917	    0	11.673613	-11.295933	-6.349893	3.884372	-0.424031	-0.093085	0.116821	-0.111755	-0.065430	0.999808	0.019421	-0.002120	-0.000465	
40918	    0	6.053510	1.221351	3.561727	3.996959	1.148310	0.858944	0.060688	0.011764	0.035507	0.999774	0.019983	0.005741	0.004294	
40919	    0	4.041636	2.657293	4.633250	1.396204	1.246856	0.880448	0.040588	0.026428	0.046265	0.999946	0.006981	0.006234	0.004402	
40920	    0	2.619734	-0.429830	1.413729	-0.705915	1.175699	-0.020981	0.026279	-0.004251	0.013998	0.999976	-0.003530	0.005878	-0.000105	
40921	    0	-0.887166	1.727602	-3.330416	-1.201477	1.831876	-1.670890	-0.009033	0.017151	-0.033325	0.999905	-0.006007	0.009159	-0.008354	
40922	    0	-7.831386	15.521195	1.786449	-2.185685	2.606493	-3.916607	-0.075026	0.156893	0.017148	0.999663	-0.010927	0.013031	-0.019581	
40923	    0	-11.601674	27.503351	7.904264	-3.755644	1.040829	-5.110285	-0.108521	0.279297	0.074402	0.999483	-0.018775	0.005203	-0.025547	
40924	    0	-2.751360	8.229162	-1.185880	-5.726215	-0.492590	-4.668730	-0.025556	0.082518	-0.014284	0.999314	-0.028625	-0.002462	-0.023338	
40925	    0	40.337039	-37.097416	0.841584	-1.120577	-0.636297	-0.665289	0.402100	-0.372253	0.011780	0.999973	-0.005603	-0.003181	-0.003326	
40926	    0	115.308043	-92.243136	-14.323115	2.718338	-3.746991	5.263643	1.179350	-0.889760	-0.133540	0.999386	0.013589	-0.018731	0.026313	
40927	    0	16.934612	-44.497188	-15.964705	1.905295	-1.229124	-0.710313	0.168762	-0.444031	-0.162842	0.999929	0.009526	-0.006145	-0.003551	
40928	    0	-13.010681	33.520020	11.394286	0.650469	-1.295025	-4.603260	-0.123092	0.337716	0.114226	0.999708	0.003252	-0.006474	-0.023014	
40929	    0	-39.971542	91.604999	-17.879692	1.158363	-0.461590	-2.167567	-0.389343	0.921326	-0.174377	0.999922	0.005792	-0.002308	-0.010838	
40930	    0	-5.119080	77.521044	-5.664659	-1.016456	-1.098856	-2.211255	-0.042292	0.775409	-0.060836	0.999910	-0.005082	-0.005494	-0.011056	
40931	    0	21.672091	19.664853	-17.144601	-6.859585	-1.494972	-3.261618	0.221130	0.187073	-0.176331	0.999250	-0.034289	-0.007473	-0.016304	
40932	    0	28.808441	1.466497	-5.715568	-6.937522	-0.479864	-5.894986	0.288447	0.004191	-0.056730	0.998960	-0.034676	-0.002398	-0.029465	
40933	    0	38.223092	-4.922033	3.253960	-2.707031	0.264008	-4.506441	0.381042	-0.057373	0.032776	0.999653	-0.013534	0.001320	-0.022530	
40934	    0	21.813605	-21.570809	-11.071232	0.053216	-0.765433	-1.956022	0.216434	-0.217801	-0.109940	0.999945	0.000266	-0.003827	-0.009780	
40935	    0	14.165279	-7.062013	-11.450106	1.172107	-0.935397	-2.497952	0.141296	-0.071716	-0.114258	0.999893	0.005860	-0.004677	-0.012489	
40936	    0	12.361885	1.128742	-10.215453	2.989679	-1.087295	-3.640720	0.124368	0.010547	-0.101318	0.999707	0.014947	-0.005436	-0.018202	
40937	    0	15.404536	1.464714	-9.830551	4.515304	-1.383454	-4.497562	0.155029	0.013367	-0.096924	0.999468	0.022573	-0.006916	-0.022484	
40938	    0	27.872179	4.699294	-11.221061	4.445332	-2.145786	-4.511720	0.280899	0.043107	-0.108217	0.999440	0.022223	-0.010727	-0.022554	
40939	    0	31.854000	5.346568	-10.879900	3.212571	-1.730565	-4.121156	0.320496	0.048584	-0.105225	0.999620	0.016061	-0.008652	-0.020603	
40940	    0	20.791467	2.212363	0.658794	1.132125	-0.964834	-4.683012	0.208321	0.017207	0.007699	0.999698	0.005660	-0.004824	-0.023413	
40941	    0	12.445611	-0.176100	9.643841	0.245121	-1.579456	-4.847481	0.123596	-0.004883	0.097412	0.999674	0.001225	-0.007896	-0.024235	
40942	    0	16.696052	-4.077756	8.171024	-0.231576	-1.698859	-4.658224	0.165250	-0.044544	0.083169	0.999692	-0.001158	-0.008493	-0.023289	
