// Start Time: Unknown
// Update Rate: 100.0Hz
// Filter Profile: human (34.3)
// Firmware Version: 2.1.4
PacketCounter	SampleTimeFine	Acc_X	Acc_Y	Acc_Z	Gyr_X	Gyr_Y	Gyr_Z	VelInc_X	VelInc_Y	VelInc_Z	OriInc_q0	OriInc_q1	OriInc_q2	OriInc_q3	
13882	    0	23.852362	-8.573658	-5.802148	4.090595	-1.582404	-4.462207	0.237008	-0.089850	-0.057952	0.999510	0.020450	-0.007911	-0.022307	
13883	    0	36.104883	-4.755849	-8.338386	4.293749	-2.001321	-4.009127	0.360840	-0.053040	-0.080872	0.999518	0.021465	-0.010005	-0.020042	
13884	    0	31.058602	-1.453803	-3.399096	3.090882	-1.477245	-4.443179	0.310410	-0.020931	-0.031988	0.999606	0.015452	-0.007385	-0.022213	
13885	    0	14.794885	-0.313272	4.889200	1.045547	-1.360489	-5.161922	0.147461	-0.007202	0.049866	0.999630	0.005227	-0.006802	-0.025806	
13886	    0	10.027648	1.191331	7.415536	-0.221088	-1.450713	-5.159043	0.099999	0.009414	0.074870	0.999640	-0.001105	-0.007253	-0.025792	
13887	    0	18.762510	-0.987287	5.803803	-1.368665	-1.088828	-4.683410	0.187012	-0.013855	0.059143	0.999687	-0.006843	-0.005444	-0.023415	
13888	    0	19.375161	-4.800521	4.700911	-2.730897	-0.879968	-4.621503	0.192372	-0.051805	0.048548	0.999630	-0.013653	-0.004399	-0.023105	
13889	    0	12.495893	-8.383077	1.738680	-3.699256	-0.714785	-4.461541	0.122986	-0.086243	0.019409	0.999574	-0.018494	-0.003573	-0.022305	
13890	    0	6.899221	-11.533134	-3.695247	-3.905371	-0.589249	-3.523093	0.067042	-0.117213	-0.034476	0.999649	-0.019525	-0.002946	-0.017613	
13891	    0	6.960871	-17.655029	-3.777074	-3.169446	-0.315686	-2.160015	0.067749	-0.177856	-0.034851	0.999814	-0.015846	-0.001578	-0.010799	
13892	    0	9.619410	-28.291232	-3.129063	-2.296127	-0.324830	-0.996044	0.094830	-0.283720	-0.027882	0.999920	-0.011480	-0.001624	-0.004980	
13893	    0	12.974466	-40.913974	3.902881	-2.217722	-0.306708	-0.408181	0.128845	-0.408936	0.043762	0.999935	-0.011088	-0.001534	-0.002041	
13894	    0	10.678660	-50.064237	7.945604	-2.234316	-0.233083	-0.196843	0.106197	-0.499817	0.085167	0.999936	-0.011171	-0.001165	-0.000984	
13895	    0	6.516242	-39.057869	8.340109	-1.421941	-0.207521	0.057221	0.065186	-0.389954	0.086243	0.999973	-0.007110	-0.001038	0.000286	
13896	    0	4.548790	-25.620411	6.751546	1.059728	0.035668	0.306512	0.045893	-0.256487	0.066149	0.999985	0.005299	0.000178	0.001533	
13897	    0	1.414614	-18.487228	6.115461	3.193994	0.357834	0.361649	0.014587	-0.185791	0.058167	0.999868	0.015969	0.001789	0.001808	
13898	    0	-0.963207	-8.021744	7.399764	3.482046	0.580436	0.036623	-0.009405	-0.081491	0.072614	0.999844	0.017409	0.002902	0.000183	
13899	    0	2.962480	4.196873	8.273465	2.394357	0.669115	0.272376	0.029846	0.041016	0.083130	0.999922	0.011971	0.003345	0.001362	
13900	    0	9.588498	7.160143	7.106740	0.670439	0.605780	1.219570	0.095662	0.071947	0.071018	0.999970	0.003352	0.003029	0.006098	
13901	    0	14.983943	5.014754	6.723555	-1.046780	0.585380	2.175196	0.149475	0.052124	0.066528	0.999923	-0.005234	0.002927	0.010876	
13902	    0	15.177462	1.570489	7.558069	-3.226124	0.362612	2.491743	0.151690	0.018808	0.075019	0.999790	-0.016129	0.001813	0.012458	
13903	    0	11.289028	-0.366896	4.743811	-5.114484	0.003052	2.510410	0.112915	-0.001038	0.047485	0.999594	-0.025569	0.000015	0.012550	
13904	    0	8.894820	-1.210460	-0.681406	-5.699707	-0.108164	2.584498	0.089100	-0.011141	-0.006439	0.999510	-0.028494	-0.000541	0.012920	
13905	    0	11.566111	-1.083907	-5.878371	-4.497859	-0.125137	2.759109	0.115845	-0.010559	-0.058472	0.999651	-0.022487	-0.000626	0.013794	
13906	    0	20.783919	-3.143751	-9.003748	-1.448877	-0.077823	2.635674	0.208270	-0.029346	-0.089739	0.999887	-0.007244	-0.000389	0.013178	
13907	    0	32.312908	-7.039829	-9.506615	1.764174	-0.312054	2.437685	0.324097	-0.065613	-0.095154	0.999886	0.008821	-0.001560	0.012188	
13908	    0	41.922023	-11.561795	-12.950356	2.836625	-1.076967	2.874011	0.421501	-0.107741	-0.128803	0.999782	0.014182	-0.005384	0.014369	
13909	    0	39.076550	-9.196146	-16.526328	1.961884	-1.226154	4.020288	0.393494	-0.082458	-0.163696	0.999731	0.009809	-0.006130	0.020100	
13910	    0	31.332603	-1.187046	-14.478878	1.410419	-0.333816	4.391680	0.313712	-0.003965	-0.144312	0.999732	0.007051	-0.001669	0.021956	
13911	    0	30.310745	9.141838	-12.142478	1.765587	-0.101289	4.073668	0.301208	0.098633	-0.120422	0.999753	0.008827	-0.000506	0.020367	
13912	    0	29.494994	18.675171	-15.942637	1.974484	-0.576455	4.308156	0.291268	0.194609	-0.156688	0.999715	0.009871	-0.002882	0.021539	
13913	    0	27.386465	23.873314	-19.670335	1.646611	-0.489672	4.938307	0.268311	0.247009	-0.194031	0.999658	0.008232	-0.002448	0.024689	
13914	    0	23.426076	23.730513	-18.004593	1.024948	0.111212	5.407062	0.227616	0.244438	-0.178933	0.999620	0.005124	0.000556	0.027032	
13915	    0	19.829526	24.717054	-12.549769	0.420444	0.600716	6.009829	0.190369	0.253235	-0.125549	0.999541	0.002102	0.003003	0.030045	
13916	    0	16.737107	24.890669	-8.045056	0.072111	0.557617	6.507314	0.158932	0.254199	-0.080811	0.999466	0.000360	0.002788	0.032531	
13917	    0	12.434052	21.753122	-5.991451	-0.073064	0.310569	6.360175	0.117249	0.221313	-0.060181	0.999493	-0.000365	0.001553	0.031796	
13918	    0	7.836879	16.871113	-4.718502	0.115219	0.323909	5.527631	0.073590	0.170816	-0.047209	0.999616	0.000576	0.001619	0.027635	
13919	    0	3.949455	13.452620	-3.649136	0.495951	0.526662	4.381921	0.036438	0.135437	-0.036255	0.999753	0.002480	0.002633	0.021908	
13920	    0	1.954833	12.229190	-3.185042	1.029063	0.836603	3.089669	0.017523	0.122735	-0.031296	0.999858	0.005145	0.004183	0.015448	
13921	    0	1.105943	15.189190	-6.160660	1.001764	1.384197	1.705974	0.009338	0.152283	-0.060913	0.999927	0.005009	0.006921	0.008530	
13922	    0	-1.726941	24.080971	-2.372435	1.680052	2.265247	0.711466	-0.018378	0.240932	-0.021497	0.999894	0.008400	0.011326	0.003557	
13923	    0	-4.670531	27.098791	2.961417	3.091839	2.678106	0.405149	-0.046814	0.270386	0.034424	0.999788	0.015458	0.013390	0.002026	
13924	    0	-5.527097	17.005423	8.679678	4.096012	2.070038	0.424232	-0.054703	0.168105	0.090821	0.999734	0.020478	0.010349	0.002121	
13925	    0	-6.104671	9.032608	8.334248	2.963564	0.762207	0.283825	-0.060852	0.088989	0.084900	0.999882	0.014817	0.003811	0.001419	
13926	    0	-7.371852	9.593953	4.522405	1.467148	-0.268939	0.477224	-0.074008	0.095428	0.045826	0.999969	0.007336	-0.001345	0.002386	
13927	    0	-2.811820	3.810293	9.824207	3.078019	-0.836217	0.184639	-0.028564	0.036560	0.098694	0.999872	0.015389	-0.004181	0.000923	
13928	    0	7.228348	-5.604180	6.866142	2.314450	-1.245347	-0.810839	0.071627	-0.057126	0.068452	0.999905	0.011572	-0.006227	-0.004054	
13929	    0	4.988881	-7.301802	4.150867	-0.502595	-1.708252	-1.087208	0.049133	-0.073181	0.042114	0.999945	-0.002513	-0.008541	-0.005436	
13930	    0	3.287433	-8.569784	11.425789	2.964968	-2.493061	-0.139436	0.031397	-0.087405	0.113368	0.999812	0.014824	-0.012465	-0.000697	
13931	    0	5.521794	-13.949410	1.232107	4.693340	-1.709739	0.767599	0.055664	-0.139526	0.009521	0.999681	0.023464	-0.008548	0.003838	
13932	    0	5.665640	-16.799172	-9.852852	0.991083	-1.798102	1.302942	0.058635	-0.167125	-0.098837	0.999926	0.004955	-0.008990	0.006515	
13933	    0	6.411774	-16.068561	-15.595725	-0.826077	0.708011	0.039673	0.063599	-0.161316	-0.155518	0.999985	-0.004130	0.003540	0.000198	
13934	    0	8.921693	-5.891296	1.494409	-0.998738	3.318191	-0.323312	0.089356	-0.058987	0.013757	0.999848	-0.004993	0.016590	-0.001616	
13935	    0	7.130715	-3.421954	9.207042	-1.489299	1.975496	-0.772116	0.072083	-0.033813	0.091614	0.999915	-0.007446	0.009877	-0.003860	
13936	    0	1.646885	1.566670	5.146822	-2.515682	0.262841	-1.123273	0.016626	0.016219	0.051245	0.999904	-0.012578	0.001314	-0.005616	
13937	    0	-2.708689	9.615599	1.339270	-3.141739	0.173958	-1.091054	-0.026550	0.096497	0.011902	0.999861	-0.015708	0.000870	-0.005455	
13938	    0	-2.544430	13.805591	-1.914430	-2.024888	0.851841	-0.821895	-0.024962	0.137957	-0.020434	0.999930	-0.010124	0.004259	-0.004109	
13939	    0	-1.653054	10.843640	-0.167381	0.242619	1.711493	-1.017778	-0.015991	0.108521	-0.001404	0.999949	0.001213	0.008557	-0.005089	
13940	    0	-2.225037	12.944699	6.735838	-1.046413	1.782106	-2.278227	-0.020174	0.130035	0.066865	0.999882	-0.005232	0.008910	-0.011391	
13941	    0	3.478726	1.577650	2.788260	-3.485257	0.815662	-3.262648	0.035156	0.015686	0.027466	0.999706	-0.017425	0.004078	-0.016312	
13942	    0	35.275681	-41.358326	-4.091925	1.028642	-1.032457	0.029564	0.353030	-0.413320	-0.041224	0.999973	0.005143	-0.005162	0.000148	
13943	    0	78.130533	-57.112524	-19.907021	4.537309	-2.866793	2.678319	0.791687	-0.556030	-0.200500	0.999550	0.022683	-0.014332	0.013390	
13944	    0	22.817496	-18.514050	-35.568053	1.128273	-3.803510	-0.668380	0.234281	-0.183923	-0.352304	0.999797	0.005641	-0.019016	-0.003342	
13945	    0	-4.760524	25.885672	1.263904	1.388667	-1.541840	-3.985168	-0.042542	0.259644	0.014099	0.999747	0.006943	-0.007709	-0.019924	
13946	    0	-21.363287	62.184009	-3.890455	2.408162	-0.659407	-2.682073	-0.205152	0.625043	-0.032077	0.999832	0.012040	-0.003297	-0.013410	
13947	    0	-10.678766	58.815825	-1.675381	-0.814074	-0.147060	-2.122543	-0.100525	0.589172	-0.019226	0.999934	-0.004070	-0.000735	-0.010612	
13948	    0	17.671127	24.989144	-7.891243	-3.080885	-0.820628	-3.901894	0.181857	0.245130	-0.081974	0.999682	-0.015403	-0.004103	-0.019507	
13949	    0	34.053161	14.049214	-3.246392	-5.532083	-0.242690	-6.648802	0.344971	0.128113	-0.035706	0.999063	-0.027652	-0.001213	-0.033234	
13950	    0	41.707105	10.570462	-2.097299	-5.056512	-0.008394	-4.106103	0.419117	0.096540	-0.023474	0.999469	-0.025278	-0.000042	-0.020527	
13951	    0	23.938704	-11.266249	-11.091356	-3.355415	-0.487547	-1.640417	0.238708	-0.116455	-0.108398	0.999823	-0.016776	-0.002438	-0.008202	
13952	    0	14.977714	-11.617415	-11.865847	-0.167089	-0.322161	-2.669987	0.148398	-0.118260	-0.118320	0.999908	-0.000835	-0.001611	-0.013350	
13953	    0	15.477874	-15.011588	-8.897162	2.304290	-0.822334	-4.024115	0.152100	-0.152161	-0.090088	0.999722	0.011520	-0.004111	-0.020119	
13954	    0	21.518210	-13.547629	-7.788240	3.600660	-1.433206	-4.578323	0.212590	-0.138949	-0.078834	0.999550	0.018001	-0.007165	-0.022888	
13955	    0	32.198416	-4.456693	-6.726854	4.364692	-1.376366	-4.044971	0.321472	-0.049622	-0.066101	0.999534	0.021820	-0.006881	-0.020222	
13956	    0	26.862619	-0.995400	-1.025139	3.546062	-1.248342	-4.377019	0.268383	-0.015665	-0.008820	0.999583	0.017728	-0.006241	-0.021882	
13957	    0	11.130210	0.603081	4.627496	1.681725	-1.349615	-4.981080	0.111084	0.002869	0.047058	0.999631	0.008408	-0.006747	-0.024902	
13958	    0	7.970706	1.854419	5.034480	-0.189800	-1.197364	-4.784497	0.079818	0.016684	0.050806	0.999695	-0.000949	-0.005986	-0.023920	
13959	    0	15.300238	-1.809580	4.037039	-1.688534	-0.543833	-4.250711	0.152466	-0.020996	0.040955	0.999734	-0.008442	-0.002719	-0.021252	
13960	    0	17.152914	-5.080602	3.496147	-3.065817	-0.364915	-4.004714	0.170408	-0.053679	0.036081	0.999680	-0.015327	-0.001824	-0.020021	
13961	    0	12.350915	-8.919264	-0.692421	-3.287643	-0.399820	-3.600670	0.121887	-0.091492	-0.005188	0.999701	-0.016437	-0.001999	-0.018002	
13962	    0	9.356477	-16.296151	-5.564873	-2.841749	-0.331137	-2.671794	0.091459	-0.164960	-0.053162	0.999808	-0.014208	-0.001656	-0.013358	
13963	    0	8.656370	-25.828393	-5.875696	-2.153654	-0.422682	-1.612141	0.084595	-0.259583	-0.055786	0.999907	-0.010768	-0.002113	-0.008060	
13964	    0	11.409866	-38.591776	0.968274	-1.627754	-0.294308	-0.749217	0.112635	-0.386245	0.012992	0.999958	-0.008139	-0.001472	-0.003746	
13965	    0	12.419882	-47.733633	9.048656	-1.942477	-0.453003	-0.419624	0.122986	-0.476685	0.095398	0.999948	-0.009712	-0.002265	-0.002098	
13966	    0	7.628199	-41.663487	10.080941	-1.007087	-0.690846	-0.219728	0.075471	-0.416203	0.103168	0.999980	-0.005035	-0.003454	-0.001099	
13967	    0	5.613584	-26.045783	9.982688	1.184853	-0.380519	0.203706	0.056213	-0.260986	0.098389	0.999980	0.005924	-0.001903	0.001019	
13968	    0	1.643412	-17.595857	7.510888	3.201813	-0.130659	0.279248	0.016633	-0.177108	0.072290	0.999870	0.016008	-0.000653	0.001396	
13969	    0	-1.953323	-8.124012	6.301073	3.318939	-0.057032	0.048067	-0.019531	-0.082275	0.061646	0.999862	0.016594	-0.000285	0.000240	
13970	    0	1.108330	1.271377	4.354515	2.163548	0.036813	0.216870	0.011078	0.012254	0.043677	0.999941	0.010818	0.000184	0.001084	
13971	    0	6.251090	2.987888	4.103241	0.775151	0.229837	0.795750	0.062439	0.029968	0.041077	0.999984	0.003876	0.001149	0.003979	
13972	    0	11.908326	-0.657683	4.817632	-0.380520	0.445561	1.409163	0.119232	-0.005646	0.047922	0.999970	-0.001903	0.002228	0.007046	
13973	    0	15.818032	-3.865155	6.188950	-1.831676	0.431835	1.693008	0.158630	-0.036743	0.061890	0.999920	-0.009158	0.002159	0.008465	
13974	    0	14.414451	-4.494417	5.996035	-3.291320	0.095945	1.743608	0.144552	-0.042691	0.060606	0.999826	-0.016456	0.000480	0.008718	
13975	    0	10.040570	-3.925182	4.879302	-3.998705	-0.260184	1.931922	0.100708	-0.037292	0.049683	0.999752	-0.019992	-0.001301	0.009659	
13976	    0	8.546503	-2.564626	0.429612	-3.599251	-0.439868	2.273542	0.085738	-0.024588	0.004933	0.999770	-0.017995	-0.002199	0.011367	
13977	    0	11.645845	-0.860290	-5.598408	-2.388890	-0.488879	2.601761	0.116699	-0.007751	-0.055603	0.999841	-0.011944	-0.002444	0.013008	
13978	    0	17.584968	1.471196	-9.521616	-0.437179	-0.594731	2.731414	0.175911	0.016907	-0.094728	0.999900	-0.002186	-0.002974	0.013657	
13979	    0	25.613464	-0.501184	-12.006751	1.778690	-0.926254	2.794785	0.256714	-0.000366	-0.118896	0.999851	0.008893	-0.004631	0.013973	
13980	    0	36.925790	-5.042826	-16.482062	2.872892	-1.580940	2.972846	0.371221	-0.042574	-0.162540	0.999755	0.014363	-0.007904	0.014863	
13981	    0	43.621683	-4.228087	-20.151567	1.933452	-1.401448	3.824176	0.438293	-0.031982	-0.198792	0.999745	0.009666	-0.007007	0.019119	
13982	    0	40.900507	2.294782	-17.274986	1.436572	-0.213073	4.750931	0.408470	0.033894	-0.172097	0.999691	0.007182	-0.001065	0.023752	
13983	    0	33.529457	13.182770	-13.343039	1.783237	0.592314	5.457300	0.331116	0.142090	-0.133179	0.999583	0.008915	0.002961	0.027283	
13984	    0	23.173312	19.501427	-12.891152	1.902893	0.659288	5.946755	0.225353	0.202998	-0.127755	0.999507	0.009513	0.003296	0.029729	
13985	    0	18.239778	20.448803	-12.838550	1.454389	0.300836	5.924383	0.176025	0.210693	-0.127136	0.999534	0.007271	0.001504	0.029617	
13986	    0	17.593978	20.409158	-12.098055	0.627791	-0.090992	5.581254	0.170202	0.209273	-0.120251	0.999605	0.003139	-0.000455	0.027903	
13987	    0	17.760156	23.201891	-9.449904	0.133532	0.091756	5.608341	0.170959	0.236938	-0.094421	0.999606	0.000668	0.000459	0.028038	
13988	    0	16.420235	23.699571	-6.337657	-0.185422	0.239789	5.950282	0.156981	0.241679	-0.063790	0.999556	-0.000927	0.001199	0.029747	
13989	    0	12.020640	20.195489	-4.771749	-0.569043	0.281565	5.821297	0.114197	0.205200	-0.048462	0.999571	-0.002845	0.001408	0.029102	
13990	    0	6.632922	16.745320	-3.014459	-0.565973	0.532781	5.089559	0.061960	0.168981	-0.030790	0.999668	-0.002830	0.002664	0.025445	
13991	    0	2.907670	14.045088	-1.181941	-0.131998	0.821935	4.038525	0.026184	0.140991	-0.012024	0.999787	-0.000660	0.004109	0.020191	
13992	    0	1.476559	12.448474	-2.523745	0.075152	1.079788	2.707387	0.012942	0.124678	-0.025264	0.999893	0.000376	0.005399	0.013536	
13993	    0	0.066664	17.043972	-4.304538	-0.127986	1.685365	1.287103	-0.000793	0.170410	-0.043152	0.999943	-0.000640	0.008427	0.006435	
13994	    0	-2.521732	25.421637	-1.906353	0.520530	2.475615	0.315675	-0.025846	0.254224	-0.018085	0.999918	0.002603	0.012378	0.001578	
13995	    0	-4.342349	23.702880	7.741998	3.067416	2.623164	0.092322	-0.042480	0.235779	0.081604	0.999796	0.015336	0.013115	0.000462	
13996	    0	-2.869024	7.304357	10.825250	3.598052	1.289065	-0.304622	-0.027877	0.071121	0.109725	0.999816	0.017989	0.006445	-0.001523	
13997	    0	-3.849308	7.089788	2.482648	0.592233	0.255585	-0.197602	-0.038391	0.070862	0.025085	0.999994	0.002961	0.001278	-0.000988	
13998	    0	-3.675823	8.637869	5.623674	0.631715	0.087738	0.329972	-0.036876	0.086140	0.056525	0.999993	0.003159	0.000439	0.001650	
13999	    0	1.734396	1.389079	7.191873	2.501749	-0.681133	0.130466	0.017090	0.013000	0.072144	0.999915	0.012508	-0.003406	0.000652	
14000	    0	5.789213	-3.907471	2.108239	0.271992	-1.740481	-0.604066	0.057588	-0.039278	0.021531	0.999956	0.001360	-0.008702	-0.003020	
14001	    0	3.255439	-6.487688	9.154659	0.338001	-3.474426	-0.981194	0.030640	-0.065186	0.091980	0.999835	0.001690	-0.017371	-0.004906	
14002	    0	4.548064	-13.683680	-0.801921	1.829523	-4.553873	-0.405353	0.045389	-0.136854	-0.008237	0.999697	0.009147	-0.022767	-0.002027	
14003	    0	9.641180	-10.718539	-11.514466	1.329101	-2.883089	0.952955	0.098572	-0.105957	-0.114441	0.999862	0.006645	-0.014415	0.004765	
14004	    0	5.522295	-9.048457	-16.886820	0.211147	0.863661	1.701190	0.055259	-0.089836	-0.169202	0.999953	0.001056	0.004318	0.008506	
14005	    0	7.306786	-5.553629	-2.184047	-0.524938	3.945615	0.482973	0.072754	-0.055420	-0.023132	0.999799	-0.002625	0.019727	0.002415	
14006	    0	6.526275	-11.183367	10.318574	-0.271812	3.406906	-1.322057	0.066269	-0.112130	0.102215	0.999832	-0.001359	0.017034	-0.006610	
14007	    0	4.212588	-9.221078	6.992187	-0.427070	1.702175	-2.235488	0.041687	-0.092529	0.069763	0.999899	-0.002135	0.008511	-0.011177	
14008	    0	0.181673	-4.967075	2.013160	1.175930	1.911244	-2.260113	0.001445	-0.049806	0.019824	0.999873	0.005879	0.009556	-0.011300	
14009	    0	-3.249899	5.302706	4.405015	3.065048	2.707383	-2.888027	-0.031128	0.052795	0.045288	0.999686	0.015324	0.013535	-0.014439	
14010	    0	-9.268564	24.283358	14.333259	1.585694	1.388078	-3.594659	-0.087309	0.243285	0.145879	0.999783	0.007928	0.006940	-0.017972	
14011	    0	-2.622201	22.884737	0.688878	-0.481246	-0.428029	-3.241877	-0.022522	0.229248	0.006287	0.999863	-0.002406	-0.002140	-0.016209	
14012	    0	29.248739	-12.781164	-10.660457	-1.335919	-0.569730	0.139428	0.292877	-0.128312	-0.104915	0.999973	-0.006680	-0.002849	0.000697	
14013	    0	82.110099	-38.615144	-16.201825	1.486483	-2.345411	2.477407	0.827637	-0.374756	-0.155151	0.999826	0.007432	-0.011726	0.012386	
14014	    0	30.824640	-31.306656	-38.467240	-0.346206	-3.844887	-0.575865	0.314653	-0.314625	-0.378120	0.999809	-0.001731	-0.019223	-0.002879	
14015	    0	-6.192759	10.512019	-9.777180	-2.466857	-2.423937	-3.826566	-0.058716	0.105042	-0.099792	0.999667	-0.012333	-0.012118	-0.019131	
14016	    0	-24.467673	47.471902	-2.728435	-1.209313	-1.036691	-2.869926	-0.237678	0.477982	-0.031412	0.999865	-0.006046	-0.005183	-0.014349	
14017	    0	-19.092680	56.709485	-6.265405	-2.628242	0.371567	-1.638860	-0.186401	0.567749	-0.069763	0.999878	-0.013141	0.001858	-0.008194	
14018	    0	28.354004	33.001739	-3.559347	-2.836350	-0.279076	-4.285332	0.290569	0.323297	-0.039808	0.999668	-0.014180	-0.001395	-0.021424	
14019	    0	52.930144	11.461738	2.845377	-3.642330	-0.131827	-6.385716	0.532593	0.098145	0.026917	0.999324	-0.018208	-0.000659	-0.031921	
14020	    0	43.790625	-5.071433	4.243749	-2.585614	-0.231189	-3.472028	0.436894	-0.057746	0.043659	0.999764	-0.012927	-0.001156	-0.017359	
14021	    0	11.663121	-12.527218	-3.481356	-2.166068	-0.523969	-2.061542	0.115417	-0.126831	-0.033142	0.999885	-0.010830	-0.002620	-0.010307	
14022	    0	4.423669	0.377212	-10.016568	0.651957	-0.750380	-2.884595	0.044663	0.003456	-0.099987	0.999883	0.003260	-0.003752	-0.014422	
14023	    0	16.085317	-0.321384	-6.590623	2.593497	-0.973420	-4.112665	0.161072	-0.005676	-0.065186	0.999692	0.012966	-0.004867	-0.020561	
14024	    0	31.447424	-2.895813	-7.213470	3.707101	-2.039640	-4.207663	0.314508	-0.034270	-0.069530	0.999555	0.018533	-0.010197	-0.021035	
14025	    0	40.521312	-2.680273	-10.189654	3.326257	-2.043406	-3.822039	0.405640	-0.032898	-0.098267	0.999626	0.016629	-0.010216	-0.019108	
14026	    0	24.733299	-3.393268	-1.262165	1.217589	-0.960070	-4.784516	0.246486	-0.039763	-0.011667	0.999683	0.006087	-0.004800	-0.023920	
14027	    0	7.616419	-6.422285	10.338856	-0.551671	-1.330534	-5.149692	0.073792	-0.065857	0.104065	0.999642	-0.002758	-0.006652	-0.025745	
14028	    0	10.663715	-7.611005	7.174070	-1.379546	-1.319839	-4.765271	0.104313	-0.078114	0.072968	0.999670	-0.006897	-0.006598	-0.023824	
14029	    0	20.023410	-7.981046	3.718248	-2.143121	-0.695108	-4.362163	0.198303	-0.083740	0.038757	0.999699	-0.010715	-0.003475	-0.021809	
14030	    0	17.266018	-8.377079	1.384469	-2.855203	-0.502827	-3.932963	0.170934	-0.086930	0.015502	0.999701	-0.014275	-0.002514	-0.019663	
14031	    0	11.196049	-17.398896	-0.007442	-3.217584	-0.339346	-3.088636	0.109253	-0.175659	0.002930	0.999749	-0.016087	-0.001697	-0.015442	
14032	    0	8.516704	-26.234099	-2.218651	-3.231829	-0.403240	-2.209615	0.082298	-0.263572	-0.017766	0.999806	-0.016158	-0.002016	-0.011047	
14033	    0	8.761399	-34.787738	-2.286876	-2.584746	-0.553152	-1.448877	0.085144	-0.348755	-0.018127	0.999886	-0.012923	-0.002766	-0.007244	
14034	    0	10.448810	-40.414514	0.586774	-2.082870	-0.149539	-0.943205	0.102574	-0.404541	0.010157	0.999934	-0.010414	-0.000748	-0.004716	
14035	    0	7.999484	-42.110083	3.880093	-0.920681	-0.080872	-0.416567	0.079102	-0.421082	0.040771	0.999987	-0.004603	-0.000404	-0.002083	
14036	    0	5.093790	-36.776347	8.459689	0.153542	-0.111771	-0.019073	0.050856	-0.367833	0.084343	0.999999	0.000768	-0.000559	-0.000095	
14037	    0	2.069035	-24.306701	7.559914	1.265916	0.221254	0.083161	0.020874	-0.243530	0.074036	0.999979	0.006330	0.001106	0.000416	
14038	    0	-0.243934	-12.547029	4.938272	2.141232	0.380714	-0.192455	-0.002468	-0.125987	0.048040	0.999940	0.010706	0.001904	-0.000962	
14039	    0	-0.510682	-2.130280	5.126205	1.723696	0.410467	-0.593576	-0.005066	-0.021729	0.051086	0.999956	0.008618	0.002052	-0.002968	
14040	    0	3.690833	5.046541	7.017986	0.143624	0.302887	-0.478554	0.037135	0.050326	0.070160	0.999995	0.000718	0.001514	-0.002393	
14041	    0	10.760994	6.197243	6.115352	-0.691226	0.387003	0.589755	0.107544	0.062500	0.060730	0.999988	-0.003456	0.001935	0.002949	
14042	    0	16.405667	0.697648	5.993040	-1.464493	0.479899	1.633869	0.164133	0.008754	0.059477	0.999936	-0.007322	0.002399	0.008169	
14043	    0	14.539463	-2.594514	7.246408	-2.859438	0.249493	1.683885	0.145691	-0.023682	0.072632	0.999861	-0.014297	0.001247	0.008419	
14044	    0	9.419695	-2.843800	5.935738	-3.893372	-0.000381	1.497186	0.094400	-0.026569	0.059887	0.999782	-0.019465	-0.000002	0.007485	
14045	    0	6.808763	-1.419997	4.112671	-4.395503	-0.074012	1.570272	0.068176	-0.012756	0.041443	0.999727	-0.021976	-0.000370	0.007851	
14046	    0	8.510929	-0.274890	0.429598	-4.239656	-0.008393	1.927359	0.085130	-0.001837	0.004345	0.999728	-0.021196	-0.000042	0.009636	
14047	    0	13.775302	-0.838675	-4.484462	-2.928136	0.100714	2.228672	0.137817	-0.007507	-0.044800	0.999830	-0.014640	0.000504	0.011143	
14048	    0	19.407060	-0.093217	-8.868338	-0.035287	0.171666	2.416288	0.193987	0.001396	-0.088850	0.999927	-0.000176	0.000858	0.012081	
14049	    0	27.018075	-2.999376	-11.112311	3.532116	0.122843	2.534685	0.270447	-0.024597	-0.111755	0.999763	0.017659	0.000614	0.012672	
14050	    0	38.389938	-9.728649	-15.191634	4.880050	-0.813405	2.918645	0.385848	-0.087947	-0.152572	0.999587	0.024397	-0.004066	0.014591	
14051	    0	43.657524	-9.321142	-23.297572	3.006496	-1.197944	3.924221	0.439636	-0.081116	-0.231628	0.999676	0.015031	-0.005989	0.019619	
14052	    0	38.043343	-0.681543	-20.367676	1.449931	0.253704	4.846900	0.380167	0.003880	-0.204157	0.999679	0.007249	0.001268	0.024232	
14053	    0	34.770851	11.734200	-15.422884	2.414460	0.945411	5.091024	0.343811	0.127991	-0.154358	0.999592	0.012071	0.004726	0.025452	
14054	    0	28.014328	17.878832	-17.300953	3.177034	0.991607	5.418737	0.274261	0.189005	-0.171431	0.999494	0.015882	0.004957	0.027089	
14055	    0	22.282673	19.813382	-17.293200	2.541721	0.950951	5.244445	0.216675	0.206055	-0.171387	0.999564	0.012707	0.004754	0.026218	
14056	    0	18.286744	22.158438	-16.240910	1.609043	0.876724	5.070156	0.176442	0.227413	-0.161378	0.999637	0.008044	0.004383	0.025348	
14057	    0	16.840417	24.471370	-12.406792	0.773144	1.416191	5.206180	0.161072	0.249451	-0.124268	0.999628	0.003865	0.007080	0.026028	
14058	    0	15.544530	24.199482	-8.193120	0.089086	1.494616	5.582251	0.147994	0.246232	-0.082947	0.999582	0.000445	0.007472	0.027907	
14059	    0	11.721558	23.232542	-5.982135	-0.218804	1.159069	5.712938	0.110168	0.235474	-0.060730	0.999575	-0.001094	0.005795	0.028561	
14060	    0	6.721041	20.810374	-4.469119	-0.050932	0.936241	5.323295	0.061431	0.209779	-0.045041	0.999635	-0.000255	0.004681	0.026613	
14061	    0	2.995979	17.228933	-3.709547	0.107011	0.778264	4.417027	0.026001	0.172913	-0.037109	0.999748	0.000535	0.003891	0.022083	
14062	    0	0.800866	14.730159	-4.668010	-0.097470	0.661688	3.148596	0.005534	0.147379	-0.046773	0.999870	-0.000487	0.003308	0.015742	
14063	    0	-1.359285	16.592193	-6.652924	-0.955220	0.805108	1.833381	-0.015381	0.165466	-0.067261	0.999938	-0.004776	0.004025	0.009167	
14064	    0	-4.713242	22.053109	-4.396506	-0.739681	1.347561	1.054016	-0.048592	0.220114	-0.044456	0.999956	-0.003698	0.006738	0.005270	
14065	    0	-6.875857	20.790385	3.315958	1.706742	1.713036	0.784323	-0.069275	0.207336	0.035522	0.999919	0.008533	0.008565	0.003922	
14066	    0	-7.797209	13.677802	5.820612	2.210489	1.254880	0.599497	-0.078007	0.135886	0.060201	0.999914	0.011052	0.006274	0.002997	
14067	    0	-8.390960	12.104581	5.867929	1.345076	0.625808	0.533300	-0.084045	0.120422	0.059753	0.999969	0.006725	0.003129	0.002666	
14068	    0	-6.112906	11.636345	7.008765	1.539057	0.281909	0.467496	-0.061300	0.115676	0.071066	0.999967	0.007695	0.001410	0.002337	
14069	    0	-4.106418	8.486092	6.351247	2.697266	-0.362408	-0.246437	-0.041077	0.084045	0.064575	0.999907	0.013486	-0.001812	-0.001232	
14070	    0	0.222826	6.470311	3.481067	1.325443	-1.206040	-1.230836	0.002414	0.064456	0.035253	0.999941	0.006627	-0.006030	-0.006154	
14071	    0	4.874201	-4.091287	3.134682	-2.203289	-2.536138	-0.875898	0.048157	-0.040771	0.032410	0.999849	-0.011016	-0.012680	-0.004379	
14072	    0	2.806875	-11.259694	8.410510	0.606959	-3.978808	0.250452	0.026534	-0.112819	0.084301	0.999796	0.003035	-0.019893	0.001252	
14073	    0	7.345215	-21.136761	-5.624147	2.685785	-3.547029	1.213181	0.075745	-0.210144	-0.057739	0.999734	0.013428	-0.017734	0.006065	
14074	    0	12.235747	-17.973666	-13.798112	0.842303	-0.951787	1.866762	0.124681	-0.177999	-0.138144	0.999936	0.004211	-0.004759	0.009334	
14075	    0	7.623171	-13.157560	-11.214013	-1.492359	2.226522	0.875121	0.075562	-0.132080	-0.112000	0.999900	-0.007462	0.011132	0.004375	
14076	    0	7.704109	-11.920302	7.188334	-1.256632	3.438190	-0.340099	0.078068	-0.118886	0.071295	0.999830	-0.006283	0.017190	-0.001700	
14077	    0	4.647593	-10.977262	15.163461	-0.591102	1.996662	-1.252014	0.047302	-0.109619	0.151489	0.999926	-0.002955	0.009983	-0.006260	
14078	    0	1.562527	-4.429678	8.918922	0.094606	0.716027	-1.455895	0.015621	-0.044453	0.089112	0.999967	0.000473	0.003580	-0.007279	
14079	    0	0.032505	0.663526	-0.231597	1.779221	0.831816	-1.523629	0.000366	0.006653	-0.002258	0.999923	0.008896	0.004159	-0.007618	
14080	    0	-2.486102	10.644213	-1.423823	2.085800	1.856333	-2.311833	-0.023751	0.106860	-0.012901	0.999835	0.010428	0.009281	-0.011559	
14081	    0	-8.328700	23.341269	7.767623	-0.566697	1.093337	-2.897764	-0.079468	0.234802	0.077454	0.999876	-0.002833	0.005466	-0.014488	
14082	    0	10.024256	-2.976720	-6.258000	-2.499098	-0.580236	-1.413587	0.100205	-0.031252	-0.061905	0.999892	-0.012495	-0.002901	-0.007068	
14083	    0	71.774160	-44.474022	-1.734784	0.959811	-0.180632	2.709292	0.723694	-0.434875	-0.018799	0.999896	0.004799	-0.000903	0.013546	
14084	    0	58.545523	-39.386408	-28.392138	1.584735	-3.495458	1.374149	0.593011	-0.387595	-0.276689	0.999792	0.007923	-0.017476	0.006870	
14085	    0	8.166035	2.124611	-13.008244	-0.752862	-1.261192	-2.828336	0.082764	0.019592	-0.129639	0.999872	-0.003764	-0.006306	-0.014141	
14086	    0	-10.390390	48.830416	4.305331	0.032046	-1.612599	-4.023295	-0.094398	0.490260	0.042345	0.999764	0.000160	-0.008062	-0.020115	
14087	    0	-22.554320	64.542313	-12.625456	-2.246000	0.024415	-2.296546	-0.218140	0.646484	-0.133484	0.999870	-0.011230	0.000122	-0.011482	
14088	    0	3.292192	35.726401	-3.771445	-2.166690	0.294894	-3.152087	0.038483	0.356250	-0.041632	0.999816	-0.010833	0.001474	-0.015759	
14089	    0	27.242013	3.523987	3.511752	-2.865786	0.493687	-4.804098	0.273254	0.029175	0.033997	0.999605	-0.014327	0.002468	-0.024017	
14090	    0	42.125843	-0.071013	3.993220	-2.379499	-0.325431	-4.661713	0.421031	-0.010045	0.040700	0.999656	-0.011896	-0.001627	-0.023306	
14091	    0	36.458549	-4.501251	-7.604405	-0.736258	-0.837541	-2.411723	0.364319	-0.049683	-0.074341	0.999911	-0.003681	-0.004188	-0.012058	
14092	    0	18.296441	-0.180950	-12.709158	-0.301755	-0.668553	-3.028611	0.183331	-0.004775	-0.126473	0.999878	-0.001509	-0.003343	-0.015142	
14093	    0	8.596975	0.395933	-8.890508	1.404680	-0.884124	-3.971406	0.086426	0.002869	-0.088501	0.999768	0.007023	-0.004420	-0.019855	
14094	    0	14.098095	-4.449344	-5.392541	2.278567	-0.720100	-4.409298	0.140158	-0.046975	-0.053946	0.999685	0.011392	-0.003600	-0.022044	
14095	    0	31.894700	-5.168142	-2.694344	2.747616	-0.650661	-3.960809	0.317932	-0.057617	-0.026672	0.999703	0.013737	-0.003253	-0.019802	
14096	    0	39.619967	-6.347814	-2.764189	2.859019	-1.203848	-3.780551	0.395071	-0.070572	-0.026237	0.999701	0.014294	-0.006019	-0.018901	
14097	    0	20.589386	-5.416970	4.717074	1.707649	-1.324420	-4.697178	0.204224	-0.059387	0.048035	0.999665	0.008537	-0.006621	-0.023483	
14098	    0	7.890849	-0.359060	7.607551	1.125859	-1.653880	-5.126837	0.078142	-0.006031	0.076694	0.999621	0.005629	-0.008268	-0.025631	
14099	    0	9.096103	0.534223	4.233581	0.717427	-1.363512	-4.705528	0.090759	0.003052	0.042969	0.999693	0.003587	-0.006817	-0.023525	
14100	    0	14.757236	-1.968255	2.401338	-0.858187	-1.198295	-4.188882	0.146971	-0.022659	0.024988	0.999753	-0.004291	-0.005991	-0.020943	
14101	    0	14.698379	-5.053215	1.064638	-2.090436	-1.136111	-3.760076	0.145935	-0.053162	0.012024	0.999752	-0.010451	-0.005680	-0.018799	
14102	    0	11.089942	-12.536156	-2.234550	-2.304985	-0.886210	-3.005408	0.109090	-0.127253	-0.020400	0.999810	-0.011524	-0.004431	-0.015026	
14103	    0	8.459239	-21.578544	-2.731918	-2.219479	-0.620104	-2.043996	0.082458	-0.216919	-0.024658	0.999881	-0.011097	-0.003100	-0.010220	
14104	    0	7.771578	-29.761458	1.940993	-2.125606	-0.520529	-1.262317	0.075780	-0.297867	0.022774	0.999920	-0.010628	-0.002603	-0.006311	
14105	    0	9.381443	-37.149645	9.150297	-2.387879	-0.426496	-1.044494	0.091675	-0.370850	0.096130	0.999912	-0.011939	-0.002132	-0.005222	
14106	    0	8.405267	-39.588443	10.144093	-1.709774	-0.540932	-0.689708	0.082408	-0.395283	0.105046	0.999953	-0.008549	-0.002705	-0.003448	
14107	    0	4.781121	-30.525899	10.253804	-0.322724	-0.243187	-0.091553	0.047546	-0.305115	0.103088	0.999997	-0.001614	-0.001216	-0.000458	
14108	    0	-0.109538	-20.247429	6.842578	1.491942	0.137140	-0.005531	-0.001055	-0.202977	0.066914	0.999971	0.007460	0.000686	-0.000028	
14109	    0	-4.292410	-9.805518	4.755809	2.331789	0.169377	-0.419627	-0.043091	-0.098511	0.046448	0.999929	0.011659	0.000847	-0.002098	
14110	    0	-2.645583	-0.610092	3.213454	1.923785	0.133517	-0.656902	-0.026455	-0.006323	0.032092	0.999948	0.009619	0.000668	-0.003284	
14111	    0	1.677519	2.770132	3.088875	1.007848	0.260354	-0.218965	0.016846	0.027527	0.031006	0.999986	0.005039	0.001302	-0.001095	
14112	    0	8.099250	1.422088	4.856500	0.016975	0.539781	0.594522	0.081080	0.014458	0.048347	0.999991	0.000085	0.002699	0.002973	
14113	    0	13.124801	-1.297875	6.601677	-1.210611	0.634012	1.218431	0.131531	-0.011780	0.065674	0.999958	-0.006053	0.003170	0.006092	
14114	    0	13.269977	-2.448690	6.076234	-2.574057	0.361455	1.262899	0.132957	-0.022865	0.060823	0.999895	-0.012870	0.001807	0.006314	
14115	    0	8.851276	-2.754509	4.697863	-3.669201	0.097090	1.113960	0.088684	-0.026184	0.047424	0.999816	-0.018345	0.000485	0.005569	
14116	    0	5.844267	-2.624761	3.442323	-3.997329	-0.000191	1.182642	0.058594	-0.025207	0.034934	0.999783	-0.019985	-0.000001	0.005913	
14117	    0	6.473525	-3.368547	-0.258212	-3.468343	0.032808	1.603796	0.065002	-0.033203	-0.002014	0.999817	-0.017341	0.000164	0.008018	
14118	    0	9.235098	-3.989460	-5.578063	-2.205363	0.043489	2.144135	0.092764	-0.039514	-0.055364	0.999881	-0.011026	0.000217	0.010720	
14119	    0	13.705649	-2.905716	-9.155606	0.482380	-0.013733	2.352199	0.137390	-0.027222	-0.091614	0.999928	0.002412	-0.000069	0.011761	
14120	    0	22.450924	-5.265275	-10.985595	3.346089	-0.250833	2.100700	0.225171	-0.048446	-0.110408	0.999804	0.016729	-0.001254	0.010503	
14121	    0	36.170524	-10.894029	-17.013794	3.382334	-0.893270	1.907475	0.363464	-0.102600	-0.170288	0.999801	0.016911	-0.004466	0.009537	
14122	    0	44.788034	-8.665735	-18.187662	1.193671	-0.720246	2.916845	0.449722	-0.079026	-0.180746	0.999869	0.005968	-0.003601	0.014584	
14123	    0	39.157602	2.883345	-12.039090	1.022602	0.137339	3.979772	0.390808	0.037231	-0.120483	0.999788	0.005113	0.000687	0.019897	
14124	    0	32.420537	13.760954	-10.131544	2.052690	0.282314	4.261034	0.321019	0.145505	-0.100304	0.999719	0.010262	0.001411	0.021303	
14125	    0	23.938050	17.594298	-12.348175	2.141982	0.078591	4.481967	0.235291	0.182556	-0.121643	0.999691	0.010709	0.000393	0.022408	
14126	    0	20.319120	18.353310	-12.681517	1.601580	0.170917	4.787954	0.198597	0.189333	-0.125485	0.999681	0.008007	0.000854	0.023937	
14127	    0	20.884405	16.516085	-11.400597	0.948622	0.251796	4.868817	0.204590	0.170715	-0.113464	0.999691	0.004743	0.001259	0.024342	
14128	    0	20.190239	17.724785	-9.126411	0.564255	0.511034	5.044912	0.197109	0.182518	-0.091262	0.999674	0.002821	0.002555	0.025222	
14129	    0	17.936574	20.145575	-6.225660	0.314563	0.714205	5.548058	0.173462	0.206421	-0.062561	0.999607	0.001573	0.003571	0.027737	
14130	    0	14.219299	21.402405	-4.255677	0.136014	0.660995	5.949909	0.135602	0.218153	-0.042865	0.999552	0.000680	0.003304	0.029745	
14131	    0	8.645391	18.211534	-3.064727	0.029186	0.782118	5.614460	0.081177	0.184448	-0.030945	0.999598	0.000146	0.003910	0.028069	
14132	    0	4.156817	13.906695	-1.261913	0.059706	0.995728	4.604384	0.038289	0.139977	-0.012774	0.999722	0.000299	0.004978	0.023020	
14133	    0	1.429037	11.562263	-0.349056	0.245107	1.067408	3.356345	0.012329	0.115845	-0.003418	0.999844	0.001225	0.005337	0.016781	
14134	    0	-0.122276	12.563662	-2.629729	0.265318	1.222067	2.014589	-0.002648	0.125649	-0.026117	0.999929	0.001327	0.006110	0.010073	
14135	    0	-1.401190	17.629291	-4.809228	0.141909	1.571103	0.779734	-0.015076	0.176270	-0.047852	0.999961	0.000710	0.007855	0.003899	
14136	    0	-3.564243	24.783951	-2.326232	0.593005	1.952396	0.157359	-0.036057	0.247878	-0.022177	0.999948	0.002965	0.009762	0.000787	
14137	    0	-5.307126	18.101813	2.326392	0.749407	1.548024	0.305180	-0.053162	0.180847	0.024353	0.999962	0.003747	0.007740	0.001526	
14138	    0	-3.078017	4.509950	7.851848	0.390436	0.805477	0.474550	-0.030570	0.044873	0.078730	0.999987	0.001952	0.004027	0.002373	
14139	    0	-2.819981	1.156140	2.408712	-0.498966	-0.506404	1.037604	-0.028320	0.011475	0.023987	0.999980	-0.002495	-0.002532	0.005188	
14140	    0	-0.883491	-1.042003	3.027989	0.498206	-1.099983	1.368542	-0.008929	-0.010556	0.030205	0.999958	0.002491	-0.005500	0.006843	
14141	    0	3.792771	-7.898873	1.298904	1.053069	-1.930277	0.408181	0.037964	-0.078979	0.012939	0.999937	0.005265	-0.009651	0.002041	
14142	    0	6.107193	-3.785893	-1.153455	-1.811500	-2.895309	-0.587684	0.061115	-0.038136	-0.010305	0.999849	-0.009057	-0.014476	-0.002938	
14143	    0	6.313873	-10.063729	5.780935	1.903668	-3.637760	-0.024416	0.062073	-0.101196	0.057983	0.999789	0.009518	-0.018188	-0.000122	
14144	    0	10.315705	-16.960822	-2.648476	3.895564	-2.257947	1.702855	0.104908	-0.168177	-0.028592	0.999710	0.019476	-0.011289	0.008513	
14145	    0	6.607077	-16.678789	-12.811507	2.141098	0.357072	2.531550	0.067932	-0.164551	-0.130005	0.999861	0.010705	0.001785	0.012657	
14146	    0	4.980103	-4.757256	-7.251984	0.418692	3.810574	1.370525	0.048730	-0.047083	-0.073554	0.999792	0.002093	0.019052	0.006852	
14147	    0	3.926185	-3.885181	6.431512	1.245955	3.582406	0.014497	0.040405	-0.039246	0.063354	0.999820	0.006229	0.017911	0.000072	
14148	    0	2.443893	-6.812770	7.969770	1.143868	1.910833	-1.225504	0.024776	-0.068732	0.079070	0.999919	0.005719	0.009554	-0.006127	
14149	    0	-0.369089	-2.752413	1.909276	1.018552	1.575704	-1.763965	-0.003784	-0.027588	0.018982	0.999917	0.005093	0.007878	-0.008820	
14150	    0	-0.823069	4.488699	0.681280	2.606374	2.205041	-2.055113	-0.007689	0.044873	0.007484	0.999801	0.013031	0.011024	-0.010275	
14151	    0	-3.366373	14.758291	11.483230	0.764501	1.675684	-2.787910	-0.030640	0.147583	0.115662	0.999860	0.003822	0.008378	-0.013939	
14152	    0	3.279953	4.240164	2.746203	-2.032354	-0.805693	-1.986957	0.033111	0.042351	0.027164	0.999890	-0.010161	-0.004028	-0.009934	
14153	    0	39.620264	-27.348296	-14.185647	-1.284047	-0.630007	1.272602	0.398376	-0.271851	-0.138855	0.999953	-0.006420	-0.003150	0.006363	
14154	    0	56.746939	-30.009627	-9.601635	-0.023652	-1.710545	1.414328	0.570366	-0.296081	-0.091111	0.999938	-0.000118	-0.008553	0.007071	
14155	    0	19.222811	-3.871397	-20.242861	-0.308805	-1.742584	-0.986498	0.193787	-0.039978	-0.200684	0.999949	-0.001544	-0.008713	-0.004932	
14156	    0	0.351411	38.334721	1.356470	-1.252457	-1.372056	-3.754127	0.010627	0.383267	0.011221	0.999781	-0.006262	-0.006860	-0.018769	
14157	    0	-18.284900	61.677549	-10.721999	-2.076637	-0.913285	-2.676529	-0.174072	0.617981	-0.114441	0.999846	-0.010383	-0.004566	-0.013382	
14158	    0	-8.644776	42.730864	-10.576080	-2.527195	-0.361082	-2.758951	-0.080358	0.427062	-0.111307	0.999823	-0.012635	-0.001805	-0.013794	
14159	    0	13.389681	14.147789	-4.994531	-2.236939	-0.344878	-3.924896	0.136719	0.138245	-0.051270	0.999743	-0.011184	-0.001724	-0.019623	
14160	    0	33.294291	9.467603	2.390926	-3.445146	0.033576	-5.868709	0.335541	0.085248	0.022330	0.999421	-0.017222	0.000168	-0.029338	
14161	    0	44.590500	-0.690763	-0.988827	0.091558	-0.933696	-3.419674	0.445740	-0.014526	-0.007812	0.999843	0.000458	-0.004668	-0.017097	
14162	    0	26.299157	-8.220026	-8.916615	0.725388	-0.895529	-2.531515	0.262322	-0.085202	-0.088296	0.999903	0.003627	-0.004478	-0.012657	
14163	    0	13.896741	2.046313	-9.498073	0.261129	-0.766792	-3.352522	0.139648	0.018250	-0.094421	0.999851	0.001306	-0.003834	-0.016762	
14164	    0	12.979927	5.577531	-6.398945	1.495126	-0.834928	-4.529633	0.131289	0.053287	-0.063039	0.999706	0.007475	-0.004174	-0.022646	
14165	    0	21.774984	-0.811827	-5.739718	2.759128	-1.168776	-4.527839	0.217834	-0.012268	-0.056274	0.999631	0.013794	-0.005843	-0.022636	
14166	    0	34.737987	-2.094309	-7.810098	1.780660	-1.338118	-3.906579	0.347404	-0.027046	-0.075999	0.999746	0.008903	-0.006690	-0.019531	
14167	    0	30.844801	-3.968515	-2.393786	0.824997	-0.998009	-4.295709	0.307617	-0.046204	-0.022583	0.999748	0.004125	-0.004990	-0.021477	
14168	    0	16.396136	-6.170038	6.135610	0.127043	-1.170667	-4.969565	0.161998	-0.065782	0.062267	0.999674	0.000635	-0.005853	-0.024845	
14169	    0	11.164364	-5.036593	7.570720	0.290903	-1.421515	-4.973396	0.109802	-0.053223	0.076416	0.999664	0.001454	-0.007107	-0.024864	
14170	    0	15.015127	-5.285269	4.871918	-0.335725	-1.139940	-4.618319	0.148598	-0.056213	0.049662	0.999715	-0.001678	-0.005699	-0.023089	
14171	    0	16.885643	-7.034279	3.899384	-1.335266	-1.105410	-4.359073	0.167053	-0.073730	0.040405	0.999724	-0.006676	-0.005527	-0.021793	
14172	    0	12.964373	-11.620703	1.091714	-1.953481	-1.066298	-3.923558	0.127268	-0.118601	0.012751	0.999745	-0.009767	-0.005331	-0.019616	
14173	    0	8.444505	-18.471091	-1.212149	-1.931684	-0.772140	-3.105344	0.081604	-0.186096	-0.010010	0.999825	-0.009658	-0.003860	-0.015526	
14174	    0	7.335997	-26.125355	-1.449432	-1.662306	-0.691435	-2.047221	0.070724	-0.262094	-0.012071	0.999907	-0.008311	-0.003457	-0.010236	
14175	    0	10.236335	-35.877043	3.994806	-1.727329	-0.568973	-1.195550	0.100098	-0.359009	0.043335	0.999940	-0.008636	-0.002845	-0.005978	
14176	    0	10.926976	-42.967590	7.847146	-1.791603	-0.569544	-0.691998	0.107553	-0.429322	0.082626	0.999949	-0.008958	-0.002848	-0.003460	
14177	    0	7.254644	-41.440221	8.361540	-1.316653	-0.402835	-0.111390	0.072144	-0.413879	0.086487	0.999975	-0.006583	-0.002014	-0.000557	
14178	    0	5.115774	-32.432716	7.772961	0.205422	0.078011	0.432587	0.051889	-0.324295	0.077376	0.999996	0.001027	0.000390	0.002163	
14179	    0	1.987468	-20.685395	4.682836	2.031746	0.458726	0.392921	0.020386	-0.207275	0.044678	0.999944	0.010159	0.002294	0.001965	
14180	    0	-1.793170	-8.962378	6.050305	2.302032	0.437174	-0.218969	-0.017900	-0.090293	0.059505	0.999930	0.011510	0.002186	-0.001095	
14181	    0	1.669426	2.420349	6.059043	1.435103	0.380138	-0.302127	0.016846	0.023743	0.060730	0.999970	0.007175	0.001901	-0.001511	
14182	    0	8.297709	5.132540	5.546034	0.567247	0.418855	0.566294	0.082948	0.051403	0.055432	0.999990	0.002836	0.002094	0.002831	
14183	    0	14.713553	1.822289	6.660219	-0.432593	0.541885	1.666282	0.147156	0.019592	0.066162	0.999959	-0.002163	0.002709	0.008331	
14184	    0	16.244934	0.093734	7.680500	-2.034259	0.387968	2.031779	0.162572	0.003367	0.076464	0.999894	-0.010171	0.001940	0.010159	
14185	    0	13.426916	-0.772404	6.497527	-3.714067	0.036624	1.886886	0.134338	-0.005249	0.065063	0.999783	-0.018569	0.000183	0.009434	
14186	    0	9.326876	-0.118459	4.423778	-4.793124	-0.169582	1.865593	0.093230	0.000747	0.044314	0.999668	-0.023963	-0.000848	0.009327	
14187	    0	8.042905	0.847139	0.325526	-4.732104	-0.183127	2.275347	0.080322	0.009460	0.003113	0.999655	-0.023658	-0.000916	0.011375	
14188	    0	11.710608	-0.870306	-4.271288	-3.249601	-0.137530	2.696810	0.117245	-0.007814	-0.042500	0.999777	-0.016247	-0.000688	0.013483	
14189	    0	18.953325	-2.170351	-7.015005	-0.325022	-0.051691	2.667317	0.189819	-0.019287	-0.070068	0.999909	-0.001625	-0.000258	0.013336	
14190	    0	27.794506	-6.457481	-9.973620	2.328607	-0.500132	2.497034	0.278962	-0.059935	-0.099755	0.999850	0.011642	-0.002501	0.012485	
14191	    0	37.269217	-10.323373	-16.479196	2.697173	-1.261796	2.710907	0.375061	-0.095947	-0.163757	0.999797	0.013485	-0.006309	0.013554	
14192	    0	40.088115	-6.669228	-18.598934	1.173285	-0.901471	3.624003	0.402822	-0.058319	-0.184535	0.999808	0.005866	-0.004507	0.018119	
14193	    0	34.902890	4.851379	-13.492157	0.885278	0.048069	4.500211	0.347778	0.056946	-0.134766	0.999737	0.004426	0.000240	0.022499	
14194	    0	30.601096	14.502596	-11.704610	1.659574	0.189993	4.829932	0.302264	0.153322	-0.116085	0.999673	0.008297	0.000950	0.024147	
14195	    0	23.818127	18.523258	-13.732707	1.937341	0.218418	5.068066	0.233215	0.192505	-0.135742	0.999631	0.009686	0.001092	0.025337	
14196	    0	20.471852	18.764150	-14.015353	1.313169	0.234821	5.061537	0.199704	0.193654	-0.139132	0.999657	0.006565	0.001174	0.025305	
14197	    0	18.471282	19.817783	-13.087198	0.484708	0.120557	4.972594	0.179626	0.203003	-0.130493	0.999687	0.002423	0.000603	0.024860	
14198	    0	16.805180	22.282596	-10.372078	0.061042	0.375791	5.227497	0.161957	0.227144	-0.103960	0.999656	0.000305	0.001879	0.026134	
14199	    0	15.364214	22.805245	-6.823410	-0.198964	0.596701	5.706045	0.146851	0.232239	-0.068909	0.999588	-0.000995	0.002983	0.028526	
14200	    0	11.633876	20.553957	-4.731592	-0.327540	0.559316	5.889800	0.110088	0.208765	-0.047970	0.999560	-0.001637	0.002796	0.029445	
14201	    0	6.498818	17.136868	-3.426506	-0.124184	0.562357	5.461807	0.060181	0.173035	-0.034546	0.999622	-0.000621	0.002811	0.027306	
14202	    0	2.435058	14.194160	-2.739383	0.207347	0.622041	4.556104	0.021024	0.142474	-0.027315	0.999735	0.001037	0.003110	0.022779	
14203	    0	0.247771	13.355180	-4.436559	0.177773	0.803604	3.260194	0.000122	0.133606	-0.044250	0.999858	0.000889	0.004018	0.016300	
14204	    0	-1.561629	16.780764	-5.900233	-0.326163	1.153779	1.852836	-0.017510	0.167555	-0.059178	0.999939	-0.001631	0.005769	0.009264	
14205	    0	-3.661858	23.641878	-3.199008	-0.003815	1.695467	0.807202	-0.037842	0.236267	-0.031677	0.999955	-0.000019	0.008477	0.004036	
14206	    0	-5.083534	21.818943	1.632366	1.105139	1.810490	0.337416	-0.051045	0.218007	0.017990	0.999942	0.005526	0.009052	0.001687	
14207	    0	-4.288350	12.359454	5.024771	1.239220	1.206222	-0.056458	-0.042542	0.123291	0.051270	0.999962	0.006196	0.006031	-0.000282	
14208	    0	-3.856078	9.058587	1.778381	-0.456238	0.015450	-0.171471	-0.038482	0.090659	0.017580	0.999996	-0.002281	0.000077	-0.000857	
14209	    0	-4.102223	6.423809	2.714904	-0.342371	-0.891880	0.365450	-0.041260	0.064209	0.026855	0.999987	-0.001712	-0.004459	0.001827	
14210	    0	0.082232	-3.262735	6.696192	1.862956	-1.659246	0.129894	0.000290	-0.033249	0.066658	0.999922	0.009315	-0.008296	0.000649	
14211	    0	7.658668	-10.664375	2.501257	0.746938	-2.361935	-0.672931	0.075928	-0.106995	0.025513	0.999917	0.003735	-0.011809	-0.003365	
14212	    0	8.942095	-12.243446	5.805947	0.726933	-3.541389	-0.921875	0.087813	-0.123055	0.059177	0.999825	0.003634	-0.017706	-0.004609	
14213	    0	10.536578	-20.333375	-4.164733	2.991737	-3.353973	0.000763	0.106079	-0.202698	-0.042908	0.999747	0.014957	-0.016768	0.000004	
14214	    0	12.344315	-16.173127	-4.379740	3.755453	-1.095277	1.283546	0.124722	-0.160082	-0.046133	0.999787	0.018776	-0.005476	0.006417	
14215	    0	5.886594	-6.803470	-6.835427	3.168679	1.594831	1.384819	0.058777	-0.066528	-0.069885	0.999818	0.015842	0.007974	0.006924	
14216	    0	5.442649	0.606716	3.040861	2.124543	3.308129	0.322554	0.054911	0.005838	0.029566	0.999805	0.010622	0.016540	0.001613	
14217	    0	3.158242	-5.129835	8.349507	1.978582	2.494161	-0.795019	0.032410	-0.052246	0.082581	0.999865	0.009892	0.012470	-0.003975	
14218	    0	1.738262	-6.090145	5.938607	1.184109	1.199369	-1.649323	0.017232	-0.061394	0.058920	0.999930	0.005920	0.005997	-0.008246	
14219	    0	0.894099	-0.399023	0.208079	1.021792	1.029231	-1.989033	0.008911	-0.004089	0.002014	0.999924	0.005109	0.005146	-0.009945	
14220	    0	-0.163771	7.209872	-2.259898	2.681921	1.814589	-2.537716	-0.000919	0.072408	-0.021619	0.999788	0.013409	0.009072	-0.012688	
14221	    0	-5.746952	21.983251	5.206728	1.443013	1.765569	-3.483833	-0.053162	0.220398	0.054138	0.999783	0.007215	0.008827	-0.017418	
14222	    0	-4.060197	18.569454	4.181105	-2.513473	-0.252740	-2.970693	-0.037884	0.186776	0.039419	0.999809	-0.012567	-0.001264	-0.014853	
14223	    0	26.054979	-30.263655	-15.539984	-1.747162	-0.872627	0.572977	0.262085	-0.303223	-0.151611	0.999948	-0.008736	-0.004363	0.002865	
14224	    0	72.657423	-39.249506	-3.355286	1.311533	-1.155698	2.053323	0.730739	-0.384794	-0.031878	0.999908	0.006557	-0.005778	0.010266	
14225	    0	31.896089	-21.098146	-30.873814	0.521299	-3.046539	-0.126653	0.323486	-0.210388	-0.304382	0.999880	0.002606	-0.015232	-0.000633	
14226	    0	3.931598	26.940917	2.388296	-0.802683	-1.146036	-4.388816	0.045082	0.268556	0.023051	0.999734	-0.004013	-0.005730	-0.021942	
14227	    0	-19.203023	65.055569	-7.129433	-1.125416	-1.974438	-3.463230	-0.179993	0.653320	-0.076782	0.999785	-0.005627	-0.009871	-0.017315	
14228	    0	-15.044970	53.307465	-14.431249	-2.305561	-0.405910	-3.162588	-0.141712	0.533648	-0.150756	0.999806	-0.011527	-0.002029	-0.015812	
14229	    0	9.276236	20.861201	-2.443953	-1.812867	-0.026514	-3.599029	0.096497	0.206665	-0.026306	0.999797	-0.009064	-0.000133	-0.017994	
14230	    0	28.129041	1.936891	1.906183	-2.909675	-0.144406	-4.915143	0.281644	0.012727	0.019048	0.999592	-0.014546	-0.000722	-0.024572	
14231	    0	44.265041	0.645771	1.864430	-1.021618	-0.571275	-2.935150	0.442627	0.000061	0.019897	0.999875	-0.005108	-0.002856	-0.014675	
14232	    0	35.016225	-1.380406	-9.671724	-0.670263	-0.795961	-2.522165	0.350329	-0.018542	-0.095266	0.999907	-0.003351	-0.003980	-0.012610	
14233	    0	17.546178	1.618341	-8.484149	0.190174	-1.028502	-3.570763	0.176147	0.013123	-0.083923	0.999826	0.000951	-0.005142	-0.017853	
14234	    0	12.013388	-0.367313	-4.825861	1.775155	-1.355115	-4.339840	0.120346	-0.005859	-0.047489	0.999701	0.008875	-0.006775	-0.021697	
14235	    0	22.167234	-2.879213	-2.619016	2.752410	-1.280350	-4.082166	0.221191	-0.032959	-0.025208	0.999676	0.013761	-0.006401	-0.020409	
14236	    0	37.223230	-2.609523	-4.983228	2.300090	-1.639515	-3.719668	0.372062	-0.032464	-0.047131	0.999727	0.011499	-0.008197	-0.018597	
14237	    0	31.997652	-3.075888	-1.881152	1.082136	-1.349761	-4.301075	0.319336	-0.037537	-0.016846	0.999731	0.005410	-0.006748	-0.021503	
14238	    0	16.424210	-2.285185	6.848770	-0.890648	-1.240498	-5.147599	0.163157	-0.026752	0.069615	0.999640	-0.004453	-0.006202	-0.025735	
14239	    0	11.456082	-2.347955	8.578577	-1.377846	-1.358961	-5.050512	0.113342	-0.025757	0.086731	0.999634	-0.006888	-0.006794	-0.025249	
14240	    0	15.069250	-6.821292	5.894256	-1.780694	-1.197175	-4.487500	0.148761	-0.071032	0.060461	0.999690	-0.008903	-0.005985	-0.022435	
14241	    0	15.371695	-9.664781	1.909741	-2.578244	-1.145102	-4.156931	0.151550	-0.099548	0.021240	0.999684	-0.012890	-0.005725	-0.020782	
14242	    0	10.208707	-16.241045	-0.152533	-2.789932	-1.029295	-3.484268	0.099236	-0.164151	0.001272	0.999738	-0.013948	-0.005146	-0.017420	
14243	    0	5.943637	-23.804419	-2.647174	-2.487321	-0.863505	-2.532337	0.056519	-0.239075	-0.023254	0.999833	-0.012436	-0.004317	-0.012661	
14244	    0	5.491289	-30.779177	-4.289216	-1.980648	-0.816560	-1.542518	0.052701	-0.308607	-0.039620	0.999912	-0.009903	-0.004083	-0.007712	
14245	    0	10.019122	-35.830404	1.156420	-2.181873	-0.424968	-1.124602	0.098145	-0.358704	0.015686	0.999922	-0.010909	-0.002125	-0.005623	
14246	    0	12.408952	-40.208793	4.567486	-1.634430	-0.261120	-0.764857	0.122489	-0.402166	0.049122	0.999958	-0.008172	-0.001306	-0.003824	
14247	    0	9.533023	-39.612473	8.775736	-0.899319	-0.387575	-0.186921	0.094788	-0.395813	0.089722	0.999987	-0.004497	-0.001938	-0.000935	
14248	    0	5.317272	-29.137781	9.081812	-0.056458	-0.100136	0.349045	0.053636	-0.291259	0.090927	0.999998	-0.000282	-0.000501	0.001745	
14249	    0	1.875758	-18.456221	6.593911	1.245317	0.315859	0.329592	0.019165	-0.184937	0.064758	0.999977	0.006227	0.001579	0.001648	
14250	    0	-1.681660	-6.658753	5.993957	1.753831	0.330167	-0.326733	-0.016828	-0.067082	0.059381	0.999958	0.008769	0.001651	-0.001634	
14251	    0	0.868422	4.303077	5.873595	0.772860	0.061226	-0.405122	0.008789	0.042786	0.058899	0.999990	0.003864	0.000306	-0.002026	
14252	    0	7.053628	6.607956	5.976848	-0.258446	0.089264	0.752451	0.070313	0.066422	0.059651	0.999991	-0.001292	0.000446	0.003762	
14253	    0	13.304621	3.565837	8.137260	-1.545566	0.324258	1.976066	0.132812	0.037598	0.080872	0.999920	-0.007728	0.001621	0.009880	
14254	    0	15.119954	0.860384	9.222343	-3.241567	0.204100	2.378815	0.151165	0.011893	0.091894	0.999797	-0.016207	0.001020	0.011893	
14255	    0	13.015327	-0.812145	7.530137	-4.967346	-0.079928	2.190668	0.130188	-0.004822	0.075500	0.999631	-0.024834	-0.000400	0.010952	
14256	    0	9.332886	-0.539213	4.936864	-6.130524	-0.324497	2.030536	0.093287	-0.002926	0.049635	0.999477	-0.030647	-0.001622	0.010151	
14257	    0	7.954690	0.185564	-0.376535	-6.018148	-0.438766	2.212905	0.079529	0.002625	-0.003662	0.999483	-0.030086	-0.002193	0.011063	
14258	    0	11.630054	-1.400141	-7.079189	-4.238933	-0.406306	2.414563	0.116613	-0.014088	-0.070257	0.999700	-0.021193	-0.002031	0.012072	
14259	    0	18.885655	-2.065361	-10.975640	-0.481236	-0.225073	2.369748	0.189209	-0.018677	-0.109497	0.999926	-0.002406	-0.001125	0.011848	
14260	    0	28.067887	-5.517335	-12.445129	3.657057	-0.275634	2.336686	0.281452	-0.049605	-0.125005	0.999763	0.018284	-0.001378	0.011683	
14261	    0	40.511975	-13.962049	-16.740769	5.225424	-1.308454	2.897333	0.408142	-0.129333	-0.168213	0.999532	0.026123	-0.006541	0.014484	
14262	    0	41.426822	-13.537001	-23.112412	2.991640	-1.547229	4.045572	0.418628	-0.123487	-0.229803	0.999653	0.014956	-0.007735	0.020226	
14263	    0	33.991724	-2.480499	-17.073457	1.367319	0.092515	4.602493	0.340271	-0.015808	-0.171021	0.999711	0.006836	0.000463	0.023010	
14264	    0	30.809846	11.544284	-11.291304	2.346093	0.521524	4.390603	0.305153	0.123484	-0.112294	0.999686	0.011729	0.002607	0.021951	
14265	    0	25.351933	18.955949	-15.657893	3.008647	0.032238	4.586604	0.249023	0.197632	-0.153687	0.999623	0.015041	0.000161	0.022930	
14266	    0	20.353595	22.079574	-18.679496	2.318458	-0.053412	4.717607	0.198269	0.227659	-0.184129	0.999654	0.011591	-0.000267	0.023585	
14267	    0	16.930413	23.432134	-16.774723	1.611686	0.223564	4.713165	0.163513	0.239563	-0.166016	0.999689	0.008058	0.001118	0.023563	
14268	    0	16.072212	23.572765	-12.240694	1.209394	0.886825	4.956036	0.154263	0.240341	-0.121656	0.999664	0.006046	0.004434	0.024777	
14269	    0	15.388310	22.170775	-7.856665	0.727934	1.073016	5.290113	0.147522	0.225952	-0.078552	0.999629	0.003639	0.005364	0.026447	
14270	    0	12.156735	20.976876	-5.597630	0.475753	0.902672	5.434538	0.115554	0.213097	-0.056003	0.999618	0.002378	0.004513	0.027169	
14271	    0	7.696157	18.510248	-3.822444	0.889116	0.879769	5.054282	0.072083	0.187134	-0.037720	0.999660	0.004445	0.004398	0.025269	
14272	    0	4.333228	15.084165	-3.048609	1.405072	0.906639	4.176874	0.040031	0.151911	-0.029608	0.999746	0.007025	0.004533	0.020883	
14273	    0	2.533047	13.547926	-5.893322	1.387089	0.968407	2.906936	0.023071	0.136230	-0.058105	0.999858	0.006935	0.004842	0.014534	
14274	    0	0.876236	19.410836	-8.938674	0.162128	1.383234	1.550130	0.006639	0.194238	-0.089280	0.999946	0.000811	0.006916	0.007751	
14275	    0	-2.110434	27.917021	-2.757614	0.731106	2.258360	0.843070	-0.022583	0.279175	-0.026306	0.999920	0.003655	0.011292	0.004215	
14276	    0	-4.248645	19.841448	8.166779	2.994350	2.407802	0.882778	-0.042347	0.196970	0.085135	0.999805	0.014971	0.012038	0.004414	
14277	    0	-4.962265	8.423471	11.147589	3.289965	1.046998	0.682866	-0.049316	0.082214	0.113098	0.999845	0.016449	0.005235	0.003414	
14278	    0	-6.607614	9.623771	5.329246	1.772908	-0.060845	0.790799	-0.066471	0.095498	0.054121	0.999952	0.008864	-0.000304	0.003954	
14279	    0	-5.378384	6.828475	8.322648	2.746674	-0.169187	0.659965	-0.054077	0.066956	0.084106	0.999900	0.013733	-0.000846	0.003300	
14280	    0	-0.978957	3.139945	11.970754	3.596121	-0.319689	-0.345821	-0.009930	0.029258	0.120231	0.999835	0.017980	-0.001598	-0.001729	
14281	    0	8.715988	-2.537030	6.666549	0.827988	-0.914011	-0.955210	0.086731	-0.026062	0.066956	0.999969	0.004140	-0.004570	-0.004776	
14282	    0	7.160148	-6.423762	11.581449	1.268044	-2.371669	0.026704	0.070233	-0.064964	0.116242	0.999909	0.006340	-0.011858	0.000134	
14283	    0	7.092360	-12.253897	1.659098	2.986588	-3.102374	1.304737	0.071472	-0.122314	0.015869	0.999746	0.014932	-0.015511	0.006523	
14284	    0	4.776288	-8.220133	-11.366657	0.582331	-2.179782	1.397937	0.049571	-0.081529	-0.113371	0.999911	0.002912	-0.010899	0.006989	
14285	    0	0.591747	-4.550930	-11.013263	-2.527693	0.413716	0.727866	0.005859	-0.046875	-0.109558	0.999911	-0.012638	0.002069	0.003639	
14286	    0	4.219970	-5.381290	-1.867136	-2.578091	2.022264	0.546671	0.042160	-0.053936	-0.018403	0.999862	-0.012890	0.010111	0.002733	
14287	    0	4.527312	-13.234764	3.659940	-2.059805	1.598404	-0.243385	0.045410	-0.132019	0.037598	0.999914	-0.010299	0.007992	-0.001217	
14288	    0	3.135384	-8.415952	4.006598	-2.170054	0.936154	-1.212728	0.031034	-0.083908	0.040832	0.999911	-0.010850	0.004681	-0.006063	
14289	    0	1.968258	0.388112	1.341528	-0.833144	0.949303	-1.544978	0.019775	0.003784	0.013306	0.999949	-0.004166	0.004746	-0.007725	
14290	    0	-0.099655	6.115454	-0.459288	1.496559	1.743379	-1.821011	-0.000477	0.061193	-0.004129	0.999892	0.007483	0.008717	-0.009105	
14291	    0	-5.440072	17.970123	5.927555	0.862355	2.121839	-2.566655	-0.051453	0.180115	0.060608	0.999851	0.004312	0.010609	-0.012833	
14292	    0	-5.497306	18.268879	5.358767	-1.549410	0.953336	-2.753573	-0.052196	0.183829	0.052420	0.999864	-0.007747	0.004766	-0.013767	
14293	    0	16.064733	-23.296621	-15.096929	-1.288429	-0.820169	-0.630958	0.160522	-0.234436	-0.148804	0.999966	-0.006442	-0.004101	-0.003155	
14294	    0	84.982347	-56.285913	-2.659532	3.337544	-0.593422	2.632915	0.857223	-0.551087	-0.033321	0.999769	0.016686	-0.002967	0.013164	
14295	    0	45.861178	-31.012494	-33.800433	2.342633	-4.108812	-0.053411	0.465393	-0.306335	-0.332092	0.999720	0.011712	-0.020542	-0.000267	
14296	    0	0.403528	19.674270	-4.533150	-0.063139	-1.091098	-4.423333	0.008632	0.196571	-0.045355	0.999740	-0.000316	-0.005455	-0.022115	
14297	    0	-19.530949	63.732441	-3.749133	1.429315	-2.205872	-4.052365	-0.181946	0.641357	-0.034973	0.999708	0.007146	-0.011028	-0.020260	
14298	    0	-19.052561	60.226801	-11.163904	-1.210075	-0.393312	-2.970062	-0.181336	0.604315	-0.115654	0.999869	-0.006050	-0.001966	-0.014850	
14299	    0	8.063294	27.239617	-3.299903	-1.554015	-0.172435	-3.574598	0.085510	0.270630	-0.035034	0.999809	-0.007770	-0.000862	-0.017872	
14300	    0	31.713827	7.625547	2.216014	-3.794920	0.112934	-5.048638	0.318947	0.068620	0.020630	0.999501	-0.018971	0.000565	-0.025239	
14301	    0	50.993180	3.340505	1.382479	-2.140183	-0.847489	-3.180899	0.510315	0.025452	0.015686	0.999806	-0.010700	-0.004237	-0.015903	
14302	    0	33.868206	-5.468429	-7.582938	-1.209688	-0.564597	-2.756990	0.338093	-0.059801	-0.074523	0.999883	-0.006048	-0.002823	-0.013784	
14303	    0	12.987149	-2.703274	-7.968357	-0.076299	-1.067991	-3.724140	0.129761	-0.029480	-0.078979	0.999812	-0.000381	-0.005340	-0.018620	
14304	    0	8.971646	-2.613255	-5.412022	2.033634	-1.391745	-4.319255	0.089507	-0.027519	-0.053772	0.999690	0.010167	-0.006958	-0.021594	
14305	    0	20.474494	-5.806441	-2.628390	3.255856	-1.005485	-4.169205	0.203613	-0.061890	-0.026245	0.999637	0.016277	-0.005027	-0.020844	
14306	    0	38.581530	-6.238904	-3.194782	3.213271	-1.506394	-3.601839	0.384846	-0.068832	-0.030118	0.999680	0.016065	-0.007531	-0.018007	
14307	    0	30.458487	-3.893881	-1.557893	2.007493	-1.378578	-4.231683	0.303772	-0.045227	-0.013916	0.999701	0.010036	-0.006892	-0.021156	
14308	    0	12.034538	-1.708791	6.061396	0.214794	-1.443850	-5.239942	0.119400	-0.020290	0.061458	0.999630	0.001074	-0.007218	-0.026196	
14309	    0	5.848120	-2.146906	5.747375	-0.678902	-1.500872	-4.953565	0.057495	-0.022705	0.057983	0.999659	-0.003394	-0.007504	-0.024765	
14310	    0	11.812227	-8.050529	3.485896	-1.603838	-1.107884	-4.120039	0.116237	-0.082626	0.036163	0.999740	-0.008018	-0.005539	-0.020598	
14311	    0	13.459562	-10.754253	2.004337	-2.569031	-0.978742	-3.529652	0.132568	-0.109619	0.022095	0.999749	-0.012844	-0.004893	-0.017647	
14312	    0	8.848931	-13.225799	-0.218075	-2.980458	-0.683264	-2.971493	0.086514	-0.133563	0.000101	0.999772	-0.014901	-0.003416	-0.014856	
14313	    0	6.374808	-17.863164	-3.073915	-2.948167	-0.450732	-2.212652	0.061829	-0.179749	-0.027954	0.999827	-0.014740	-0.002254	-0.011063	
14314	    0	6.280522	-24.331042	-3.638057	-2.651889	-0.644518	-1.353888	0.061264	-0.244181	-0.032948	0.999884	-0.013259	-0.003222	-0.006769	
14315	    0	9.669623	-33.173120	1.714185	-2.424690	-0.539986	-0.749991	0.095398	-0.331848	0.021423	0.999915	-0.012123	-0.002700	-0.003750	
14316	    0	11.494025	-38.893328	6.351857	-2.012864	-0.437554	-0.617993	0.113594	-0.388618	0.067680	0.999942	-0.010064	-0.002188	-0.003090	
14317	    0	9.562192	-33.831605	8.613384	-1.226625	-0.360873	-0.363925	0.094849	-0.337952	0.088379	0.999977	-0.006133	-0.001804	-0.001820	
14318	    0	6.076703	-21.968101	8.831634	0.353241	-0.146866	-0.121498	0.060569	-0.219873	0.087973	0.999997	0.001766	-0.000734	-0.000607	
14319	    0	0.960809	-13.193718	6.667477	1.693746	0.051308	-0.248721	0.009460	-0.132507	0.065552	0.999963	0.008469	0.000257	-0.001244	
14320	    0	-2.123546	-4.497101	5.415666	1.862364	0.077249	-0.542840	-0.021338	-0.045415	0.053743	0.999952	0.009312	0.000386	-0.002714	
14321	    0	0.408689	0.925794	4.066040	1.073461	-0.057030	-0.308992	0.004089	0.009033	0.040710	0.999984	0.005367	-0.000285	-0.001545	
14322	    0	6.144079	2.385179	4.073711	0.171280	0.100708	0.413514	0.061412	0.023944	0.040727	0.999997	0.000856	0.000504	0.002068	
14323	    0	11.149350	0.311318	5.861915	-0.731475	0.349430	1.257336	0.111572	0.004028	0.058411	0.999971	-0.003657	0.001747	0.006287	
14324	    0	12.251272	-1.081717	6.871804	-1.943258	0.336274	1.569599	0.122705	-0.009188	0.068606	0.999920	-0.009716	0.001681	0.007848	
14325	    0	10.249199	-1.731363	5.670913	-3.238659	0.168619	1.497730	0.102661	-0.015625	0.056885	0.999840	-0.016192	0.000843	0.007488	
14326	    0	7.463209	-1.543236	4.581136	-4.190600	0.024225	1.491288	0.074745	-0.013911	0.046104	0.999752	-0.020951	0.000121	0.007456	
14327	    0	6.851651	-1.082727	1.276593	-4.121746	-0.068480	1.785428	0.068604	-0.009949	0.013000	0.999747	-0.020607	-0.000342	0.008926	
14328	    0	9.586174	-1.591742	-4.548937	-2.850879	-0.131805	2.224662	0.096066	-0.015495	-0.045203	0.999836	-0.014254	-0.000659	0.011123	
14329	    0	16.085306	-1.612577	-7.737078	0.039101	-0.128177	2.271320	0.161072	-0.014282	-0.077271	0.999935	0.000196	-0.000641	0.011356	
14330	    0	25.807221	-5.657310	-8.969144	2.640465	-0.333229	1.999184	0.258762	-0.052802	-0.089974	0.999861	0.013202	-0.001666	0.009995	
14331	    0	37.181340	-9.661055	-13.595719	2.740817	-0.894976	2.140923	0.373413	-0.090759	-0.135559	0.999838	0.013703	-0.004475	0.010704	
14332	    0	40.832075	-8.919755	-15.834535	1.008278	-1.030595	3.273566	0.410509	-0.081697	-0.156658	0.999840	0.005041	-0.005153	0.016367	
14333	    0	33.046843	-1.145702	-11.840881	0.882024	-0.350025	4.140784	0.330811	-0.004089	-0.117859	0.999774	0.004410	-0.001750	0.020702	
14334	    0	29.432388	8.568753	-9.691061	2.107620	-0.047497	4.146950	0.292472	0.092779	-0.095888	0.999729	0.010537	-0.000237	0.020733	
14335	    0	28.320642	16.999458	-12.818207	2.366291	-0.314361	4.140103	0.279785	0.177307	-0.125671	0.999714	0.011830	-0.001572	0.020699	
14336	    0	27.644282	22.474551	-15.603513	1.694078	-0.357090	4.466865	0.271588	0.232156	-0.153602	0.999713	0.008470	-0.001785	0.022332	
14337	    0	24.919344	22.807381	-14.483674	0.586949	0.057989	4.839041	0.243530	0.234436	-0.144226	0.999702	0.002934	0.000290	0.024193	
14338	    0	21.339567	22.032233	-10.256120	-0.106443	0.523819	5.271765	0.207222	0.225784	-0.103229	0.999648	-0.000532	0.002619	0.026356	
14339	    0	17.886601	22.319618	-6.873226	-0.545386	0.544050	5.685442	0.172241	0.227966	-0.069824	0.999588	-0.002727	0.002720	0.028423	
14340	    0	13.700166	22.209456	-4.566940	-0.706014	0.391064	5.887898	0.130299	0.225833	-0.046721	0.999558	-0.003530	0.001955	0.029435	
14341	    0	9.095045	19.286402	-2.851113	-0.555304	0.423489	5.657199	0.085388	0.195251	-0.029236	0.999594	-0.002776	0.002117	0.028282	
14342	    0	5.601961	15.601924	-1.508914	-0.256946	0.626628	4.892656	0.052134	0.157307	-0.015458	0.999695	-0.001285	0.003133	0.024461	
14343	    0	2.751569	13.836447	-1.152850	0.046542	0.780727	3.791283	0.024841	0.138855	-0.011597	0.999812	0.000233	0.003903	0.018955	
14344	    0	0.316849	15.066130	-4.282142	0.025941	0.979072	2.545054	0.001041	0.150689	-0.042810	0.999907	0.000130	0.004895	0.012725	
14345	    0	-2.681176	23.184185	-5.889587	-0.225834	1.399446	1.473262	-0.028931	0.231567	-0.058960	0.999948	-0.001129	0.006997	0.007366	
14346	    0	-6.325409	26.102997	-1.417565	0.855078	1.381897	1.146717	-0.064840	0.260717	-0.012616	0.999950	0.004275	0.006909	0.005733	
14347	    0	-8.270707	13.801705	2.146778	0.975811	0.626572	1.247421	-0.083496	0.137390	0.022400	0.999963	0.004879	0.003133	0.006237	
14348	    0	-5.325287	3.850978	3.549438	0.685505	0.182153	0.973898	-0.053407	0.038128	0.035674	0.999981	0.003428	0.000911	0.004869	
14349	    0	-4.062847	5.179241	0.601818	0.158120	-0.380708	0.745394	-0.040833	0.051636	0.005981	0.999990	0.000791	-0.001904	0.003727	
14350	    0	-3.058902	1.065366	4.068269	2.382921	-1.150737	0.312242	-0.030839	0.010121	0.040628	0.999910	0.011914	-0.005754	0.001561	
14351	    0	3.483826	-9.068553	-0.583123	1.046970	-2.215632	-0.250250	0.034790	-0.090698	-0.005920	0.999924	0.005235	-0.011078	-0.001251	
14352	    0	4.398484	-6.759581	2.549430	-1.147110	-2.204381	-0.460446	0.043542	-0.067547	0.026363	0.999920	-0.005735	-0.011022	-0.002302	
14353	    0	4.743833	-14.819619	12.774603	4.290570	-1.484808	0.331907	0.046753	-0.150818	0.124878	0.999741	0.021451	-0.007423	0.001659	
14354	    0	10.109335	-26.055683	5.458994	6.439830	-0.277952	1.712926	0.103261	-0.261259	0.046327	0.999443	0.032193	-0.001390	0.008563	
14355	    0	11.787731	-27.877001	-13.631864	3.567931	0.486787	1.690022	0.119873	-0.275269	-0.141541	0.999802	0.017838	0.002434	0.008450	
14356	    0	7.753980	-13.017364	-1.716243	1.431549	3.456319	-0.294512	0.077025	-0.130154	-0.019428	0.999824	0.007157	0.017281	-0.001472	
14357	    0	4.735145	-1.651548	14.092463	1.822786	3.320728	-1.365754	0.049561	-0.018127	0.139954	0.999797	0.009113	0.016603	-0.006828	
14358	    0	0.853649	3.751307	10.349722	1.500551	0.971820	-1.779794	0.009369	0.036654	0.103730	0.999920	0.007503	0.004859	-0.008899	
14359	    0	-2.494882	11.138316	-0.554217	0.205996	-0.039482	-1.504531	-0.024109	0.111572	-0.005432	0.999970	0.001030	-0.000197	-0.007523	
14360	    0	-1.427341	16.901445	-6.264823	-0.680929	0.188257	-1.136979	-0.013372	0.168878	-0.063210	0.999977	-0.003405	0.000941	-0.005685	
14361	    0	-1.187319	15.497528	-7.018972	0.315097	1.043140	-1.142132	-0.011353	0.155151	-0.069885	0.999969	0.001575	0.005216	-0.005711	
14362	    0	-4.769166	16.890871	4.260687	-1.305056	1.243256	-2.381795	-0.045412	0.169733	0.041788	0.999888	-0.006525	0.006216	-0.011909	
14363	    0	0.856301	15.313941	2.042901	-4.400980	0.521914	-3.099438	0.010986	0.153381	0.017029	0.999634	-0.022002	0.002609	-0.015495	
14364	    0	13.529498	-16.416333	-9.813662	-3.325101	-1.142384	-1.692307	0.134438	-0.166896	-0.094607	0.999809	-0.016624	-0.005712	-0.008461	
14365	    0	65.462277	-59.700632	-9.585801	3.225215	-1.244267	2.846765	0.663635	-0.585999	-0.101257	0.999749	0.016125	-0.006221	0.014233	
14366	    0	46.072674	-47.622061	-26.254435	1.391104	-3.257736	0.592264	0.466361	-0.473039	-0.258276	0.999838	0.006955	-0.016288	0.002961	
14367	    0	5.297520	4.313660	-9.621477	-0.740666	-1.797588	-3.148068	0.054504	0.041931	-0.095886	0.999828	-0.003703	-0.008987	-0.015739	
14368	    0	-12.980537	54.141507	5.896957	1.666970	-1.784282	-3.732800	-0.120224	0.543208	0.062391	0.999751	0.008334	-0.008921	-0.018662	
14369	    0	-18.139318	67.199882	-9.821658	0.203138	-0.557724	-2.455204	-0.172852	0.674255	-0.098022	0.999920	0.001016	-0.002789	-0.012276	
14370	    0	12.249955	46.103885	-4.040337	-0.782265	-1.002772	-4.152434	0.132239	0.458200	-0.041553	0.999763	-0.003911	-0.005013	-0.020761	
14371	    0	26.668763	15.466700	-5.544888	-4.414521	-0.331757	-5.495067	0.270874	0.145996	-0.058289	0.999377	-0.022068	-0.001658	-0.027470	
14372	    0	38.894735	8.437828	0.163275	-4.582395	0.261350	-4.285944	0.390636	0.076020	-0.000683	0.999507	-0.022908	0.001307	-0.021426	
14373	    0	31.306551	1.995694	-7.804587	-3.260069	-0.083929	-2.342381	0.313293	0.015015	-0.078186	0.999798	-0.016299	-0.000420	-0.011711	
14374	    0	18.961107	-0.479089	-9.511036	-1.058242	-0.432986	-2.965670	0.189713	-0.008105	-0.094663	0.999873	-0.005291	-0.002165	-0.014828	
14375	    0	15.349936	-6.852826	-7.022315	1.714662	-1.229200	-3.998143	0.152527	-0.070984	-0.069885	0.999744	0.008573	-0.006145	-0.019989	
14376	    0	21.445449	-10.422521	-3.815487	3.850539	-1.478027	-4.201542	0.212497	-0.107963	-0.038634	0.999566	0.019250	-0.007389	-0.021005	
14377	    0	32.249245	-6.558913	-4.088209	4.201552	-1.767227	-3.797707	0.321533	-0.070862	-0.039490	0.999559	0.021005	-0.008835	-0.018986	
14378	    0	29.177911	-1.095132	-1.932739	2.710625	-1.523368	-3.920773	0.291630	-0.016426	-0.017303	0.999686	0.013552	-0.007616	-0.019602	
14379	    0	15.070754	1.851219	5.793612	0.916574	-1.504669	-4.609385	0.150635	0.014771	0.059143	0.999695	0.004582	-0.007523	-0.023045	
14380	    0	10.520229	0.469789	6.173881	0.015642	-1.725379	-4.727481	0.104736	0.002213	0.062644	0.999683	0.000078	-0.008626	-0.023635	
14381	    0	14.892367	-5.618065	0.908295	-1.607658	-1.196969	-4.191966	0.147644	-0.059204	0.010437	0.999730	-0.008038	-0.005984	-0.020958	
14382	    0	15.642656	-7.882073	-1.268368	-3.567146	-0.679475	-3.740734	0.154952	-0.081931	-0.010713	0.999660	-0.017834	-0.003397	-0.018702	
14383	    0	12.283803	-10.628189	-0.510920	-4.140010	-0.218990	-3.359621	0.121033	-0.108398	-0.002747	0.999643	-0.020698	-0.001095	-0.016796	
14384	    0	9.124430	-17.118859	-1.798412	-4.054096	0.134672	-2.774518	0.088844	-0.172750	-0.014553	0.999698	-0.020268	0.000673	-0.013871	
14385	    0	6.374791	-24.311458	-1.884230	-3.207582	0.062755	-1.871598	0.061462	-0.243958	-0.014954	0.999827	-0.016037	0.000314	-0.009357	
14386	    0	7.134657	-34.709614	1.772970	-1.914254	-0.368126	-1.056693	0.069475	-0.347275	0.021182	0.999938	-0.009571	-0.001841	-0.005283	
14387	    0	10.008197	-43.746599	3.381483	-1.033601	-0.730902	-0.686651	0.098450	-0.437622	0.036438	0.999973	-0.005168	-0.003654	-0.003433	
14388	    0	7.663479	-45.807368	4.088958	-0.357057	-0.676920	-0.383760	0.075615	-0.458145	0.041965	0.999990	-0.001785	-0.003385	-0.001919	
14389	    0	4.810458	-33.720655	5.892825	0.695802	-0.189782	0.027466	0.048096	-0.337402	0.057800	0.999993	0.003479	-0.000949	0.000137	
14390	    0	2.643180	-19.294881	4.410267	2.114146	0.409706	0.120928	0.026636	-0.193384	0.042006	0.999942	0.010571	0.002048	0.000605	
14391	    0	0.133448	-8.318917	4.634941	2.677428	0.478378	-0.241096	0.001343	-0.083801	0.045227	0.999907	0.013387	0.002392	-0.001205	
14392	    0	1.748287	1.887338	4.306328	2.251674	0.259405	-0.351532	0.017571	0.018356	0.043249	0.999934	0.011258	0.001297	-0.001758	
14393	    0	7.156296	5.659121	3.112404	1.367389	0.215914	0.225069	0.071533	0.056458	0.031433	0.999975	0.006837	0.001080	0.001125	
14394	    0	12.238474	3.866158	4.534591	0.155259	0.389102	1.174744	0.122243	0.039345	0.045138	0.999980	0.000776	0.001945	0.005874	
14395	    0	13.649171	0.834052	6.624780	-1.457819	0.382241	1.740303	0.136536	0.010010	0.065918	0.999933	-0.007289	0.001911	0.008701	
14396	    0	10.901970	-0.192706	6.893442	-3.139282	0.153168	1.713654	0.109077	0.000089	0.068860	0.999840	-0.015696	0.000766	0.008568	
14397	    0	7.661348	-0.533156	5.943895	-4.249943	0.041393	1.694636	0.076660	-0.003418	0.059509	0.999738	-0.021248	0.000207	0.008472	
14398	    0	7.087957	-0.049104	1.762421	-4.341148	0.025942	1.869948	0.070880	0.000554	0.017611	0.999721	-0.021704	0.000130	0.009349	
14399	    0	10.962824	-0.037157	-4.605890	-3.286758	0.045016	2.059303	0.109619	0.000000	-0.046082	0.999811	-0.016433	0.000225	0.010296	
14400	    0	17.794122	0.434982	-9.640694	-0.974102	0.109865	1.956597	0.177837	0.005620	-0.096530	0.999940	-0.004870	0.000549	0.009783	
14401	    0	26.414503	0.185224	-9.971024	1.662675	0.271613	1.666299	0.263977	0.004883	-0.100037	0.999929	0.008313	0.001358	0.008331	
14402	    0	39.041262	-4.778332	-8.398000	3.159511	-0.262466	1.879226	0.390941	-0.042783	-0.084169	0.999829	0.015797	-0.001312	0.009396	
14403	    0	43.024289	-8.267231	-12.700403	2.578169	-0.878783	3.304543	0.432068	-0.073914	-0.126099	0.999770	0.012890	-0.004394	0.016521	
14404	    0	34.895047	-5.666645	-15.363533	1.394188	-0.056080	4.049229	0.350031	-0.048514	-0.153894	0.999770	0.006970	-0.000280	0.020245	
14405	    0	28.533499	5.514544	-11.612103	1.454464	0.582167	3.976743	0.283813	0.061646	-0.116516	0.999771	0.007272	0.002911	0.019882	
14406	    0	24.186610	13.781041	-13.761186	1.922773	0.303676	4.108020	0.238742	0.144053	-0.136611	0.999742	0.009613	0.001518	0.020538	
14407	    0	24.401976	26.175265	-17.352164	1.590110	0.187891	4.373564	0.238037	0.268372	-0.171631	0.999728	0.007950	0.000939	0.021866	
14408	    0	25.570374	26.431374	-18.161437	0.620332	0.291281	4.842096	0.248933	0.270958	-0.181147	0.999701	0.003101	0.001456	0.024208	
14409	    0	21.325379	25.284546	-12.730000	-0.073060	0.924796	5.341230	0.205811	0.258362	-0.128357	0.999632	-0.000365	0.004623	0.026703	
14410	    0	17.243260	22.659450	-8.847521	-0.745125	1.061411	5.924370	0.165153	0.231225	-0.090220	0.999539	-0.003725	0.005306	0.029617	
14411	    0	12.263037	21.039523	-5.355811	-1.058367	0.833454	6.054132	0.115967	0.213684	-0.055176	0.999518	-0.005291	0.004167	0.030266	
14412	    0	7.636423	18.230280	-3.674938	-1.016181	0.577241	5.558761	0.071155	0.184138	-0.037892	0.999597	-0.005080	0.002886	0.027790	
14413	    0	4.311049	14.915666	-2.697534	-0.572830	0.602015	4.644443	0.039551	0.150024	-0.027527	0.999722	-0.002864	0.003010	0.023220	
14414	    0	2.256376	12.856627	-2.459405	-0.080304	0.809332	3.525736	0.020193	0.128926	-0.024731	0.999836	-0.000401	0.004046	0.017628	
14415	    0	0.679431	13.547640	-3.732420	0.095370	1.175151	2.317112	0.005005	0.135559	-0.037292	0.999915	0.000477	0.005876	0.011585	
14416	    0	-1.328318	16.616163	-2.930487	0.773444	1.563292	1.189635	-0.014497	0.166189	-0.028552	0.999944	0.003867	0.007816	0.005948	
14417	    0	-4.249178	22.810424	-3.433744	1.197266	1.760899	0.429543	-0.043274	0.228210	-0.032593	0.999941	0.005986	0.008804	0.002148	
14418	    0	-7.623407	21.589412	-1.132344	1.530104	1.406124	0.543605	-0.076890	0.215761	-0.009133	0.999942	0.007650	0.007030	0.002718	
14419	    0	-8.224966	11.687699	4.493345	1.496146	0.820363	0.785839	-0.082520	0.116211	0.046143	0.999955	0.007481	0.004102	0.003929	
14420	    0	-7.089702	7.013108	5.503330	1.048287	-0.192453	0.917442	-0.071270	0.069515	0.055330	0.999975	0.005241	-0.000962	0.004587	
14421	    0	-4.883262	6.190591	5.945444	1.674869	-0.629435	0.764477	-0.049255	0.061218	0.059814	0.999952	0.008374	-0.003147	0.003822	
14422	    0	2.808905	-3.120783	6.543868	2.507287	-1.060709	0.032998	0.027748	-0.032022	0.065188	0.999907	0.012536	-0.005303	0.000165	
14423	    0	4.589368	-7.884563	-1.295288	-1.022358	-1.759943	-0.573741	0.045776	-0.079041	-0.012146	0.999944	-0.005112	-0.008800	-0.002869	
14424	    0	1.275992	-9.316096	7.703575	0.295837	-2.350672	0.247007	0.011970	-0.093260	0.077042	0.999928	0.001479	-0.011753	0.001235	
14425	    0	3.620765	-21.744496	4.122202	5.417797	-1.451308	1.076654	0.037109	-0.218262	0.035583	0.999592	0.027085	-0.007256	0.005383	
14426	    0	12.053580	-24.923574	-7.833192	3.830224	-0.290700	1.434999	0.122431	-0.246803	-0.082897	0.999789	0.019150	-0.001453	0.007174	
14427	    0	12.081877	-15.385408	-11.062756	1.471736	1.114865	0.935380	0.120911	-0.152466	-0.112427	0.999946	0.007359	0.005574	0.004677	
14428	    0	8.428801	-2.640701	5.268070	0.506232	3.170722	0.126081	0.085125	-0.026484	0.051269	0.999870	0.002531	0.015853	0.000630	
14429	    0	4.164950	-3.298061	12.872447	0.335890	2.042426	-0.319677	0.042908	-0.033264	0.128235	0.999945	0.001679	0.010212	-0.001598	
14430	    0	-0.462766	-1.391658	6.873392	-1.111230	0.071335	-0.814254	-0.004659	-0.013515	0.068811	0.999976	-0.005556	0.000357	-0.004071	
14431	    0	-3.797908	7.151931	-0.445248	-2.524646	-0.077632	-1.059756	-0.037598	0.071655	-0.005371	0.999906	-0.012623	-0.000388	-0.005299	
14432	    0	-2.780945	16.035669	-6.289486	-1.900334	0.702302	-1.128985	-0.027130	0.159904	-0.064320	0.999932	-0.009501	0.003511	-0.005645	
14433	    0	-2.758362	17.268831	-4.759812	0.465404	1.914450	-1.293975	-0.026917	0.172974	-0.046936	0.999930	0.002327	0.009572	-0.006470	
14434	    0	-5.589012	23.758703	10.848918	-2.607146	1.791125	-2.588834	-0.051841	0.239667	0.105850	0.999791	-0.013035	0.008955	-0.012943	
14435	    0	6.405668	2.674009	2.248615	-4.595562	0.086223	-2.925472	0.064453	0.026306	0.021851	0.999628	-0.022975	0.000431	-0.014626	
14436	    0	49.572205	-46.462505	-8.842397	1.131079	-1.358630	1.182578	0.499053	-0.461184	-0.087656	0.999943	0.005655	-0.006793	0.005913	
14437	    0	79.243718	-65.673905	-19.506025	2.768354	-2.739933	1.957858	0.801453	-0.646240	-0.193115	0.999762	0.013841	-0.013699	0.009789	
14438	    0	14.631375	-22.035335	-24.437936	1.130158	-2.460787	-2.018071	0.147092	-0.220456	-0.243818	0.999857	0.005651	-0.012303	-0.010090	
14439	    0	-11.427997	29.456075	17.436853	1.775558	-1.955441	-4.443854	-0.109436	0.295471	0.175903	0.999665	0.008877	-0.009776	-0.022217	
14440	    0	-29.236994	64.540729	-10.918750	3.704332	-0.129900	-1.782352	-0.286526	0.649855	-0.097365	0.999788	0.018520	-0.000649	-0.008911	
14441	    0	-7.275773	59.509349	-2.656234	0.568596	0.080874	-2.484198	-0.065369	0.596008	-0.024841	0.999918	0.002843	0.000404	-0.012421	
14442	    0	23.557151	25.565067	-4.200907	-1.680718	-1.029490	-4.247290	0.241143	0.250211	-0.042895	0.999725	-0.008403	-0.005147	-0.021235	
14443	    0	35.664815	17.786602	-4.551431	-4.713702	-0.684533	-6.262296	0.362122	0.165466	-0.048279	0.999226	-0.023562	-0.003422	-0.031303	
14444	    0	39.834291	13.373229	-6.145696	-4.381715	-0.741858	-3.089137	0.400562	0.126190	-0.062794	0.999634	-0.021906	-0.003709	-0.015444	
14445	    0	21.893229	-3.303239	-14.669811	-2.598711	-0.826880	-2.327090	0.219116	-0.037476	-0.145325	0.999839	-0.012993	-0.004134	-0.011635	
14446	    0	17.145602	-4.510220	-12.056504	-0.324837	-0.422879	-3.292809	0.170935	-0.048115	-0.120127	0.999861	-0.001624	-0.002114	-0.016463	
14447	    0	19.407118	-10.794285	-7.390175	1.777064	-0.689576	-4.516291	0.191833	-0.111633	-0.074219	0.999700	0.008884	-0.003448	-0.022579	
14448	    0	26.423672	-12.051117	-5.929202	3.486779	-1.380938	-4.710528	0.261728	-0.125658	-0.059640	0.999546	0.017431	-0.006904	-0.023549	
14449	    0	34.644920	-5.429224	-6.369729	3.582512	-1.510645	-4.370740	0.345642	-0.060730	-0.062134	0.999572	0.017910	-0.007552	-0.021851	
14450	    0	27.170211	0.903449	0.486361	2.641451	-1.309948	-4.762509	0.271773	0.002482	0.006705	0.999607	0.013206	-0.006549	-0.023809	
14451	    0	13.798238	3.706850	5.062913	0.408990	-1.441193	-5.435138	0.138550	0.033203	0.051697	0.999602	0.002045	-0.007205	-0.027172	
14452	    0	12.506682	3.092936	6.508017	-1.362216	-1.428028	-5.239026	0.125360	0.028094	0.065777	0.999608	-0.006810	-0.007139	-0.026192	
14453	    0	17.386052	-5.121287	5.635348	-2.008856	-1.335295	-4.619358	0.172241	-0.054626	0.058044	0.999660	-0.010043	-0.006676	-0.023094	
14454	    0	17.080488	-14.953142	3.021094	-2.274345	-1.274038	-3.969566	0.167593	-0.152514	0.033009	0.999718	-0.011371	-0.006370	-0.019846	
14455	    0	11.072695	-22.972013	0.515407	-2.773306	-0.802673	-3.154995	0.107056	-0.231323	0.008789	0.999771	-0.013865	-0.004013	-0.015774	
14456	    0	6.147214	-29.469999	-2.377521	-2.987087	-0.483923	-2.294869	0.058133	-0.295690	-0.019220	0.999819	-0.014935	-0.002419	-0.011474	
14457	    0	5.590690	-36.729070	-1.205086	-3.066978	-0.692020	-1.409219	0.053345	-0.367798	-0.006226	0.999851	-0.015334	-0.003460	-0.007046	
14458	    0	9.051817	-40.776526	3.765526	-3.152800	-0.322547	-0.932164	0.088551	-0.407518	0.044225	0.999863	-0.015763	-0.001613	-0.004661	
14459	    0	8.052424	-44.534900	6.556143	-2.148290	-0.234227	-0.383766	0.079590	-0.444763	0.070435	0.999939	-0.010741	-0.001171	-0.001919	
14460	    0	7.222254	-38.717265	8.294688	-0.283241	-0.221634	0.184822	0.072488	-0.386988	0.083575	0.999997	-0.001416	-0.001108	0.000924	
14461	    0	3.620561	-22.075794	8.054221	1.922828	0.252537	0.119783	0.036438	-0.221497	0.078369	0.999952	0.009614	0.001263	0.000599	
14462	    0	-4.384437	-5.215252	8.421244	2.715580	0.056269	-0.586910	-0.043976	-0.053161	0.083508	0.999903	0.013577	0.000281	-0.002934	
14463	    0	-0.229005	2.286402	4.613291	2.799317	0.075724	-0.126652	-0.002258	0.022217	0.046448	0.999902	0.013996	0.000379	-0.000633	
14464	    0	7.397948	3.813561	3.874625	1.434723	0.425153	0.549131	0.073957	0.038060	0.038862	0.999968	0.007174	0.002126	0.002746	
14465	    0	12.226269	6.872571	3.132541	0.114442	0.488475	1.129158	0.121948	0.069397	0.031067	0.999980	0.000572	0.002442	0.005646	
14466	    0	13.464248	3.989930	2.583896	-1.208136	0.488290	1.579122	0.134383	0.041115	0.025265	0.999948	-0.006041	0.002441	0.007895	
14467	    0	11.014505	-1.787454	4.791614	-3.201470	0.271049	1.690004	0.110352	-0.016174	0.048035	0.999835	-0.016006	0.001355	0.008450	
14468	    0	8.247662	-3.877030	3.471320	-4.285996	0.037769	1.613758	0.082788	-0.037348	0.035508	0.999738	-0.021428	0.000189	0.008068	
14469	    0	8.344596	-3.789576	-1.222587	-3.991242	-0.001335	1.564146	0.083740	-0.037476	-0.011475	0.999770	-0.019955	-0.000007	0.007820	
14470	    0	12.327456	-0.053414	-7.279068	-2.448558	0.003624	1.815675	0.123277	-0.000306	-0.072788	0.999884	-0.012242	0.000018	0.009078	
14471	    0	20.985328	1.576545	-9.895532	-0.000572	-0.074769	2.019535	0.209717	0.017883	-0.098877	0.999949	-0.000003	-0.000374	0.010098	
14472	    0	30.647120	0.255632	-9.613902	1.560266	-0.385107	2.407539	0.306589	0.006993	-0.095506	0.999895	0.007801	-0.001925	0.012037	
14473	    0	36.167093	-1.404055	-9.280725	1.807514	-0.909289	3.251847	0.362244	-0.007324	-0.091248	0.999816	0.009037	-0.004546	0.016258	
14474	    0	32.025875	-5.050759	-11.038047	1.337729	-1.001628	4.009371	0.321724	-0.043335	-0.109077	0.999763	0.006688	-0.005008	0.020045	
14475	    0	26.886130	-3.098041	-8.368234	1.059996	-0.561567	4.139267	0.269653	-0.024963	-0.083069	0.999767	0.005300	-0.002808	0.020695	
14476	    0	25.208813	3.072520	-8.030676	1.434241	-0.597807	3.895854	0.251657	0.036201	-0.079308	0.999780	0.007171	-0.002989	0.019478	
14477	    0	26.273188	12.955168	-13.122805	1.831206	-1.072591	3.921834	0.260803	0.135864	-0.128601	0.999751	0.009155	-0.005363	0.019608	
14478	    0	28.507853	22.475872	-18.500745	1.679590	-1.117247	4.493023	0.280931	0.232635	-0.181499	0.999697	0.008397	-0.005586	0.022463	
14479	    0	25.758685	24.404064	-17.968072	1.052983	-0.211932	5.262626	0.251221	0.251648	-0.178101	0.999639	0.005264	-0.001060	0.026310	
14480	    0	20.339146	21.820107	-12.589727	0.392780	0.599375	5.834275	0.196530	0.224249	-0.126057	0.999568	0.001964	0.002996	0.029167	
14481	    0	15.867073	19.928802	-8.431789	-0.148796	0.558749	6.078520	0.152283	0.203918	-0.084900	0.999534	-0.000744	0.002793	0.030388	
14482	    0	11.528747	17.615097	-6.277794	-0.566752	0.348139	5.728180	0.110074	0.179174	-0.063478	0.999584	-0.002833	0.001740	0.028637	
14483	    0	7.687123	15.151563	-4.604456	-0.433204	0.359382	4.964200	0.072998	0.153259	-0.046509	0.999687	-0.002166	0.001797	0.024818	
14484	    0	4.811576	12.936552	-3.271735	0.114067	0.626607	4.027836	0.045395	0.130317	-0.032788	0.999792	0.000570	0.003133	0.020138	
14485	    0	3.481709	11.531523	-2.532140	0.698311	1.001020	2.993905	0.032959	0.115906	-0.025085	0.999868	0.003491	0.005005	0.014969	
14486	    0	2.816628	13.549107	-2.978829	1.058037	1.487966	1.910265	0.026650	0.135906	-0.029272	0.999912	0.005290	0.007440	0.009551	
14487	    0	1.730193	18.051193	-1.591497	1.731171	2.111319	1.005590	0.016235	0.180725	-0.014526	0.999894	0.008656	0.010556	0.005028	
14488	    0	-0.313784	26.047730	-3.851887	1.180500	2.616593	0.449959	-0.004214	0.260690	-0.036930	0.999894	0.005902	0.013083	0.002250	
14489	    0	-3.805910	25.491706	5.998151	2.404921	2.595095	1.041471	-0.038574	0.253967	0.063538	0.999829	0.012024	0.012975	0.005207	
14490	    0	-4.336162	6.742934	12.925125	3.070242	1.152104	1.688099	-0.043168	0.065067	0.130511	0.999829	0.015350	0.005760	0.008440	
14491	    0	-5.670923	1.371674	8.011105	2.177710	-0.387589	2.239320	-0.057007	0.012207	0.080139	0.999876	0.010888	-0.001938	0.011196	
14492	    0	-3.570688	0.512633	7.268082	2.215099	-0.433750	2.269270	-0.035913	0.003915	0.072651	0.999871	0.011075	-0.002169	0.011346	
14493	    0	3.872497	-2.991030	4.484832	2.996189	-0.832211	0.634792	0.038635	-0.030457	0.044556	0.999873	0.014980	-0.004161	0.003174	
14494	    0	1.552232	1.197797	-1.211727	0.202373	-1.724459	-0.654230	0.015665	0.011939	-0.011971	0.999956	0.001012	-0.008622	-0.003271	
14495	    0	-2.584779	-5.824542	11.264679	2.451672	-3.036693	-0.345634	-0.027649	-0.059570	0.111511	0.999807	0.012258	-0.015182	-0.001728	
14496	    0	-0.605165	-14.685512	-4.459103	3.019793	-3.479696	0.415648	-0.004945	-0.146170	-0.046894	0.999732	0.015098	-0.017397	0.002078	
14497	    0	6.741304	-12.615540	-11.160977	1.944788	-1.349487	1.083405	0.068848	-0.124695	-0.112366	0.999915	0.009724	-0.006747	0.005417	
14498	    0	4.181013	-5.545657	-11.819534	1.018352	1.558142	0.964564	0.041151	-0.054653	-0.118797	0.999945	0.005092	0.007791	0.004823	
14499	    0	6.959770	1.178902	4.708670	0.139053	3.412795	0.239575	0.070374	0.011841	0.045898	0.999853	0.000695	0.017063	0.001198	
14500	    0	7.319830	-3.816506	8.631980	-1.243439	2.323223	-0.744843	0.074055	-0.037906	0.085699	0.999906	-0.006217	0.011616	-0.003724	
14501	    0	4.171794	-1.608647	3.638816	-2.339082	1.533574	-1.574775	0.041870	-0.015991	0.036255	0.999870	-0.011695	0.007668	-0.007874	
14502	    0	1.077403	1.765890	2.491363	-0.338756	2.184363	-1.584293	0.011185	0.017613	0.024763	0.999907	-0.001694	0.010921	-0.007921	
14503	    0	-4.650743	9.683733	9.596555	0.502040	2.638572	-2.279018	-0.044128	0.097107	0.096802	0.999845	0.002510	0.013192	-0.011395	
14504	    0	-4.878618	11.396233	14.699189	-2.370964	0.704041	-2.640296	-0.046746	0.116322	0.145789	0.999836	-0.011854	0.003520	-0.013201	
14505	    0	22.652987	-22.197540	-12.596802	-1.595906	-1.223013	-0.267033	0.226990	-0.223267	-0.122803	0.999949	-0.007979	-0.006115	-0.001335	
14506	    0	76.598276	-41.883950	-8.716925	1.112215	-1.122515	2.479833	0.771575	-0.408818	-0.085141	0.999891	0.005561	-0.005612	0.012399	
14507	    0	37.426964	-22.487678	-29.353057	-0.070955	-2.621345	-0.127415	0.377930	-0.225220	-0.288513	0.999913	-0.000355	-0.013106	-0.000637	
14508	    0	1.281762	21.052635	-3.577691	-1.610875	-1.420698	-3.620797	0.016884	0.209949	-0.037359	0.999778	-0.008054	-0.007103	-0.018103	
14509	    0	-18.886885	60.610842	-7.351715	-1.310632	-1.631280	-3.556313	-0.177429	0.608826	-0.078979	0.999786	-0.006553	-0.008156	-0.017780	
14510	    0	-18.869152	60.410851	-15.418007	-2.594307	0.476287	-2.081778	-0.182783	0.603968	-0.161575	0.999859	-0.012971	0.002381	-0.010408	
14511	    0	13.994021	26.436773	-6.820695	-2.760343	0.189987	-3.367881	0.144287	0.260986	-0.071960	0.999762	-0.013801	0.000950	-0.016838	
14512	    0	35.931702	2.785821	1.532347	-3.119416	0.027280	-5.499039	0.359908	0.018202	0.014940	0.999500	-0.015594	0.000136	-0.027491	
14513	    0	46.053360	0.689509	1.121947	-0.669912	-0.562138	-4.178174	0.460510	-0.002686	0.012512	0.999772	-0.003349	-0.002810	-0.020889	
14514	    0	25.310052	-9.282478	-8.202456	-0.114063	-0.666447	-2.576523	0.252148	-0.096124	-0.081129	0.999911	-0.000570	-0.003332	-0.012882	
14515	    0	10.671471	3.834202	-9.605852	0.482963	-1.174790	-3.064105	0.107849	0.036926	-0.095337	0.999862	0.002415	-0.005874	-0.015320	
14516	    0	11.317011	7.481911	-8.150769	2.053062	-0.734395	-4.076367	0.114971	0.073317	-0.080330	0.999732	0.010264	-0.003672	-0.020380	
14517	    0	22.596372	1.114301	-4.605658	2.763713	-1.012357	-4.629334	0.226379	0.006531	-0.044800	0.999623	0.013817	-0.005061	-0.023144	
14518	    0	35.222751	2.488400	-7.488183	2.182995	-1.333374	-4.264890	0.353150	0.018158	-0.072307	0.999690	0.010914	-0.006666	-0.021322	
14519	    0	33.509522	-0.108489	-1.287038	1.316189	-0.929153	-4.353723	0.335022	-0.008301	-0.011353	0.999730	0.006580	-0.004645	-0.021767	
14520	    0	17.864035	-2.458168	9.202900	0.553005	-1.298293	-5.093214	0.177331	-0.029366	0.093106	0.999650	0.002765	-0.006491	-0.025463	
14521	    0	12.447404	-5.707476	9.324691	-0.108160	-1.560405	-5.233652	0.122192	-0.060242	0.094238	0.999626	-0.000541	-0.007801	-0.026165	
14522	    0	17.280740	-6.153795	6.884089	-1.551234	-1.185362	-4.870974	0.170835	-0.065173	0.070354	0.999656	-0.007755	-0.005926	-0.024352	
14523	    0	18.792821	-6.420165	4.880614	-2.636250	-1.111536	-4.308799	0.186218	-0.067566	0.050720	0.999665	-0.013180	-0.005557	-0.021542	
14524	    0	12.434414	-14.160623	0.972395	-2.702935	-0.933724	-3.389636	0.121869	-0.143532	0.012228	0.999754	-0.013514	-0.004668	-0.016947	
14525	    0	8.059086	-24.210643	-0.205900	-2.106388	-0.907942	-2.534608	0.077515	-0.243103	0.000854	0.999853	-0.010531	-0.004539	-0.012672	
14526	    0	6.154215	-31.630461	-0.369727	-1.283299	-0.936533	-1.976066	0.058423	-0.316906	-0.001387	0.999919	-0.006416	-0.004683	-0.009880	
14527	    0	9.568571	-36.291800	1.138006	-1.394493	-0.395974	-1.756325	0.092468	-0.363647	0.014099	0.999935	-0.006972	-0.001980	-0.008781	
14528	    0	11.963567	-41.173957	2.229341	-0.590521	-0.105859	-1.428809	0.116678	-0.412512	0.023573	0.999969	-0.002953	-0.000529	-0.007144	
14529	    0	8.831509	-38.990841	3.701973	0.262452	-0.260736	-0.975041	0.086365	-0.390381	0.036621	0.999986	0.001312	-0.001304	-0.004875	
14530	    0	3.538884	-27.717397	4.583711	0.204659	-0.059319	-0.630571	0.034501	-0.277330	0.045564	0.999994	0.001023	-0.000297	-0.003153	
14531	    0	-0.699477	-16.697232	4.103264	0.178528	0.276375	-0.462342	-0.007324	-0.166992	0.040894	0.999995	0.000893	0.001382	-0.002312	
14532	    0	-2.378652	-9.108966	3.810367	0.477220	0.425531	-0.594141	-0.023976	-0.091109	0.037937	0.999990	0.002386	0.002128	-0.002971	
14533	    0	-0.379960	-1.578332	4.942574	-0.081635	0.332833	-0.848392	-0.003784	-0.015747	0.049438	0.999990	-0.000408	0.001664	-0.004242	
14534	    0	5.130674	3.556102	4.566939	-0.745013	0.188447	-0.439264	0.051428	0.035618	0.045488	0.999990	-0.003725	0.000942	-0.002196	
14535	    0	11.161090	0.926683	5.009704	-0.896268	0.227357	0.711064	0.111633	0.009888	0.049927	0.999983	-0.004481	0.001137	0.003555	
14536	    0	12.211525	-4.094539	7.479246	-1.398108	0.112726	1.292821	0.122416	-0.039631	0.075004	0.999954	-0.006990	0.000564	0.006464	
14537	    0	8.177669	-3.956282	7.495433	-2.037667	-0.071718	1.138332	0.081970	-0.038330	0.075378	0.999931	-0.010188	-0.000359	0.005692	
14538	    0	5.510853	-2.889582	7.455155	-2.925992	-0.079730	1.110504	0.055234	-0.027494	0.074983	0.999877	-0.014629	-0.000399	0.005552	
14539	    0	6.325183	0.584335	5.850494	-3.781384	-0.112732	1.382540	0.063171	0.007385	0.058411	0.999797	-0.018906	-0.000564	0.006912	
14540	    0	10.537269	0.651577	1.565578	-4.070046	-0.052266	1.813276	0.105302	0.007788	0.015533	0.999751	-0.020349	-0.000261	0.009066	
14541	    0	14.815791	0.102076	-4.247916	-3.443183	0.048831	1.999796	0.148132	0.001770	-0.042542	0.999802	-0.017215	0.000244	0.009998	
14542	    0	18.541305	2.131319	-9.056521	-1.153401	0.108149	2.060557	0.185135	0.022698	-0.090794	0.999929	-0.005767	0.000541	0.010303	
14543	    0	24.208494	-1.213958	-9.527334	2.459827	0.257313	2.150060	0.242065	-0.008362	-0.095703	0.999866	0.012299	0.001287	0.010750	
14544	    0	34.601400	-10.664090	-9.359264	4.718574	-0.247031	2.449515	0.347384	-0.100152	-0.095578	0.999645	0.023590	-0.001235	0.012246	
14545	    0	40.976930	-14.521567	-17.328423	3.561785	-1.348068	3.367977	0.413269	-0.135193	-0.172974	0.999677	0.017807	-0.006740	0.016838	
14546	    0	37.280461	-9.575992	-20.865281	1.434630	-0.467146	4.073463	0.375118	-0.086639	-0.208422	0.999763	0.007173	-0.002336	0.020366	
14547	    0	34.994263	4.322430	-15.225370	1.397046	0.455700	3.963766	0.348633	0.051208	-0.152710	0.999776	0.006985	0.002278	0.019817	
14548	    0	32.467111	18.167917	-16.156543	1.895132	0.290708	4.384841	0.320329	0.190257	-0.160257	0.999713	0.009475	0.001453	0.021922	
14549	    0	28.085727	25.798164	-18.397071	1.895555	0.387619	4.942139	0.273987	0.266541	-0.182007	0.999647	0.009477	0.001938	0.024708	
14550	    0	21.882970	24.032757	-16.402868	1.617830	0.561405	5.280219	0.211904	0.247303	-0.162648	0.999615	0.008088	0.002807	0.026398	
14551	    0	18.840888	22.356090	-12.597764	0.915080	0.998061	5.561825	0.181458	0.229248	-0.125854	0.999590	0.004575	0.004990	0.027805	
14552	    0	17.981622	23.598584	-8.198336	0.193626	1.155269	5.980654	0.172176	0.241291	-0.082761	0.999536	0.000968	0.005775	0.029899	
14553	    0	14.391408	24.385093	-5.046675	-0.086799	0.827931	6.352557	0.135864	0.248230	-0.051147	0.999487	-0.000434	0.004139	0.031757	
14554	    0	9.418051	20.949277	-3.686047	0.015261	0.592517	6.152179	0.087569	0.212257	-0.037110	0.999522	0.000076	0.002962	0.030756	
14555	    0	5.070717	16.789515	-2.731411	0.193237	0.552434	5.319849	0.046143	0.169189	-0.027283	0.999641	0.000966	0.002762	0.026596	
14556	    0	1.967654	14.148942	-2.165300	0.525514	0.473058	4.184083	0.016660	0.141915	-0.021322	0.999774	0.002627	0.002365	0.020919	
14557	    0	0.489020	13.536469	-4.244725	0.684382	0.485438	2.832897	0.002869	0.135559	-0.041992	0.999890	0.003422	0.002427	0.014164	
14558	    0	-0.575518	19.387014	-8.160612	-0.257496	0.950254	1.507017	-0.007604	0.193712	-0.081822	0.999959	-0.001287	0.004751	0.007535	
14559	    0	-3.524438	30.253613	-3.034629	0.473222	1.833378	0.972766	-0.036987	0.302429	-0.029297	0.999943	0.002366	0.009167	0.004864	
14560	    0	-5.027220	21.944186	6.553349	3.163339	1.769555	1.211431	-0.050993	0.218057	0.069439	0.999817	0.015816	0.008847	0.006057	
14561	    0	-3.821483	7.871440	9.197685	2.745154	0.499171	0.891908	-0.038330	0.077271	0.093140	0.999892	0.013725	0.002496	0.004459	
14562	    0	-4.968759	9.300834	4.311512	0.510218	-0.422098	0.876050	-0.050185	0.092679	0.043246	0.999985	0.002551	-0.002110	0.004380	
14563	    0	-6.533273	8.212199	6.227191	1.503964	-0.804912	0.518043	-0.065796	0.081482	0.062622	0.999960	0.007520	-0.004025	0.002590	
14564	    0	-4.653305	3.656507	6.509654	2.185498	-1.179345	-0.434887	-0.046839	0.035954	0.065216	0.999920	0.010927	-0.005897	-0.002174	
14565	    0	2.335354	-2.369641	7.534898	-0.250822	-2.143143	-0.702682	0.022461	-0.023682	0.075623	0.999935	-0.001254	-0.010715	-0.003513	
14566	    0	3.683775	-11.600236	12.142884	2.523274	-3.967270	-0.228331	0.034306	-0.117568	0.120649	0.999722	0.012615	-0.019835	-0.001142	
14567	    0	7.083622	-19.744277	-11.658183	3.353702	-3.995981	0.925554	0.074097	-0.195129	-0.118408	0.999649	0.016767	-0.019978	0.004627	
14568	    0	9.613064	-14.764779	-15.633121	2.493390	-1.285034	1.468529	0.098211	-0.144973	-0.157523	0.999874	0.012466	-0.006425	0.007342	
14569	    0	4.976491	-7.271689	-7.964197	0.822490	3.301597	0.740852	0.048706	-0.072205	-0.080750	0.999848	0.004112	0.016507	0.003704	
14570	    0	7.783917	-3.243569	9.818843	-0.307865	3.877122	0.140771	0.079746	-0.032230	0.096704	0.999810	-0.001539	0.019384	0.000704	
14571	    0	5.831391	-9.059700	10.387124	-0.487335	1.754024	-0.581369	0.058960	-0.090515	0.103577	0.999954	-0.002437	0.008770	-0.002907	
14572	    0	3.535699	-5.584608	4.470948	-1.112761	0.654419	-1.145949	0.035184	-0.055799	0.044905	0.999962	-0.005564	0.003272	-0.005730	
14573	    0	2.716156	0.383898	-1.294355	0.176433	1.344320	-1.389335	0.027100	0.003662	-0.013123	0.999952	0.000882	0.006721	-0.006947	
14574	    0	-0.968429	10.119065	0.872638	1.405223	2.445931	-2.364483	-0.008374	0.101230	0.009545	0.999830	0.007026	0.012229	-0.011822	
14575	    0	-8.300475	22.445063	10.494349	-0.891158	1.380417	-3.036650	-0.078857	0.226135	0.104492	0.999850	-0.004456	0.006902	-0.015182	
14576	    0	-0.808818	-4.290095	-5.883385	-3.435944	-1.229180	-1.797228	-0.008121	-0.043831	-0.058136	0.999793	-0.017179	-0.006145	-0.008986	
14577	    0	47.313369	-41.658459	-7.309908	0.671585	0.322727	1.419083	0.475952	-0.412964	-0.075256	0.999968	0.003358	0.001614	0.007095	
14578	    0	64.753469	-35.707254	-16.053372	1.917183	-2.704199	1.558963	0.652406	-0.350495	-0.155115	0.999832	0.009585	-0.013520	0.007794	
14579	    0	19.026633	-2.857092	-18.725631	0.826485	-1.725071	-2.331631	0.191528	-0.030029	-0.185730	0.999886	0.004132	-0.008625	-0.011658	
14580	    0	-2.987604	48.752517	5.314064	0.862407	-1.800354	-4.736659	-0.018814	0.487823	0.055041	0.999669	0.004312	-0.009001	-0.023681	
14581	    0	-23.139557	65.517262	-13.446920	-0.724822	-0.969544	-2.867242	-0.221313	0.657898	-0.137939	0.999879	-0.003624	-0.004848	-0.014336	
14582	    0	-7.498314	44.364266	-7.901893	-1.476941	-0.551445	-3.257548	-0.067527	0.444182	-0.082491	0.999836	-0.007384	-0.002757	-0.016287	
14583	    0	16.703949	12.274509	-5.223056	-3.313847	-0.380562	-4.235590	0.169678	0.118286	-0.053894	0.999637	-0.016567	-0.001903	-0.021175	
14584	    0	36.353123	10.309433	0.984687	-3.888501	-0.125909	-5.596481	0.366223	0.093040	0.008203	0.999419	-0.019439	-0.000629	-0.027977	
14585	    0	43.947677	2.333703	-5.209800	-1.547308	-0.804745	-2.716945	0.439941	0.016968	-0.050476	0.999869	-0.007736	-0.004024	-0.013584	
14586	    0	25.007702	-6.397511	-11.251893	-1.325279	-0.785859	-2.691758	0.249618	-0.068076	-0.111095	0.999879	-0.006626	-0.003929	-0.013458	
14587	    0	14.184757	-0.772214	-8.475486	0.339720	-0.849968	-3.768394	0.142029	-0.010254	-0.084167	0.999811	0.001698	-0.004250	-0.018841	
14588	    0	15.712654	-3.795761	-4.299934	2.558446	-1.139016	-4.612338	0.156447	-0.041024	-0.042619	0.999636	0.012791	-0.005694	-0.023059	
14589	    0	25.649635	-5.966173	-4.945711	3.684797	-1.683874	-4.495925	0.255493	-0.064514	-0.048462	0.999541	0.018421	-0.008418	-0.022476	
14590	    0	35.107379	-2.662914	-6.227110	3.032863	-1.778438	-4.106831	0.350979	-0.032920	-0.059617	0.999634	0.015162	-0.008891	-0.020532	
14591	    0	25.881063	-0.238550	1.479775	1.604073	-1.341401	-4.805543	0.258545	-0.008728	0.016479	0.999657	0.008019	-0.006706	-0.024025	
14592	    0	13.573402	1.079958	7.354675	-0.192095	-1.583690	-5.403661	0.135373	0.007210	0.074612	0.999602	-0.000960	-0.007917	-0.027015	
14593	    0	13.639230	0.678978	8.083260	-1.363546	-1.451104	-5.143627	0.135925	0.003845	0.081787	0.999619	-0.006817	-0.007255	-0.025715	
14594	    0	19.895531	-3.282774	4.771728	-2.256852	-1.207686	-4.682143	0.197828	-0.036918	0.049315	0.999643	-0.011283	-0.006038	-0.023408	
14595	    0	17.620738	-9.669623	0.543161	-2.800314	-1.065760	-4.353839	0.174011	-0.100403	0.007751	0.999650	-0.014000	-0.005328	-0.021767	
14596	    0	10.216774	-19.611083	-1.023223	-2.819310	-0.822712	-3.547028	0.098701	-0.197996	-0.007039	0.999735	-0.014095	-0.004113	-0.017734	
14597	    0	5.589043	-27.500471	-1.543341	-2.373432	-0.519588	-2.448394	0.052551	-0.275818	-0.012024	0.999851	-0.011867	-0.002598	-0.012241	
14598	    0	6.254594	-34.290665	-2.380526	-1.955087	-0.661868	-1.567312	0.059926	-0.343593	-0.020247	0.999915	-0.009775	-0.003309	-0.007836	
14599	    0	10.545919	-36.983033	0.776436	-1.758613	-0.758187	-1.194026	0.103210	-0.370361	0.011414	0.999936	-0.008793	-0.003791	-0.005970	
14600	    0	10.521483	-37.703429	3.260776	-1.569198	-0.577935	-0.791179	0.103622	-0.377173	0.035868	0.999957	-0.007846	-0.002890	-0.003956	
14601	    0	7.691895	-38.018185	7.920956	-0.777438	-0.481989	-0.034332	0.076660	-0.379883	0.080872	0.999990	-0.003887	-0.002410	-0.000172	
14602	    0	5.229354	-29.984315	9.167090	-0.298882	-0.103188	0.409890	0.052860	-0.299598	0.092146	0.999996	-0.001494	-0.000516	0.002049	
14603	    0	1.328043	-19.399785	7.537583	0.619699	0.092316	0.241852	0.013550	-0.194214	0.074768	0.999994	0.003098	0.000462	0.001209	
14604	    0	-0.631148	-8.679249	4.451917	1.785493	0.185397	-0.194361	-0.006355	-0.087179	0.043748	0.999959	0.008927	0.000927	-0.000972	
14605	    0	0.660797	1.179945	5.218759	1.181802	0.297739	-0.485996	0.006714	0.011475	0.052246	0.999978	0.005909	0.001489	-0.002430	
14606	    0	6.114852	5.397301	6.460550	0.223351	0.168419	0.264740	0.061131	0.053982	0.064614	0.999998	0.001117	0.000842	0.001324	
14607	    0	13.599242	3.455371	5.896573	-0.717935	0.090982	1.564808	0.135742	0.035828	0.058777	0.999963	-0.003590	0.000455	0.007824	
14608	    0	15.716899	0.313886	7.036288	-2.157292	-0.090602	2.065735	0.157088	0.005521	0.070383	0.999887	-0.010786	-0.000453	0.010328	
14609	    0	12.065951	-0.974875	6.128690	-3.762342	-0.440822	1.998291	0.120605	-0.007385	0.061707	0.999770	-0.018810	-0.002204	0.009991	
14610	    0	9.281217	-1.085140	2.608732	-4.475864	-0.452851	2.121190	0.092856	-0.009276	0.026517	0.999690	-0.022377	-0.002264	0.010605	
14611	    0	10.643258	0.040473	-1.849764	-3.811208	-0.273728	2.421776	0.106445	0.001343	-0.018372	0.999743	-0.019054	-0.001369	0.012108	
14612	    0	17.761771	-0.157550	-6.168959	-1.623210	-0.090221	2.391708	0.177651	0.000049	-0.061605	0.999895	-0.008116	-0.000451	0.011958	
14613	    0	28.245560	-2.277738	-7.389314	1.192694	-0.115207	2.114920	0.282715	-0.019348	-0.073853	0.999926	0.005963	-0.000576	0.010574	
14614	    0	38.212626	-5.798950	-10.515214	2.520506	-0.699653	2.457560	0.383156	-0.051966	-0.104493	0.999839	0.012602	-0.003498	0.012287	
14615	    0	40.787799	-4.646685	-13.399313	2.322589	-1.194676	3.733386	0.409424	-0.037292	-0.132019	0.999740	0.011612	-0.005973	0.018665	
14616	    0	35.202765	-1.469635	-13.723450	1.721942	-0.774464	4.617216	0.352752	-0.005383	-0.135942	0.999688	0.008609	-0.003872	0.023084	
14617	    0	32.769258	6.252618	-11.664268	1.401658	-0.420230	4.641419	0.326355	0.070923	-0.115479	0.999703	0.007008	-0.002101	0.023205	
14618	    0	32.647592	15.883185	-13.167374	1.626563	-0.604501	4.641054	0.323050	0.167414	-0.129355	0.999693	0.008132	-0.003022	0.023203	
14619	    0	32.088425	22.879929	-15.968542	1.677144	-0.384377	5.106209	0.315186	0.238220	-0.157104	0.999637	0.008385	-0.001922	0.025528	
14620	    0	28.603405	25.430605	-16.116981	1.246433	0.031857	5.614291	0.278703	0.263197	-0.159593	0.999586	0.006231	0.000159	0.028068	
14621	    0	21.814994	26.128974	-12.880029	0.485495	0.476910	6.022803	0.209839	0.268005	-0.128662	0.999540	0.002427	0.002384	0.030109	
14622	    0	16.590010	26.615558	-7.730053	-0.031668	0.852737	6.482516	0.156829	0.271325	-0.078025	0.999465	-0.000158	0.004263	0.032407	
14623	    0	12.195235	24.928788	-4.627872	-0.311146	0.771474	6.597590	0.113464	0.253052	-0.047119	0.999447	-0.001555	0.003857	0.032982	
14624	    0	7.830281	20.554721	-3.188061	-0.316478	0.559320	6.036350	0.071964	0.207732	-0.032415	0.999539	-0.001582	0.002796	0.030177	
14625	    0	4.053647	16.306290	-2.421130	-0.060279	0.489287	5.009226	0.036377	0.164001	-0.024353	0.999682	-0.000301	0.002446	0.025043	
14626	    0	1.592481	13.562843	-2.525520	0.317211	0.537333	3.775064	0.013293	0.135936	-0.025078	0.999817	0.001586	0.002687	0.018874	
14627	    0	0.613692	13.213795	-4.691187	0.543418	0.696583	2.388828	0.004395	0.132324	-0.046570	0.999918	0.002717	0.003483	0.011944	
14628	    0	-1.114543	18.851148	-4.943832	0.534256	1.257723	1.168076	-0.012555	0.188572	-0.048859	0.999959	0.002671	0.006289	0.005840	
14629	    0	-4.505735	27.471051	-4.293512	1.095030	1.815831	0.425729	-0.046021	0.274841	-0.041016	0.999941	0.005475	0.009079	0.002129	
14630	    0	-8.833845	27.121820	4.545410	3.156672	2.126638	0.863893	-0.088986	0.270062	0.050667	0.999809	0.015782	0.010633	0.004319	
14631	    0	-9.259007	7.632764	12.325878	3.709094	1.177296	1.150592	-0.092285	0.073486	0.125183	0.999794	0.018544	0.005886	0.005753	
14632	    0	-6.662511	5.529947	7.123532	1.704627	-0.111391	1.105518	-0.066967	0.054320	0.071664	0.999948	0.008523	-0.000557	0.005527	
14633	    0	-4.047097	5.675514	5.134140	1.731327	-0.653086	0.468452	-0.040771	0.056213	0.051697	0.999954	0.008657	-0.003265	0.002342	
14634	    0	-0.222430	-0.275021	4.499662	2.481356	-1.321266	-0.684953	-0.002532	-0.003300	0.044942	0.999895	0.012406	-0.006606	-0.003425	
14635	    0	1.489284	-5.208681	4.789871	-0.159458	-2.164321	-1.051356	0.014099	-0.052124	0.048096	0.999927	-0.000797	-0.010821	-0.005257	
14636	    0	1.323577	-9.817704	13.443158	2.637696	-3.484818	-0.631384	0.010592	-0.099977	0.133321	0.999756	0.013187	-0.017423	-0.003157	
14637	    0	5.168930	-14.949512	-8.274209	4.266260	-2.883469	0.428057	0.053223	-0.147583	-0.085144	0.999666	0.021329	-0.014416	0.002140	
14638	    0	6.354089	-10.534943	-14.118735	3.348148	0.067333	1.258345	0.064144	-0.102564	-0.142941	0.999840	0.016740	0.000337	0.006291	
14639	    0	3.460155	-7.836084	-7.834186	0.337243	4.101281	0.248736	0.033081	-0.078186	-0.079163	0.999787	0.001686	0.020505	0.001244	
14640	    0	10.226940	-10.012672	10.435314	0.010300	4.317244	-0.620700	0.104178	-0.100453	0.102113	0.999762	0.000051	0.021585	-0.003103	
14641	    0	9.048786	-13.531453	11.096036	-0.287639	2.577494	-1.425986	0.090942	-0.135803	0.109985	0.999890	-0.001438	0.012887	-0.007130	
14642	    0	4.099944	-4.938509	5.111531	-1.869833	1.181258	-1.642661	0.040897	-0.049242	0.051334	0.999905	-0.009349	0.005906	-0.008213	
14643	    0	1.160789	6.185861	2.130767	-1.204516	1.015494	-1.591525	0.012207	0.061890	0.020874	0.999937	-0.006022	0.005077	-0.007957	
14644	    0	0.831422	11.750068	-4.823428	1.476713	1.758055	-1.352541	0.008691	0.117795	-0.047441	0.999910	0.007383	0.008790	-0.006763	
14645	    0	-4.955600	18.287881	4.610150	0.294700	2.619303	-2.259177	-0.046875	0.183350	0.046997	0.999849	0.001473	0.013096	-0.011295	
14646	    0	4.031024	-1.728345	0.656892	-3.346449	-0.194942	-1.689247	0.040156	-0.017509	0.006900	0.999824	-0.016731	-0.000975	-0.008446	
14647	    0	62.075194	-42.043897	-7.190473	0.875103	-0.705538	1.417561	0.623962	-0.415710	-0.071533	0.999959	0.004375	-0.003528	0.007088	
14648	    0	59.120818	-36.153139	-26.355923	0.737220	-2.985502	0.429361	0.595840	-0.359303	-0.256015	0.999879	0.003686	-0.014927	0.002147	
14649	    0	8.135594	2.631273	-20.483037	-0.653873	-2.245258	-2.668139	0.083984	0.024536	-0.203979	0.999843	-0.003269	-0.011226	-0.013340	
14650	    0	-15.557896	47.715773	0.392043	-0.567096	-1.934383	-3.668099	-0.146813	0.479910	0.001114	0.999781	-0.002835	-0.009671	-0.018339	
14651	    0	-29.015633	63.990976	-15.243923	-1.817940	0.168614	-1.659435	-0.284973	0.640869	-0.158020	0.999924	-0.009089	0.000843	-0.008297	
14652	    0	3.069448	43.305056	-10.307996	-1.632786	0.010110	-3.368956	0.037968	0.431591	-0.106609	0.999825	-0.008163	0.000051	-0.016844	
14653	    0	28.874239	10.233872	-2.572436	-3.459010	0.467191	-5.462077	0.291321	0.093933	-0.028076	0.999475	-0.017292	0.002336	-0.027306	
14654	    0	45.825435	2.783977	4.420785	-2.605638	0.013926	-5.399177	0.458797	0.016031	0.043916	0.999550	-0.013026	0.000070	-0.026992	
14655	    0	38.251647	-11.956316	-2.641441	-0.739115	-0.907157	-2.096608	0.381348	-0.123657	-0.024231	0.999928	-0.003695	-0.004536	-0.010483	
14656	    0	16.295071	-3.243451	-7.360101	0.135427	-0.870738	-2.908246	0.162775	-0.034753	-0.072915	0.999884	0.000677	-0.004354	-0.014541	
14657	    0	6.310471	2.228321	-7.197107	2.450054	-1.485407	-4.103517	0.064087	0.021851	-0.071228	0.999686	0.012249	-0.007426	-0.020515	
14658	    0	13.704254	1.371900	-5.986525	3.291982	-1.164603	-4.699425	0.137674	0.011463	-0.058864	0.999571	0.016458	-0.005822	-0.023494	
14659	    0	34.576293	2.299995	-3.778968	2.897184	-0.976474	-3.966937	0.346313	0.016663	-0.035828	0.999686	0.014484	-0.004882	-0.019833	
14660	    0	43.031772	-0.194425	-4.120210	2.123621	-1.264673	-3.622345	0.430443	-0.009321	-0.038553	0.999759	0.010617	-0.006323	-0.018110	
14661	    0	21.193412	-4.628680	6.107640	0.452469	-1.167225	-4.765802	0.210388	-0.051453	0.062195	0.999696	0.002262	-0.005836	-0.023827	
14662	    0	9.111620	-4.783883	10.000510	-0.326009	-1.690325	-5.358259	0.088944	-0.050077	0.100843	0.999603	-0.001630	-0.008451	-0.026788	
14663	    0	12.325714	-5.137710	6.250833	-0.920210	-1.284746	-4.998589	0.121521	-0.054138	0.063538	0.999656	-0.004601	-0.006423	-0.024990	
14664	    0	16.865627	-6.566385	2.448590	-2.251863	-1.131177	-4.361423	0.167030	-0.069030	0.026198	0.999682	-0.011258	-0.005655	-0.021805	
14665	    0	14.590004	-9.730634	-0.650379	-3.019054	-0.846945	-3.667043	0.144104	-0.100037	-0.004395	0.999708	-0.015094	-0.004234	-0.018333	
14666	    0	9.445806	-19.230570	-1.957409	-3.109020	-0.576253	-2.818128	0.091784	-0.193882	-0.016301	0.999775	-0.015544	-0.002881	-0.014090	
14667	    0	5.064031	-27.722561	-2.971006	-2.272696	-0.762970	-1.951677	0.048035	-0.278015	-0.026367	0.999880	-0.011363	-0.003815	-0.009758	
14668	    0	6.022994	-34.967659	0.227301	-1.574357	-0.687232	-1.371602	0.057816	-0.350045	0.005229	0.999939	-0.007872	-0.003436	-0.006858	
14669	    0	10.709347	-40.001348	1.150591	-1.071750	-0.270083	-1.077281	0.104919	-0.400513	0.013794	0.999969	-0.005359	-0.001350	-0.005386	
14670	    0	10.937842	-42.737396	4.318949	-0.288582	-0.273705	-0.613786	0.108006	-0.427644	0.043955	0.999992	-0.001443	-0.001369	-0.003069	
14671	    0	7.395816	-34.274618	8.441961	0.000191	-0.144959	-0.239563	0.073486	-0.342834	0.084473	0.999998	0.000001	-0.000725	-0.001198	
14672	    0	2.222533	-21.673186	7.399829	0.491715	0.101280	-0.140762	0.022110	-0.216928	0.073454	0.999996	0.002459	0.000506	-0.000704	
14673	    0	-1.458061	-11.522153	6.288021	1.330006	0.292208	-0.486760	-0.014771	-0.115601	0.062134	0.999973	0.006650	0.001461	-0.002434	
14674	    0	-1.586799	-2.550724	5.135904	1.265156	0.077630	-0.817497	-0.015953	-0.025766	0.051203	0.999971	0.006326	0.000388	-0.004087	
14675	    0	3.183296	2.679102	2.830434	0.922397	-0.094414	-0.305940	0.031860	0.026611	0.028442	0.999988	0.004612	-0.000472	-0.001530	
14676	    0	9.281788	2.810642	3.216378	0.350953	0.064278	0.784495	0.092717	0.028414	0.032184	0.999990	0.001755	0.000321	0.003922	
14677	    0	13.076622	-0.407097	6.579503	-0.755893	0.203708	1.644920	0.130859	-0.002747	0.065674	0.999958	-0.003779	0.001019	0.008224	
14678	    0	12.961288	-1.819845	7.680092	-2.100246	0.068857	1.728683	0.129786	-0.016270	0.076934	0.999907	-0.010501	0.000344	0.008643	
14679	    0	10.733341	-2.587247	7.309884	-3.544080	-0.143251	1.655684	0.107483	-0.023682	0.073608	0.999808	-0.017719	-0.000716	0.008278	
14680	    0	8.627481	-0.414133	4.499662	-4.454089	-0.306541	1.796896	0.086232	-0.002361	0.045195	0.999710	-0.022268	-0.001533	0.008984	
14681	    0	9.878435	0.473290	-1.755843	-4.334686	-0.311882	2.185274	0.098755	0.005432	-0.017517	0.999703	-0.021671	-0.001559	0.010925	
14682	    0	15.967727	0.122401	-7.287577	-2.770577	-0.216115	2.349792	0.159735	0.002092	-0.072728	0.999834	-0.013852	-0.001081	0.011748	
14683	    0	24.203309	-0.723160	-9.610575	0.656145	-0.195127	2.385773	0.242188	-0.004028	-0.095886	0.999923	0.003281	-0.000976	0.011929	
14684	    0	35.621131	-6.657544	-10.229711	3.450107	-0.583316	2.765122	0.357368	-0.059875	-0.102327	0.999751	0.017249	-0.002916	0.013824	
14685	    0	42.378416	-10.342588	-15.148172	3.363617	-1.445937	3.786143	0.426697	-0.092834	-0.150024	0.999653	0.016816	-0.007229	0.018929	
14686	    0	37.422787	-7.055867	-17.640609	1.822663	-0.932601	4.589373	0.376510	-0.060335	-0.175235	0.999683	0.009112	-0.004663	0.022944	
14687	    0	33.418888	3.987180	-11.723085	1.317155	0.190754	4.689490	0.333008	0.048462	-0.117249	0.999702	0.006585	0.000954	0.023445	
14688	    0	29.736747	15.236929	-9.913639	1.937131	0.081644	4.828044	0.293519	0.160438	-0.097729	0.999661	0.009685	0.000408	0.024137	
14689	    0	26.729839	22.091458	-13.877646	2.110752	-0.072489	5.134479	0.261536	0.229126	-0.136292	0.999615	0.010552	-0.000362	0.025669	
14690	    0	24.282390	23.816963	-15.172159	1.493065	-0.042158	5.214377	0.236518	0.245515	-0.149857	0.999632	0.007464	-0.000211	0.026069	
14691	    0	20.528451	24.645088	-12.913498	0.596883	0.334209	5.405332	0.198303	0.252258	-0.128723	0.999628	0.002984	0.001671	0.027023	
14692	    0	17.574563	25.524150	-7.744351	-0.019649	0.849278	5.907172	0.167776	0.260268	-0.078193	0.999555	-0.000098	0.004246	0.029531	
14693	    0	14.277354	24.401831	-4.097680	-0.457077	0.744944	6.263251	0.134888	0.248230	-0.042053	0.999499	-0.002285	0.003724	0.031311	
14694	    0	9.397576	21.209117	-3.126438	-0.520786	0.483015	6.023949	0.087458	0.214708	-0.032038	0.999539	-0.002604	0.002415	0.030115	
14695	    0	4.849907	17.769154	-2.610529	-0.236347	0.493677	5.167207	0.043823	0.178833	-0.026428	0.999662	-0.001182	0.002468	0.025833	
14696	    0	1.850289	14.798732	-2.683748	0.099761	0.606960	4.020396	0.015442	0.148332	-0.026814	0.999793	0.000499	0.003035	0.020101	
14697	    0	0.466379	13.896454	-5.420255	0.110630	0.758576	2.638328	0.002625	0.139038	-0.054138	0.999906	0.000553	0.003793	0.013191	
14698	    0	-1.219391	19.710124	-7.941341	-0.615129	1.238842	1.316281	-0.013984	0.196768	-0.079936	0.999954	-0.003076	0.006194	0.006581	
14699	    0	-4.076459	27.781707	-3.737991	0.134470	1.870758	0.634776	-0.041992	0.277710	-0.036804	0.999950	0.000672	0.009354	0.003174	
14700	    0	-6.099027	20.771704	3.615846	2.027964	1.927061	0.727297	-0.061378	0.207109	0.038851	0.999895	0.010139	0.009635	0.003636	
14701	    0	-5.002061	7.417737	9.034922	2.114156	0.979066	0.625626	-0.049805	0.073059	0.091370	0.999927	0.010571	0.004895	0.003128	
14702	    0	-5.201541	8.136803	3.757495	0.410463	-0.152589	0.946621	-0.052428	0.081043	0.037702	0.999986	0.002052	-0.000763	0.004733	
14703	    0	-3.131985	5.307798	5.227391	1.474974	-0.705729	0.885023	-0.031738	0.052551	0.052551	0.999956	0.007375	-0.003529	0.004425	
14704	    0	-0.452537	-1.275070	5.640827	2.339640	-1.824827	0.023461	-0.005037	-0.013410	0.056210	0.999889	0.011698	-0.009124	0.000117	
14705	    0	4.058756	-5.067224	4.644250	-0.355353	-2.931325	-0.656153	0.039734	-0.050720	0.047119	0.999886	-0.001777	-0.014656	-0.003281	
14706	    0	5.189265	-12.617761	11.327794	1.761800	-4.493772	-0.479745	0.049043	-0.127295	0.113283	0.999705	0.008808	-0.022467	-0.002398	
14707	    0	10.497074	-19.633942	-11.854766	3.417567	-3.631785	0.727921	0.107849	-0.193909	-0.119934	0.999682	0.017086	-0.018157	0.003639	
14708	    0	9.087627	-10.833658	-16.177888	3.280268	-0.537905	1.911853	0.092327	-0.104789	-0.163270	0.999816	0.016400	-0.002689	0.009559	
14709	    0	4.105926	-2.727077	-4.645651	0.919597	3.860742	0.981208	0.040283	-0.026855	-0.047363	0.999790	0.004598	0.019302	0.004906	
14710	    0	6.292782	-3.270983	12.026482	0.257127	3.958771	-0.142870	0.065268	-0.032909	0.118946	0.999803	0.001286	0.019793	-0.000714	
14711	    0	3.545143	-9.124829	10.594118	0.208477	1.768526	-1.087208	0.035889	-0.091553	0.105530	0.999945	0.001042	0.008842	-0.005436	
14712	    0	1.801017	-7.078151	1.726580	0.308614	1.139277	-1.534486	0.017564	-0.070944	0.017056	0.999952	0.001543	0.005696	-0.007672	
14713	    0	0.536830	1.110574	-0.089445	1.961650	2.516535	-2.453779	0.005493	0.011047	-0.000854	0.999797	0.009808	0.012582	-0.012268	
14714	    0	-4.676026	18.132030	9.561426	1.511138	2.193268	-3.825152	-0.042229	0.181425	0.097465	0.999728	0.007555	0.010965	-0.019124	
14715	    0	-5.328965	22.067857	9.792835	-1.032319	-0.172244	-3.660805	-0.049316	0.222107	0.096741	0.999818	-0.005161	-0.000861	-0.018303	
14716	    0	18.538302	-16.150546	-16.295754	-0.956356	-1.431483	-0.139620	0.186426	-0.162408	-0.160851	0.999962	-0.004782	-0.007157	-0.000698	
14717	    0	70.666707	-37.853257	-8.189265	0.634028	-1.031345	2.864190	0.712402	-0.368103	-0.079407	0.999879	0.003170	-0.005157	0.014320	
14718	    0	39.885574	-31.391277	-27.382652	0.851469	-2.630704	0.675606	0.403478	-0.311400	-0.269869	0.999898	0.004257	-0.013153	0.003378	
14719	    0	6.110427	13.950605	3.165606	-0.882782	-0.852071	-3.875236	0.063660	0.138428	0.031311	0.999793	-0.004414	-0.004260	-0.019375	
14720	    0	-15.963118	60.569053	-1.118134	-0.308060	-1.696521	-3.841302	-0.147853	0.608586	-0.013405	0.999778	-0.001540	-0.008482	-0.019205	
14721	    0	-17.824105	65.961586	-11.807630	-2.459877	-0.524746	-3.049668	-0.167847	0.660706	-0.126648	0.999804	-0.012299	-0.002624	-0.015247	
14722	    0	10.043492	38.654589	-6.928487	-4.404471	-0.617492	-3.545476	0.107477	0.383037	-0.077422	0.999596	-0.022019	-0.003087	-0.017725	
14723	    0	37.011146	10.951834	-1.441504	-5.830896	0.121338	-5.134348	0.372742	0.099487	-0.017639	0.999245	-0.029147	0.000607	-0.025665	
14724	    0	44.705422	-5.730892	5.398989	-2.993061	-0.164427	-3.208037	0.446022	-0.063648	0.055278	0.999759	-0.014964	-0.000822	-0.016039	
14725	    0	26.368826	-23.879937	-7.498435	-0.569161	-0.620088	-1.676966	0.261902	-0.241211	-0.073486	0.999955	-0.002846	-0.003100	-0.008385	
14726	    0	12.659894	-4.836352	-10.588434	0.010491	-0.696784	-3.119220	0.126192	-0.050328	-0.105447	0.999872	0.000052	-0.003484	-0.015595	
14727	    0	11.009732	4.065068	-8.676830	2.210483	-1.038286	-4.575861	0.111450	0.039062	-0.085754	0.999663	0.011051	-0.005191	-0.022877	
14728	    0	19.823139	1.848559	-8.789951	3.473595	-1.359374	-4.572006	0.199198	0.015447	-0.086262	0.999564	0.017365	-0.006796	-0.022857	
14729	    0	36.312598	-0.045415	-10.260876	2.735406	-1.545676	-3.697567	0.363831	-0.005798	-0.099854	0.999705	0.013676	-0.007728	-0.018486	
14730	    0	32.769226	-2.848186	-7.063927	1.406209	-1.006015	-3.998882	0.327393	-0.034540	-0.069221	0.999763	0.007030	-0.005030	-0.019993	
14731	    0	16.100913	-6.552879	4.021988	-0.081643	-0.884915	-5.016106	0.159119	-0.069519	0.040955	0.999675	-0.000408	-0.004424	-0.025078	
14732	    0	9.940588	-5.956428	9.252607	-0.198388	-1.546469	-5.073571	0.097135	-0.061955	0.093344	0.999647	-0.000992	-0.007731	-0.025365	
14733	    0	14.423524	-6.376308	6.955831	-0.215169	-1.297692	-4.572727	0.142273	-0.066956	0.070557	0.999717	-0.001076	-0.006488	-0.022861	
14734	    0	16.208040	-6.659602	2.782700	-1.379330	-1.060011	-4.352396	0.160431	-0.069901	0.029155	0.999725	-0.006896	-0.005300	-0.021760	
14735	    0	13.012501	-8.441772	-0.291910	-2.494298	-0.871936	-4.120284	0.128357	-0.087097	-0.001282	0.999700	-0.012470	-0.004359	-0.020599	
14736	    0	10.063255	-15.261783	-1.956014	-2.986219	-0.516937	-3.471872	0.098006	-0.154601	-0.017006	0.999734	-0.014930	-0.002584	-0.017358	
14737	    0	10.132309	-23.797560	-3.370677	-2.633048	-0.206577	-2.481978	0.098389	-0.239624	-0.030457	0.999835	-0.013165	-0.001033	-0.012409	
14738	    0	11.457361	-35.225940	-1.051368	-2.066291	-0.419820	-1.601647	0.111764	-0.353244	-0.006631	0.999912	-0.010331	-0.002099	-0.008008	
14739	    0	10.821572	-41.844825	3.757761	-1.952979	-0.384530	-1.216916	0.105591	-0.418701	0.041870	0.999931	-0.009765	-0.001923	-0.006084	
14740	    0	5.230974	-44.506520	7.309329	-1.166925	-0.402263	-0.547413	0.050941	-0.444769	0.075792	0.999977	-0.005835	-0.002011	-0.002737	
14741	    0	2.868716	-40.195819	9.634086	-0.064850	-0.176811	0.072479	0.028748	-0.401917	0.096497	0.999999	-0.000324	-0.000884	0.000362	
14742	    0	2.294368	-26.312889	6.837803	1.160439	0.395205	0.264551	0.023425	-0.263489	0.066804	0.999980	0.005802	0.001976	0.001323	
14743	    0	-0.084161	-13.041687	5.522000	2.311000	0.678460	-0.207525	-0.000793	-0.131042	0.053711	0.999927	0.011555	0.003392	-0.001038	
14744	    0	-0.491182	-0.991200	5.255150	1.912344	0.607502	-0.704206	-0.004788	-0.010397	0.052468	0.999943	0.009562	0.003037	-0.003521	
14745	    0	5.165607	5.398794	5.236673	0.894360	0.452425	-0.164033	0.051819	0.053711	0.052490	0.999987	0.004472	0.002262	-0.000820	
14746	    0	12.724145	4.699039	4.731677	0.145722	0.510791	1.147659	0.127090	0.047686	0.047027	0.999980	0.000729	0.002554	0.005738	
14747	    0	16.194579	0.520750	6.339733	-1.107623	0.535596	2.030993	0.162048	0.007202	0.062927	0.999929	-0.005538	0.002678	0.010155	
14748	    0	13.357448	-0.830699	6.741613	-2.910000	0.200473	1.943879	0.133708	-0.006027	0.067381	0.999846	-0.014549	0.001002	0.009719	
14749	    0	9.401157	-1.544130	5.153674	-4.377389	-0.071532	1.741952	0.094116	-0.013489	0.051880	0.999722	-0.021885	-0.000358	0.008709	
14750	    0	7.557438	0.200157	2.562686	-4.931061	-0.102246	1.777662	0.075536	0.003304	0.025595	0.999656	-0.024652	-0.000511	0.008887	
14751	    0	9.676015	0.812495	-3.140349	-4.356814	-0.063139	2.161621	0.096680	0.008484	-0.031555	0.999703	-0.021782	-0.000316	0.010807	
14752	    0	15.799288	-0.247607	-7.901039	-2.219109	0.039102	2.418817	0.157999	-0.001442	-0.079021	0.999865	-0.011095	0.000196	0.012094	
14753	    0	24.252840	-1.542324	-9.580785	1.338428	0.143437	2.373578	0.242615	-0.011902	-0.096069	0.999907	0.006692	0.000717	0.011868	
14754	    0	35.219035	-7.910047	-11.478497	3.757236	-0.333625	2.637333	0.353366	-0.072279	-0.115597	0.999735	0.018785	-0.001668	0.013186	
14755	    0	42.340930	-10.555309	-17.018559	3.382473	-1.137474	3.598408	0.426147	-0.095032	-0.169434	0.999679	0.016911	-0.005687	0.017990	
14756	    0	37.296646	-6.294164	-18.521646	1.743298	-0.595152	4.508846	0.374784	-0.052895	-0.184593	0.999703	0.008716	-0.002975	0.022542	
