// Start Time: Unknown
// Update Rate: 100.0Hz
// Filter Profile: human (34.3)
// Firmware Version: 2.1.4
PacketCounter	SampleTimeFine	Acc_X	Acc_Y	Acc_Z	Gyr_X	Gyr_Y	Gyr_Z	VelInc_X	VelInc_Y	VelInc_Z	OriInc_q0	OriInc_q1	OriInc_q2	OriInc_q3	
33239	    0	2.832612	-0.620793	-3.839195	1.293969	0.587665	1.567870	0.028259	-0.005737	-0.038513	0.999944	0.006470	0.002938	0.007839	
33240	    0	2.322385	-0.346061	-4.156345	1.161807	0.524158	2.610298	0.023155	-0.002916	-0.041642	0.999894	0.005809	0.002621	0.013051	
33241	    0	1.932493	0.383230	-4.704907	1.166606	0.351927	3.629525	0.019165	0.004456	-0.047058	0.999816	0.005833	0.001760	0.018147	
33242	    0	1.796724	1.256628	-4.709437	1.083093	0.148787	4.579395	0.017634	0.013227	-0.047037	0.999722	0.005415	0.000744	0.022895	
33243	    0	2.039836	1.198555	-4.474975	0.982220	-0.105299	5.461058	0.020081	0.012756	-0.044678	0.999615	0.004910	-0.000526	0.027302	
33244	    0	3.357185	1.333577	-4.365360	0.869705	-0.409385	6.239974	0.033219	0.014565	-0.043524	0.999501	0.004348	-0.002047	0.031195	
33245	    0	4.871547	1.715403	-4.118620	0.718264	-0.684497	6.945699	0.048218	0.018982	-0.040955	0.999384	0.003591	-0.003422	0.034721	
33246	    0	6.438356	1.302022	-3.473334	0.588942	-0.975846	7.556083	0.063996	0.015545	-0.034377	0.999269	0.002944	-0.004878	0.037771	
33247	    0	8.520211	0.153205	-2.550483	0.576367	-1.244694	7.980238	0.085205	0.005005	-0.024963	0.999180	0.002881	-0.006222	0.039890	
33248	    0	10.911063	-1.009844	-1.975677	0.833758	-1.548272	8.242949	0.109550	-0.005508	-0.018939	0.999111	0.004168	-0.007739	0.041203	
33249	    0	13.109636	-0.419615	-1.991797	1.093830	-1.801872	8.466736	0.131287	0.001465	-0.018738	0.999048	0.005467	-0.009007	0.042320	
33250	    0	14.440305	0.477016	-1.837627	1.115598	-2.007009	8.641642	0.144189	0.011102	-0.016878	0.999001	0.005576	-0.010032	0.043194	
33251	    0	15.703526	0.538844	-2.588481	1.163317	-2.188112	8.816557	0.156860	0.012451	-0.024109	0.998951	0.005815	-0.010937	0.044067	
33252	    0	16.936977	0.509098	-2.633429	1.194438	-2.268097	9.023541	0.169189	0.012878	-0.024353	0.998899	0.005970	-0.011336	0.045101	
33253	    0	19.078997	1.000025	-2.870859	1.204376	-2.292550	9.190808	0.190369	0.018921	-0.026428	0.998860	0.006020	-0.011458	0.045937	
33254	    0	21.923270	2.324423	-3.055090	1.081885	-2.282835	9.297342	0.218161	0.033561	-0.027893	0.998839	0.005407	-0.011410	0.046469	
33255	    0	24.131709	5.161203	-3.720842	1.025790	-2.272727	9.337435	0.238953	0.062988	-0.034180	0.998832	0.005127	-0.011359	0.046669	
33256	    0	25.292516	11.187366	-5.195196	0.911295	-2.163944	9.241935	0.247931	0.123637	-0.048705	0.998863	0.004555	-0.010816	0.046192	
33257	    0	26.535279	17.459554	-3.945822	0.054379	-1.955352	9.068498	0.257446	0.186401	-0.036865	0.998924	0.000272	-0.009773	0.045326	
33258	    0	27.352624	20.250569	-2.816915	-0.675999	-1.939466	8.702125	0.264639	0.214061	-0.026284	0.999001	-0.003379	-0.009694	0.043496	
33259	    0	29.484992	23.259820	0.121435	-1.240703	-1.926208	7.949807	0.285278	0.244080	0.002502	0.999144	-0.006202	-0.009628	0.039738	
33260	    0	27.809648	25.264128	2.021594	-0.941860	-1.827633	6.882621	0.268991	0.262103	0.021482	0.999354	-0.004708	-0.009136	0.034406	
33261	    0	22.348854	31.651198	2.916031	0.052650	-1.674681	5.351195	0.214661	0.322327	0.031067	0.999606	0.000263	-0.008372	0.026752	
33262	    0	14.641311	40.545930	5.595398	0.931038	-1.444911	3.568692	0.138733	0.407711	0.058869	0.999804	0.004655	-0.007224	0.017842	
33263	    0	9.870441	45.059300	8.667457	1.365696	-1.082447	1.713605	0.094360	0.450806	0.090271	0.999925	0.006828	-0.005412	0.008568	
33264	    0	8.525725	45.995250	9.123909	1.650450	-0.572593	0.053025	0.084867	0.459200	0.095274	0.999961	0.008252	-0.002863	0.000265	
33265	    0	11.702217	41.508157	6.841870	1.971485	-0.118831	-1.456488	0.119995	0.413513	0.072571	0.999925	0.009857	-0.000594	-0.007282	
33266	    0	15.327887	33.827632	-0.306216	2.427248	-0.072293	-2.931200	0.158215	0.335985	0.001081	0.999819	0.012136	-0.000361	-0.014655	
33267	    0	22.706557	44.003066	-3.554211	3.775681	-0.226442	-5.236964	0.238525	0.434448	-0.027039	0.999478	0.018875	-0.001132	-0.026180	
33268	    0	40.024072	56.929452	1.855055	2.426505	0.209093	-6.950614	0.419713	0.554655	0.024908	0.999322	0.012130	0.001045	-0.034745	
33269	    0	44.751910	-5.362584	6.775316	-0.250295	0.612193	-6.969349	0.445496	-0.069092	0.066467	0.999387	-0.001251	0.003060	-0.034840	
33270	    0	38.934878	-11.926480	12.571930	0.933924	0.880503	-8.339685	0.384458	-0.135947	0.123410	0.999109	0.004668	0.004401	-0.041686	
33271	    0	13.984941	14.479905	-9.000733	2.975651	-0.010494	-8.234747	0.145691	0.140198	-0.087891	0.999042	0.014874	-0.000052	-0.041161	
33272	    0	22.051210	46.348184	-8.457438	0.702880	0.308893	-8.496190	0.239803	0.453860	-0.083328	0.999090	0.003513	0.001544	-0.042468	
33273	    0	-3.703437	9.058905	7.771961	-1.358897	-0.049602	-7.061000	-0.033813	0.092346	0.077087	0.999353	-0.006793	-0.000248	-0.035297	
33274	    0	2.659122	14.949121	2.730666	-0.029950	0.197442	-6.183084	0.031221	0.148578	0.027255	0.999521	-0.000150	0.000987	-0.030910	
33275	    0	6.210897	10.101512	2.899588	-0.043302	-0.245696	-5.376320	0.064758	0.099304	0.029053	0.999638	-0.000216	-0.001228	-0.026878	
33276	    0	8.473707	7.583297	1.291653	0.403444	-0.263240	-4.858309	0.086528	0.073719	0.013180	0.999701	0.002017	-0.001316	-0.024289	
33277	    0	11.835300	12.005716	-1.525088	0.080306	-0.314355	-4.281945	0.120911	0.117493	-0.015015	0.999769	0.000401	-0.001572	-0.021408	
33278	    0	15.560055	13.205056	-3.687964	-0.527985	-0.071720	-3.695893	0.158017	0.129047	-0.037167	0.999825	-0.002640	-0.000359	-0.018478	
33279	    0	16.293134	8.977885	-1.696073	-0.833929	-0.066951	-3.111402	0.164307	0.087158	-0.017273	0.999869	-0.004169	-0.000335	-0.015556	
33280	    0	20.752354	8.953254	-3.847927	-0.966679	-0.082210	-2.777963	0.208755	0.086452	-0.038816	0.999891	-0.004833	-0.000411	-0.013889	
33281	    0	23.791145	8.853534	-0.639201	-1.231231	-0.074770	-2.398754	0.238953	0.085632	-0.006836	0.999908	-0.006156	-0.000374	-0.011993	
33282	    0	26.088308	6.680435	3.940538	-1.419296	-0.052835	-2.092989	0.261555	0.064347	0.039012	0.999920	-0.007096	-0.000264	-0.010465	
33283	    0	26.687923	4.969309	4.955459	-1.823478	-0.014306	-1.897485	0.267334	0.047607	0.049133	0.999913	-0.009117	-0.000072	-0.009487	
33284	    0	26.227915	3.833353	4.556041	-2.190853	-0.039865	-1.761494	0.262597	0.036518	0.045206	0.999901	-0.010954	-0.000199	-0.008807	
33285	    0	24.858271	1.203550	3.272147	-2.696336	-0.065425	-1.541963	0.248657	0.010559	0.032654	0.999879	-0.013481	-0.000327	-0.007710	
33286	    0	23.870374	-1.928389	2.208922	-3.622083	-0.152025	-1.158784	0.238571	-0.020260	0.022632	0.999819	-0.018109	-0.000760	-0.005794	
33287	    0	22.503200	-5.071032	0.910048	-4.321450	-0.149548	-0.905683	0.224792	-0.051514	0.010376	0.999756	-0.021605	-0.000748	-0.004528	
33288	    0	22.150719	-7.741210	-1.387479	-4.348535	-0.033954	-0.723516	0.221227	-0.078489	-0.012138	0.999757	-0.021741	-0.000170	-0.003617	
33289	    0	19.794502	-10.611266	-4.015993	-4.032223	0.145731	-0.532568	0.197632	-0.107422	-0.038147	0.999792	-0.020160	0.000729	-0.002663	
33290	    0	15.886431	-14.013992	-5.628402	-3.066566	0.285160	-0.249300	0.158610	-0.141181	-0.054351	0.999880	-0.015332	0.001426	-0.001246	
33291	    0	13.295984	-10.111534	-6.847132	-1.299869	0.274660	-0.466160	0.132629	-0.101868	-0.067993	0.999975	-0.006499	0.001373	-0.002331	
33292	    0	12.970636	3.479984	-3.603238	-0.411038	0.336078	-1.429762	0.129889	0.033797	-0.036321	0.999970	-0.002055	0.001680	-0.007149	
33293	    0	6.520405	12.774416	-6.394999	-0.689714	0.380907	-2.276666	0.066528	0.126770	-0.064514	0.999927	-0.003448	0.001904	-0.011383	
33294	    0	11.173830	17.563132	-14.255283	-1.505736	0.587493	-3.051909	0.113968	0.172822	-0.144194	0.999850	-0.007528	0.002937	-0.015259	
33295	    0	15.683918	9.160455	-12.457022	-2.611753	1.245409	-3.328212	0.157532	0.087341	-0.126709	0.999757	-0.013058	0.006227	-0.016640	
33296	    0	13.164722	-2.470000	-6.199003	-2.413942	1.605353	-3.274416	0.130710	-0.027599	-0.062720	0.999761	-0.012069	0.008026	-0.016371	
33297	    0	13.260367	-8.194214	-4.723054	-1.639488	1.619078	-3.538776	0.130737	-0.084656	-0.047607	0.999777	-0.008197	0.008095	-0.017693	
33298	    0	14.865237	-9.413898	-6.143427	-1.117035	1.667541	-3.960935	0.146229	-0.097397	-0.062122	0.999753	-0.005585	0.008337	-0.019803	
33299	    0	16.058996	-9.092630	-7.952712	-0.881083	1.596212	-4.263688	0.157959	-0.094666	-0.080383	0.999731	-0.004405	0.007980	-0.021317	
33300	    0	16.747878	-9.230928	-8.196506	-0.874029	1.399553	-4.454650	0.164785	-0.096360	-0.082709	0.999718	-0.004370	0.006997	-0.022271	
33301	    0	16.681853	-9.979863	-6.667014	-0.837792	1.237040	-4.684157	0.164001	-0.103943	-0.067261	0.999698	-0.004189	0.006185	-0.023418	
33302	    0	15.873927	-9.204052	-5.098235	-0.875567	1.174671	-4.850334	0.156140	-0.096073	-0.051490	0.999679	-0.004377	0.005873	-0.024249	
33303	    0	16.475390	-9.005712	-4.304584	-0.986588	1.215686	-4.865031	0.162231	-0.094238	-0.043579	0.999673	-0.004932	0.006078	-0.024323	
33304	    0	17.380590	-10.504300	-4.046847	-0.791824	1.270047	-4.807980	0.170952	-0.109338	-0.041133	0.999682	-0.003959	0.006350	-0.024037	
33305	    0	18.618549	-11.595879	-4.319315	-0.303489	1.278051	-4.709331	0.183105	-0.120361	-0.044189	0.999701	-0.001517	0.006390	-0.023544	
33306	    0	19.921186	-11.822824	-4.408341	0.235770	1.259731	-4.559943	0.196165	-0.122671	-0.045468	0.999719	0.001179	0.006298	-0.022798	
33307	    0	22.014676	-11.191869	-3.795912	0.674688	1.270404	-4.332346	0.217407	-0.116516	-0.039734	0.999739	0.003373	0.006351	-0.021660	
33308	    0	23.783038	-10.045714	-3.190762	1.196192	1.263527	-3.975608	0.235563	-0.104956	-0.034019	0.999764	0.005980	0.006317	-0.019876	
33309	    0	22.777491	-7.186793	-3.789847	1.507094	1.178818	-3.463971	0.226257	-0.075500	-0.039795	0.999804	0.007535	0.005894	-0.017319	
33310	    0	19.844548	-4.979887	-3.875845	1.274544	1.050993	-2.720757	0.197537	-0.052238	-0.040126	0.999873	0.006372	0.005255	-0.013603	
33311	    0	16.235521	-4.338187	-3.292330	1.064324	0.883694	-1.820413	0.161804	-0.044678	-0.033875	0.999934	0.005322	0.004418	-0.009102	
33312	    0	11.966008	-3.437860	-3.081723	0.969514	0.706870	-0.854118	0.119402	-0.034738	-0.031407	0.999972	0.004848	0.003534	-0.004271	
33313	    0	7.899411	-2.359950	-3.192220	0.652315	0.576975	0.144959	0.078918	-0.023438	-0.032227	0.999990	0.003262	0.002885	0.000725	
33314	    0	4.162334	-1.126964	-3.302712	0.371364	0.430873	1.198968	0.041618	-0.010959	-0.033137	0.999977	0.001857	0.002154	0.005995	
33315	    0	2.415267	-0.653130	-3.920693	0.129893	0.286109	2.319389	0.024170	-0.006226	-0.039246	0.999931	0.000649	0.001431	0.011597	
33316	    0	1.641285	-0.054949	-4.163847	0.075153	0.020410	3.448467	0.016415	-0.000251	-0.041640	0.999851	0.000376	0.000102	0.017241	
33317	    0	1.173885	-0.450766	-4.084854	0.160421	-0.328854	4.447543	0.011902	-0.004211	-0.040833	0.999750	0.000802	-0.001644	0.022236	
33318	    0	1.748726	-1.297501	-3.870818	0.459727	-0.684058	5.336265	0.017956	-0.012411	-0.038676	0.999635	0.002298	-0.003420	0.026678	
33319	    0	3.187790	-0.795596	-3.609132	0.756959	-1.050548	6.119009	0.032288	-0.006836	-0.035950	0.999511	0.003784	-0.005252	0.030590	
33320	    0	5.072975	-0.103453	-3.421954	0.806400	-1.326639	6.796306	0.050948	0.000832	-0.033881	0.999393	0.004031	-0.006632	0.033975	
33321	    0	6.883504	-0.376553	-3.141955	0.782200	-1.574130	7.371759	0.069153	-0.001099	-0.030884	0.999282	0.003910	-0.007869	0.036850	
33322	    0	9.005325	-1.077926	-2.775163	0.720408	-1.776218	7.787693	0.090621	-0.007159	-0.026978	0.999196	0.003601	-0.008879	0.038928	
33323	    0	11.140542	-1.473948	-2.600507	0.808377	-1.946057	8.052098	0.112122	-0.010132	-0.024963	0.999134	0.004041	-0.009727	0.040249	
33324	    0	12.494582	-1.300872	-2.446613	1.000141	-2.120673	8.283121	0.125588	-0.007697	-0.023184	0.999073	0.004999	-0.010600	0.041403	
33325	    0	13.616651	-1.179184	-2.059120	1.020570	-2.236898	8.452283	0.136719	-0.005920	-0.019104	0.999031	0.005101	-0.011181	0.042248	
33326	    0	14.724969	-1.010449	-1.880579	0.996731	-2.311714	8.581160	0.147704	-0.003684	-0.017129	0.999000	0.004982	-0.011555	0.042892	
33327	    0	15.482828	-0.150643	-1.952460	0.973848	-2.335977	8.763872	0.154907	0.005371	-0.017700	0.998960	0.004868	-0.011676	0.043804	
33328	    0	16.728134	0.521245	-1.489243	0.852512	-2.292890	8.988578	0.166976	0.012781	-0.012933	0.998915	0.004261	-0.011460	0.044927	
33329	    0	18.410191	1.584825	-1.117614	0.816077	-2.239300	9.156400	0.183228	0.024292	-0.009033	0.998880	0.004079	-0.011192	0.045765	
33330	    0	20.376165	3.480188	-1.091986	0.755597	-2.165662	9.263693	0.201960	0.044222	-0.008571	0.998860	0.003777	-0.010824	0.046301	
33331	    0	21.926038	6.896394	-2.565992	0.731935	-2.072734	9.256420	0.216003	0.079102	-0.023132	0.998868	0.003658	-0.010360	0.046265	
33332	    0	24.158947	12.445561	-4.264799	0.460796	-2.011092	9.214009	0.235926	0.135509	-0.039952	0.998885	0.002303	-0.010052	0.046053	
33333	    0	26.378269	17.076522	-5.154911	0.053616	-2.066027	9.102883	0.256165	0.182556	-0.048828	0.998911	0.000268	-0.010326	0.045498	
33334	    0	29.328064	20.754359	-3.380000	-0.326837	-2.237872	8.632663	0.284322	0.219895	-0.030937	0.999004	-0.001634	-0.011186	0.043149	
33335	    0	30.635762	23.372518	2.539671	-0.257751	-2.237532	7.651259	0.296814	0.245239	0.028442	0.999205	-0.001288	-0.011185	0.038246	
33336	    0	28.886598	27.015567	8.036575	0.413397	-1.948138	6.289669	0.279382	0.278872	0.083689	0.999455	0.002067	-0.009739	0.031443	
33337	    0	22.476213	34.455431	8.034399	1.420178	-1.516891	4.711672	0.215942	0.349121	0.084473	0.999668	0.007100	-0.007584	0.023556	
33338	    0	13.479860	42.884252	4.939489	2.086194	-1.160311	2.980413	0.128087	0.430233	0.054634	0.999817	0.010430	-0.005801	0.014901	
33339	    0	8.409433	48.061199	3.814906	2.186836	-0.870538	1.062041	0.081360	0.480591	0.043762	0.999916	0.010934	-0.004353	0.005310	
33340	    0	12.683233	44.127182	6.622790	2.254541	-0.580420	-0.687235	0.128143	0.440046	0.071564	0.999926	0.011272	-0.002902	-0.003436	
33341	    0	15.597948	37.309248	5.764256	2.791752	-0.282113	-2.362193	0.160278	0.370361	0.063049	0.999831	0.013958	-0.001410	-0.011810	
33342	    0	21.531876	53.546255	-3.266848	4.556355	-0.336519	-4.852621	0.228274	0.530582	-0.020165	0.999444	0.022778	-0.001682	-0.024259	
33343	    0	39.543910	74.093330	-7.668747	3.113541	-0.108936	-6.926866	0.420837	0.727722	-0.065063	0.999278	0.015564	-0.000545	-0.034626	
33344	    0	51.831569	7.237308	1.417136	-1.179001	0.537037	-7.158714	0.520499	0.053843	0.012422	0.999338	-0.005894	0.002685	-0.035786	
33345	    0	45.458778	-12.390314	12.634710	-0.533465	0.732083	-8.700283	0.449097	-0.143188	0.125061	0.999043	-0.002666	0.003659	-0.043488	
33346	    0	16.616468	11.988967	-7.845975	2.946039	-0.063347	-8.961949	0.171370	0.113425	-0.076703	0.998887	0.014725	-0.000317	-0.044793	
33347	    0	21.864495	37.238152	-0.051718	0.206058	0.463439	-8.633061	0.234436	0.362488	-0.000671	0.999064	0.001030	0.002316	-0.043152	
33348	    0	-7.580820	8.902664	6.501713	-0.402925	-0.104356	-7.448970	-0.072454	0.091898	0.064795	0.999304	-0.002014	-0.000522	-0.037236	
33349	    0	-0.950630	18.029050	2.278851	0.444107	0.151279	-6.392238	-0.003723	0.180420	0.023193	0.999486	0.002220	0.000756	-0.031956	
33350	    0	4.970677	12.178301	0.378292	0.260768	-0.283277	-5.496911	0.053022	0.120351	0.004014	0.999620	0.001304	-0.001416	-0.027481	
33351	    0	9.867469	8.026816	1.004502	0.243402	-0.104342	-4.874141	0.100586	0.077820	0.010193	0.999701	0.001217	-0.000522	-0.024368	
33352	    0	13.640130	9.551565	-1.237480	0.006295	-0.064855	-4.266109	0.138401	0.092578	-0.012327	0.999772	0.000031	-0.000324	-0.021329	
33353	    0	17.173586	15.000800	-3.166781	-0.486785	0.088697	-3.759228	0.174500	0.146667	-0.032104	0.999820	-0.002434	0.000443	-0.018795	
33354	    0	17.929724	10.159071	-2.297647	-0.865976	0.017167	-3.208308	0.180893	0.098597	-0.023423	0.999862	-0.004330	0.000086	-0.016041	
33355	    0	22.525180	8.839578	-2.153930	-0.891910	-0.010491	-2.898518	0.226501	0.085022	-0.021912	0.999885	-0.004459	-0.000052	-0.014492	
33356	    0	26.496519	9.453919	2.206747	-0.898579	-0.025559	-2.556688	0.266143	0.091240	0.021687	0.999907	-0.004493	-0.000128	-0.012783	
33357	    0	25.209000	4.447842	4.545961	-1.243625	-0.026513	-2.241577	0.252563	0.041931	0.045227	0.999917	-0.006218	-0.000133	-0.011208	
33358	    0	24.627000	3.627207	4.840615	-1.618811	0.003243	-1.968628	0.246614	0.034236	0.048120	0.999918	-0.008094	0.000016	-0.009843	
33359	    0	23.977487	3.475380	3.968322	-2.023375	-0.071528	-1.727346	0.240051	0.033081	0.039429	0.999911	-0.010117	-0.000358	-0.008636	
33360	    0	22.756709	2.274799	2.473356	-2.738297	-0.137144	-1.386316	0.227702	0.021507	0.024590	0.999882	-0.013691	-0.000686	-0.006931	
33361	    0	21.839825	-0.902510	2.319278	-3.670724	-0.232520	-1.017060	0.218323	-0.009705	0.023621	0.999818	-0.018353	-0.001163	-0.005085	
33362	    0	21.109065	-4.105259	1.555565	-4.325261	-0.234432	-0.736105	0.210919	-0.041476	0.016697	0.999758	-0.021625	-0.001172	-0.003680	
33363	    0	21.435120	-6.600151	0.125329	-4.321631	-0.055508	-0.537152	0.214172	-0.066528	0.002747	0.999763	-0.021606	-0.000278	-0.002686	
33364	    0	19.804844	-10.496875	-2.914364	-3.910697	0.171482	-0.261705	0.197886	-0.105773	-0.027250	0.999807	-0.019552	0.000857	-0.001308	
33365	    0	16.330346	-14.680215	-5.209070	-2.638895	0.401318	0.092318	0.163269	-0.147400	-0.050476	0.999910	-0.013194	0.002007	0.000462	
33366	    0	15.188715	-9.648469	-4.451051	-0.498010	0.467492	-0.305558	0.151635	-0.096828	-0.044624	0.999992	-0.002490	0.002337	-0.001528	
33367	    0	10.302951	7.004312	-3.586380	0.338940	0.512701	-1.486985	0.103455	0.069336	-0.036011	0.999968	0.001695	0.002563	-0.007435	
33368	    0	6.023940	11.983113	-9.681052	-0.253302	0.554861	-2.321299	0.061355	0.119000	-0.097131	0.999928	-0.001266	0.002774	-0.011606	
33369	    0	14.288871	18.216249	-15.712669	-1.787476	0.872851	-3.073292	0.144958	0.178528	-0.159363	0.999832	-0.008937	0.004364	-0.015366	
33370	    0	13.781362	3.042763	-9.855714	-2.626241	1.553465	-3.051613	0.137470	0.027021	-0.099996	0.999766	-0.013130	0.007767	-0.015257	
33371	    0	12.268300	-5.189937	-7.176789	-2.130272	1.655882	-3.018395	0.121277	-0.054504	-0.072205	0.999795	-0.010651	0.008279	-0.015091	
33372	    0	13.090951	-9.408743	-7.421560	-1.506717	1.631275	-3.364409	0.128689	-0.096826	-0.074549	0.999797	-0.007533	0.008156	-0.016821	
33373	    0	14.398353	-9.605727	-9.317067	-1.191805	1.552131	-3.867643	0.141357	-0.099365	-0.093689	0.999764	-0.005959	0.007760	-0.019337	
33374	    0	15.855744	-8.037465	-9.691872	-1.493015	1.348044	-4.176323	0.156168	-0.084378	-0.097357	0.999731	-0.007464	0.006740	-0.020880	
33375	    0	17.563742	-8.174553	-8.584210	-1.989944	1.079094	-4.324007	0.173340	-0.086365	-0.085938	0.999701	-0.009949	0.005395	-0.021618	
33376	    0	17.903876	-8.717810	-6.966142	-2.549082	0.978201	-4.478968	0.176674	-0.092038	-0.069377	0.999656	-0.012744	0.004890	-0.022392	
33377	    0	18.097619	-9.381885	-6.359744	-2.935979	1.048414	-4.606459	0.178406	-0.098877	-0.063110	0.999613	-0.014678	0.005241	-0.023029	
33378	    0	18.775291	-11.547483	-6.327038	-2.777648	1.170691	-4.673988	0.184605	-0.120687	-0.062705	0.999613	-0.013886	0.005853	-0.023367	
33379	    0	19.554894	-13.857222	-6.032868	-2.043199	1.223134	-4.713988	0.191833	-0.143738	-0.060059	0.999651	-0.010215	0.006115	-0.023567	
33380	    0	19.898827	-13.715208	-5.209867	-1.198320	1.246581	-4.675014	0.195379	-0.142061	-0.052483	0.999689	-0.005991	0.006232	-0.023373	
33381	    0	20.453832	-12.068419	-3.814852	-0.517894	1.339847	-4.524656	0.201477	-0.125366	-0.039185	0.999718	-0.002589	0.006699	-0.022621	
33382	    0	21.517876	-10.282335	-2.444096	0.091560	1.438641	-4.199945	0.212773	-0.107297	-0.026026	0.999753	0.000458	0.007193	-0.020998	
33383	    0	22.362055	-7.862681	-2.287687	0.676965	1.463419	-3.737135	0.221924	-0.082703	-0.024780	0.999792	0.003385	0.007317	-0.018684	
33384	    0	21.851585	-5.576475	-3.073986	1.072369	1.373555	-3.123259	0.217392	-0.058994	-0.032546	0.999840	0.005362	0.006867	-0.015615	
33385	    0	18.985510	-4.083417	-3.223174	1.259087	1.196333	-2.410214	0.189148	-0.042908	-0.033630	0.999889	0.006295	0.005981	-0.012051	
33386	    0	15.186469	-3.072625	-3.073671	1.321630	1.012633	-1.544604	0.151464	-0.031690	-0.031712	0.999935	0.006608	0.005063	-0.007723	
33387	    0	11.871939	-1.987179	-2.873182	1.184285	0.856027	-0.643165	0.118530	-0.020081	-0.029358	0.999968	0.005921	0.004280	-0.003216	
33388	    0	6.488909	0.017216	-3.134230	1.090249	0.668912	0.375178	0.064783	0.000465	-0.031557	0.999977	0.005451	0.003345	0.001876	
33389	    0	2.695027	1.494275	-4.040320	0.902760	0.527198	1.452656	0.026733	0.015320	-0.040405	0.999960	0.004514	0.002636	0.007263	
33390	    0	1.193897	2.050636	-4.627676	0.792909	0.317202	2.594838	0.011597	0.020842	-0.046213	0.999907	0.003964	0.001586	0.012974	
33391	    0	0.435675	1.400168	-4.803329	0.850155	0.031282	3.663088	0.004089	0.014282	-0.047974	0.999823	0.004251	0.000156	0.018314	
33392	    0	0.219202	0.350428	-4.620006	1.072984	-0.301008	4.604198	0.002176	0.003802	-0.046177	0.999719	0.005364	-0.001505	0.023019	
33393	    0	0.688631	0.504073	-4.602119	1.415443	-0.685021	5.454987	0.006897	0.005554	-0.045959	0.999597	0.007076	-0.003425	0.027271	
33394	    0	1.908251	1.425353	-4.174942	1.364372	-1.021371	6.213882	0.018834	0.015125	-0.041552	0.999480	0.006821	-0.005106	0.031064	
33395	    0	3.583371	1.358424	-3.779146	1.113551	-1.317107	6.846515	0.035583	0.015015	-0.037476	0.999376	0.005567	-0.006584	0.034225	
33396	    0	5.680006	0.769065	-3.389442	0.870912	-1.562490	7.340651	0.056726	0.009920	-0.033411	0.999286	0.004354	-0.007811	0.036695	
33397	    0	7.591062	0.564696	-2.847804	0.737383	-1.788798	7.686338	0.075867	0.008667	-0.027771	0.999214	0.003686	-0.008942	0.038422	
33398	    0	9.123942	-0.335689	-2.223395	0.873814	-2.004812	7.965063	0.091491	0.000379	-0.021321	0.999146	0.004368	-0.010021	0.039814	
33399	    0	10.729157	-0.802278	-1.599461	1.195318	-2.218540	8.165937	0.107666	-0.003540	-0.014832	0.999086	0.005975	-0.011089	0.040817	
33400	    0	12.353549	-0.150548	-1.128268	1.303704	-2.377308	8.280130	0.123577	0.003678	-0.009801	0.999051	0.006516	-0.011883	0.041388	
33401	    0	13.560720	0.551726	-1.435786	1.259260	-2.457275	8.401175	0.135376	0.011292	-0.012634	0.999022	0.006294	-0.012282	0.041992	
33402	    0	14.069667	0.377311	-1.275475	1.205277	-2.478287	8.541685	0.140506	0.009848	-0.010965	0.998993	0.006024	-0.012387	0.042694	
33403	    0	15.442958	0.245258	-1.012644	1.325686	-2.464196	8.689082	0.154236	0.009216	-0.008179	0.998958	0.006626	-0.012317	0.043430	
33404	    0	17.834945	1.863888	-0.660330	1.439414	-2.395144	8.791798	0.177361	0.026488	-0.004303	0.998936	0.007195	-0.011971	0.043943	
33405	    0	20.086281	4.252169	-0.803935	1.359278	-2.283336	8.847903	0.198792	0.051392	-0.005432	0.998933	0.006794	-0.011413	0.044224	
33406	    0	21.279844	6.720249	-1.831535	1.269410	-2.150537	8.889686	0.209707	0.076676	-0.015582	0.998934	0.006345	-0.010749	0.044433	
33407	    0	22.272154	12.672493	-2.901882	0.948853	-2.011042	8.840952	0.217102	0.136536	-0.026184	0.998960	0.004743	-0.010052	0.044189	
33408	    0	24.006371	17.360986	-3.186343	0.424719	-2.008543	8.755773	0.232461	0.183964	-0.029119	0.998989	0.002123	-0.010039	0.043764	
33409	    0	27.134058	21.028933	-2.549982	0.104555	-2.065729	8.388076	0.262451	0.221436	-0.022644	0.999066	0.000523	-0.010325	0.041927	
33410	    0	29.507653	23.988240	1.312031	-0.055709	-2.017344	7.552544	0.285590	0.250793	0.015965	0.999236	-0.000278	-0.010084	0.037753	
33411	    0	28.027236	27.334890	5.440009	0.351969	-1.810779	6.282403	0.270996	0.281860	0.057373	0.999464	0.001760	-0.009052	0.031406	
33412	    0	22.404690	34.374766	6.052992	1.189360	-1.485603	4.714901	0.215400	0.348519	0.064215	0.999677	0.005946	-0.007427	0.023572	
33413	    0	14.286344	42.266713	4.455519	1.775464	-1.179383	3.083982	0.136047	0.424377	0.049133	0.999824	0.008877	-0.005897	0.015419	
33414	    0	8.869844	47.082104	4.450722	1.814315	-0.922798	1.344523	0.085313	0.470970	0.049178	0.999925	0.009071	-0.004614	0.006722	
33415	    0	9.089772	46.165743	7.075262	1.789883	-0.558289	-0.399786	0.091614	0.460815	0.075134	0.999953	0.008949	-0.002791	-0.001999	
33416	    0	13.303766	40.885356	7.424829	1.924959	-0.150113	-2.013081	0.137081	0.406747	0.078272	0.999903	0.009624	-0.000751	-0.010065	
33417	    0	15.328883	32.375551	-0.902665	2.158692	-0.151072	-3.389968	0.158752	0.321167	-0.005432	0.999798	0.010793	-0.000755	-0.016949	
33418	    0	23.158370	52.944938	-13.340108	3.143108	-0.572688	-5.709331	0.246971	0.524548	-0.124438	0.999465	0.015713	-0.002863	-0.028542	
33419	    0	39.880148	35.097602	-8.064143	-0.213466	-0.096908	-6.105228	0.409302	0.338501	-0.080811	0.999533	-0.001067	-0.000484	-0.030521	
33420	    0	48.234303	-16.602320	5.405680	-2.365043	0.489148	-6.723880	0.476548	-0.181465	0.054972	0.999362	-0.011823	0.002445	-0.033612	
33421	    0	38.527525	-0.188471	4.843002	0.909129	0.174767	-8.513954	0.384766	-0.018494	0.048035	0.999083	0.004544	0.000874	-0.042557	
33422	    0	25.054833	37.201844	-7.907863	2.096148	0.095401	-8.930095	0.266803	0.361148	-0.075379	0.998948	0.010477	0.000477	-0.044635	
33423	    0	24.116186	17.471000	16.231610	-1.458378	0.406949	-7.977197	0.248230	0.166077	0.160583	0.999175	-0.007290	0.002034	-0.039875	
33424	    0	-8.552956	2.853677	3.658287	0.185052	0.003243	-7.166299	-0.084435	0.031542	0.036613	0.999357	0.000925	0.000016	-0.035824	
33425	    0	2.826763	21.856342	1.347570	0.251238	0.100724	-6.204458	0.035034	0.217529	0.013733	0.999517	0.001256	0.000504	-0.031017	
33426	    0	2.913268	9.515916	-1.288963	-0.181410	-0.122275	-5.277293	0.031637	0.094335	-0.012957	0.999651	-0.000907	-0.000611	-0.026383	
33427	    0	11.278437	9.159620	-0.878541	-0.135053	-0.099764	-4.768061	0.114929	0.088867	-0.008789	0.999715	-0.000675	-0.000499	-0.023838	
33428	    0	13.045276	11.419154	-5.063915	-0.406105	0.038913	-4.190182	0.132795	0.111322	-0.050893	0.999778	-0.002030	0.000195	-0.020949	
33429	    0	15.828861	12.725658	-3.686619	-0.916915	0.120551	-3.603571	0.160522	0.124207	-0.037537	0.999826	-0.004584	0.000603	-0.018017	
33430	    0	19.128538	6.933336	-1.556245	-1.029635	0.134665	-3.173594	0.192342	0.066205	-0.016038	0.999860	-0.005148	0.000673	-0.015867	
33431	    0	25.688508	9.201396	1.254259	-0.911747	0.180251	-2.863420	0.258179	0.088379	0.011902	0.999887	-0.004559	0.000901	-0.014317	
33432	    0	24.602240	7.403625	3.789525	-1.092376	0.248727	-2.646537	0.247022	0.070976	0.037195	0.999896	-0.005462	0.001244	-0.013232	
33433	    0	23.436959	2.874707	4.110338	-1.387067	0.278672	-2.321696	0.234741	0.026306	0.040588	0.999907	-0.006935	0.001393	-0.011608	
33434	    0	22.746025	2.788264	4.125259	-1.665165	0.296411	-2.078309	0.227797	0.025857	0.040694	0.999909	-0.008326	0.001482	-0.010391	
33435	    0	21.813732	2.550084	3.000799	-2.077549	0.195509	-1.781520	0.218384	0.023865	0.029541	0.999906	-0.010387	0.000978	-0.008907	
33436	    0	22.588576	3.016709	2.043737	-2.783889	0.093464	-1.425038	0.226104	0.028836	0.019924	0.999877	-0.013919	0.000467	-0.007125	
33437	    0	22.057350	-0.955642	2.030648	-3.533375	0.035288	-1.125400	0.220520	-0.010437	0.020447	0.999827	-0.017666	0.000176	-0.005627	
33438	    0	21.782527	-4.809219	0.637165	-3.763244	0.120743	-0.939047	0.217601	-0.048985	0.007156	0.999811	-0.018815	0.000604	-0.004695	
33439	    0	21.907318	-8.689202	-1.809434	-3.451721	0.353450	-0.806470	0.218689	-0.088074	-0.016968	0.999841	-0.017258	0.001767	-0.004032	
33440	    0	19.407952	-13.820675	-4.610739	-2.617536	0.560397	-0.583476	0.193547	-0.139364	-0.044831	0.999906	-0.013087	0.002802	-0.002917	
33441	    0	15.297050	-14.554394	-5.949496	-0.784306	0.609020	-0.527194	0.152405	-0.146179	-0.059387	0.999984	-0.003922	0.003045	-0.002636	
33442	    0	12.031542	-7.562398	-3.988654	1.258105	0.672922	-1.180856	0.119731	-0.076077	-0.040768	0.999957	0.006290	0.003365	-0.005904	
33443	    0	8.334996	3.245696	-2.893426	1.927441	0.732446	-1.950902	0.083557	0.031921	-0.028931	0.999899	0.009637	0.003662	-0.009754	
33444	    0	8.949544	8.489586	-9.103098	1.007113	0.848607	-2.450259	0.090144	0.084252	-0.090987	0.999903	0.005035	0.004243	-0.012251	
33445	    0	16.952196	9.828997	-13.453977	-0.189789	1.163532	-2.964908	0.170166	0.095642	-0.135620	0.999872	-0.000949	0.005817	-0.014824	
33446	    0	12.784978	2.331193	-11.990200	-0.299087	1.358480	-3.114279	0.127372	0.021146	-0.120801	0.999854	-0.001495	0.006792	-0.015571	
33447	    0	12.668828	-5.302913	-8.903734	-0.384541	1.255290	-3.238080	0.125244	-0.055237	-0.089722	0.999846	-0.001923	0.006276	-0.016190	
33448	    0	12.756077	-9.296162	-7.816949	-0.369856	0.957926	-3.586214	0.125489	-0.095369	-0.078599	0.999825	-0.001849	0.004789	-0.017930	
33449	    0	15.293704	-8.617279	-9.041765	-0.801905	0.676965	-3.962222	0.150879	-0.089539	-0.090576	0.999789	-0.004009	0.003385	-0.019810	
33450	    0	17.846833	-7.732744	-9.736151	-2.022346	0.486797	-4.054611	0.176602	-0.081903	-0.096980	0.999740	-0.010111	0.002434	-0.020271	
33451	    0	19.919327	-8.905324	-8.525953	-3.399307	0.428252	-4.160812	0.197083	-0.094604	-0.084106	0.999637	-0.016994	0.002141	-0.020802	
33452	    0	20.095734	-12.722027	-7.012471	-3.999357	0.512772	-4.445171	0.197867	-0.133016	-0.068013	0.999549	-0.019994	0.002563	-0.022223	
33453	    0	20.951126	-16.029628	-5.913291	-3.455100	0.629709	-4.804176	0.205383	-0.166260	-0.056946	0.999557	-0.017273	0.003148	-0.024017	
33454	    0	22.473794	-16.914200	-4.800781	-2.680565	0.760752	-4.930965	0.220288	-0.175241	-0.046530	0.999599	-0.013401	0.003803	-0.024652	
33455	    0	23.646788	-14.992706	-2.956576	-1.957169	0.901328	-4.848286	0.232605	-0.155884	-0.029114	0.999648	-0.009785	0.004506	-0.024239	
33456	    0	24.750404	-11.954839	-1.454179	-1.291785	1.057348	-4.584386	0.244597	-0.125274	-0.015043	0.999702	-0.006458	0.005286	-0.022920	
33457	    0	25.952122	-9.986583	-0.917448	-0.627949	1.230146	-4.128591	0.257324	-0.105225	-0.010437	0.999763	-0.003139	0.006150	-0.020641	
33458	    0	24.919250	-9.429469	-1.177791	0.290696	1.228783	-3.444674	0.247440	-0.098548	-0.013443	0.999831	0.001453	0.006144	-0.017222	
33459	    0	20.488075	-7.689092	-1.993080	1.062815	1.053087	-2.633768	0.203735	-0.079468	-0.021423	0.999885	0.005314	0.005265	-0.013168	
33460	    0	15.884254	-5.401994	-1.751585	1.378474	0.823995	-1.809737	0.158271	-0.055328	-0.018547	0.999927	0.006892	0.004120	-0.009048	
33461	    0	12.258033	-3.991021	-2.422855	1.210989	0.603492	-0.952922	0.122314	-0.040344	-0.024841	0.999966	0.006055	0.003017	-0.004765	
33462	    0	7.500611	-1.644405	-3.244746	0.911907	0.410272	0.017738	0.074941	-0.016289	-0.032676	0.999987	0.004560	0.002051	0.000089	
33463	    0	3.250612	-0.559428	-4.980549	0.638013	0.265505	1.146707	0.032471	-0.005249	-0.049866	0.999977	0.003190	0.001328	0.005733	
33464	    0	0.938568	-0.366343	-5.999946	0.646035	0.086977	2.357351	0.009400	-0.003359	-0.060015	0.999925	0.003230	0.000435	0.011786	
33465	    0	0.403342	0.319145	-6.203063	0.895740	-0.177584	3.514292	0.004028	0.003540	-0.062012	0.999835	0.004478	-0.000888	0.017570	
33466	    0	0.178194	0.726913	-6.133629	1.051045	-0.472302	4.528267	0.001757	0.007631	-0.061293	0.999726	0.005255	-0.002361	0.022639	
33467	    0	0.610287	1.003225	-5.879160	1.021138	-0.757698	5.470995	0.006042	0.010498	-0.058716	0.999605	0.005105	-0.003788	0.027351	
33468	    0	1.742512	0.904805	-5.658556	0.815151	-1.065629	6.303734	0.017425	0.009828	-0.056454	0.999480	0.004075	-0.005327	0.031513	
33469	    0	3.317726	0.999782	-5.170263	0.538749	-1.331419	6.965579	0.033142	0.011292	-0.051453	0.999368	0.002693	-0.006656	0.034821	
33470	    0	5.650558	1.188864	-4.310873	0.253549	-1.589400	7.482638	0.056347	0.014053	-0.042644	0.999268	0.001267	-0.007945	0.037404	
33471	    0	7.773060	0.745635	-3.142017	0.146525	-1.834422	7.929893	0.077637	0.010559	-0.030701	0.999171	0.000732	-0.009170	0.039639	
33472	    0	10.120921	-0.188866	-2.202057	0.316905	-2.062079	8.212639	0.101392	0.002307	-0.020974	0.999103	0.001584	-0.010307	0.041051	
33473	    0	12.919218	-0.661011	-0.780340	0.622947	-2.265121	8.394228	0.129395	-0.001160	-0.006348	0.999050	0.003114	-0.011322	0.041958	
33474	    0	13.912484	1.916573	-0.605346	0.885298	-2.423502	8.449823	0.138208	0.025041	-0.004272	0.999024	0.004425	-0.012114	0.042235	
33475	    0	15.724248	2.173033	-1.229879	0.699278	-2.494124	8.600456	0.156250	0.028503	-0.010254	0.998991	0.003495	-0.012466	0.042988	
33476	    0	16.290245	0.924909	-0.975013	0.779043	-2.563609	8.754927	0.162395	0.016399	-0.007611	0.998952	0.003894	-0.012814	0.043759	
33477	    0	18.418561	1.571651	-0.473602	1.038924	-2.578898	8.857092	0.183289	0.023865	-0.002258	0.998922	0.005193	-0.012890	0.044270	
33478	    0	20.783713	3.432572	-0.022779	1.145393	-2.533297	8.858429	0.206025	0.043470	0.002622	0.998922	0.005725	-0.012662	0.044276	
33479	    0	22.676105	5.953345	-0.466840	1.146340	-2.403154	8.812774	0.223877	0.069458	-0.001587	0.998940	0.005730	-0.012012	0.044048	
33480	    0	23.627878	10.263579	-1.492085	1.167127	-2.286935	8.720158	0.231650	0.112880	-0.011615	0.998967	0.005834	-0.011431	0.043586	
33481	    0	24.447009	16.598715	-1.811187	1.022868	-2.253706	8.563015	0.237244	0.176331	-0.014526	0.999006	0.005113	-0.011265	0.042801	
33482	    0	26.023609	21.132060	-1.198774	0.669111	-2.221021	8.227564	0.251360	0.221817	-0.008432	0.999086	0.003345	-0.011102	0.041125	
33483	    0	27.782679	22.879322	1.022848	0.576931	-2.167880	7.545894	0.268799	0.239014	0.013855	0.999225	0.002884	-0.010837	0.037720	
33484	    0	27.601373	25.688938	4.541004	0.847789	-1.976584	6.445408	0.267077	0.265390	0.049192	0.999422	0.004238	-0.009881	0.032221	
33485	    0	23.373300	31.215644	6.243931	1.407994	-1.636714	5.093270	0.225159	0.317505	0.066528	0.999617	0.007039	-0.008183	0.025463	
33486	    0	16.310840	37.951015	5.768818	2.081653	-1.311405	3.576941	0.155894	0.381706	0.062692	0.999763	0.010407	-0.006557	0.017883	
33487	    0	10.197408	43.180316	4.443501	2.262973	-0.971072	2.003563	0.097412	0.432251	0.049805	0.999873	0.011314	-0.004855	0.010017	
33488	    0	8.130359	45.242231	5.204376	1.984824	-0.629246	0.429352	0.080159	0.452047	0.056785	0.999943	0.009924	-0.003146	0.002147	
33489	    0	9.376661	42.302304	6.814392	1.728852	-0.221066	-1.127645	0.096069	0.421875	0.071899	0.999946	0.008644	-0.001105	-0.005638	
33490	    0	10.420151	38.255387	5.903444	1.493317	0.161177	-2.534958	0.109084	0.380737	0.061795	0.999891	0.007466	0.000806	-0.012674	
33491	    0	14.401522	30.875550	-1.048479	1.208757	0.134285	-3.520406	0.149414	0.306213	-0.008728	0.999826	0.006043	0.000671	-0.017601	
33492	    0	19.322996	35.806290	-11.608681	1.624107	-0.230626	-5.048009	0.202331	0.353958	-0.112971	0.999647	0.008120	-0.001153	-0.025237	
33493	    0	31.051893	45.501435	-5.517133	-0.915676	0.055131	-6.173182	0.324341	0.444885	-0.057312	0.999513	-0.004578	0.000276	-0.030861	
33494	    0	39.190317	2.543144	4.167267	-3.508583	0.836939	-6.342769	0.392631	0.013694	0.039721	0.999334	-0.017539	0.004184	-0.031707	
33495	    0	37.887989	-12.630673	0.898592	-0.702841	0.716768	-7.641967	0.373718	-0.140625	0.008118	0.999257	-0.003513	0.003583	-0.038200	
33496	    0	21.068936	20.163253	-8.491310	3.183673	0.012402	-8.401645	0.218939	0.193868	-0.081799	0.998991	0.015913	0.000062	-0.041994	
33497	    0	25.474039	39.957238	10.868798	-1.150813	0.675569	-7.806911	0.270447	0.389832	0.105530	0.999215	-0.005753	0.003377	-0.039024	
33498	    0	-0.259195	2.459856	10.264375	-0.474255	-0.008394	-6.660745	-0.001770	0.024910	0.102585	0.999442	-0.002371	-0.000042	-0.033298	
33499	    0	2.707202	17.738467	1.738752	0.242841	0.157189	-5.954098	0.032349	0.176453	0.017578	0.999556	0.001214	0.000786	-0.029766	
33500	    0	5.389782	12.478361	0.380595	-0.165576	-0.227189	-5.053678	0.057023	0.123372	0.003767	0.999680	-0.000828	-0.001136	-0.025266	
33501	    0	11.810059	10.057555	0.674353	-0.243971	-0.151838	-4.588722	0.120361	0.097839	0.006714	0.999735	-0.001220	-0.000759	-0.022942	
33502	    0	12.737702	8.406550	-5.286577	-0.554693	-0.072866	-3.934165	0.129015	0.081391	-0.053047	0.999803	-0.002773	-0.000364	-0.019670	
33503	    0	15.221372	13.421442	-4.438249	-0.991681	0.086217	-3.361683	0.154419	0.131409	-0.045105	0.999846	-0.004958	0.000431	-0.016808	
33504	    0	17.544722	9.797083	-0.759108	-1.036113	0.134473	-2.893180	0.176834	0.095378	-0.008208	0.999882	-0.005180	0.000672	-0.014465	
33505	    0	22.339282	8.921085	-1.717422	-1.116789	0.252541	-2.560509	0.224487	0.086243	-0.017944	0.999901	-0.005584	0.001263	-0.012802	
33506	    0	27.408987	7.502872	2.216233	-1.161224	0.406657	-2.148874	0.274920	0.072203	0.021179	0.999923	-0.005806	0.002033	-0.010744	
33507	    0	27.961633	4.913493	3.628552	-1.297790	0.455676	-1.910445	0.280151	0.046692	0.035339	0.999930	-0.006489	0.002278	-0.009552	
33508	    0	28.090825	3.829509	5.168072	-1.766822	0.525679	-1.657338	0.281349	0.036415	0.050614	0.999923	-0.008834	0.002628	-0.008286	
33509	    0	27.715841	2.243050	4.443450	-2.330663	0.436415	-1.403090	0.277405	0.020996	0.043579	0.999905	-0.011653	0.002182	-0.007015	
33510	    0	26.134839	0.168764	3.385424	-3.078027	0.279058	-1.101734	0.261401	0.000765	0.033473	0.999865	-0.015389	0.001395	-0.005508	
33511	    0	25.027761	-4.276826	2.168513	-3.885143	0.147448	-0.796561	0.250122	-0.043335	0.022339	0.999803	-0.019424	0.000737	-0.003983	
33512	    0	23.592168	-9.299721	-1.206826	-4.136197	0.249690	-0.587697	0.235633	-0.093917	-0.010427	0.999781	-0.020679	0.001248	-0.002938	
33513	    0	22.175623	-13.669438	-5.144616	-3.736147	0.453213	-0.389885	0.221375	-0.138062	-0.049377	0.999821	-0.018680	0.002266	-0.001949	
33514	    0	19.745459	-14.897434	-7.627741	-2.827743	0.578900	-0.119404	0.197147	-0.150156	-0.074731	0.999895	-0.014138	0.002894	-0.000597	
33515	    0	14.154762	-13.602236	-7.900859	-0.944525	0.612072	-0.372317	0.141052	-0.136658	-0.078796	0.999982	-0.004723	0.003060	-0.001862	
33516	    0	11.935736	-2.144124	-2.283110	0.556380	0.665291	-1.420419	0.119124	-0.022223	-0.023289	0.999965	0.002782	0.003326	-0.007102	
33517	    0	6.308388	9.272064	-3.313722	0.034524	0.831625	-2.343047	0.064026	0.091980	-0.033386	0.999922	0.000173	0.004158	-0.011715	
33518	    0	11.065658	18.164772	-14.966409	-1.013996	1.025060	-3.121911	0.112694	0.179135	-0.151151	0.999852	-0.005070	0.005125	-0.015609	
33519	    0	15.420979	8.733920	-16.034642	-1.705292	1.427753	-3.509011	0.154541	0.083252	-0.162170	0.999784	-0.008526	0.007138	-0.017544	
33520	    0	11.860440	-1.425199	-12.269300	-1.911309	1.550602	-3.499679	0.117362	-0.017490	-0.123449	0.999771	-0.009556	0.007752	-0.017497	
33521	    0	11.245456	-7.898705	-7.347257	-1.934971	1.542216	-3.650198	0.110413	-0.081726	-0.073547	0.999757	-0.009674	0.007710	-0.018250	
33522	    0	13.691371	-9.357442	-7.968469	-1.607273	1.397828	-4.070831	0.134405	-0.096969	-0.079860	0.999736	-0.008036	0.006989	-0.020352	
33523	    0	16.642738	-8.394412	-9.085673	-1.912885	1.261459	-4.400323	0.163940	-0.088440	-0.091064	0.999692	-0.009563	0.006307	-0.021999	
33524	    0	18.804472	-8.166923	-8.554851	-2.555574	1.058321	-4.525334	0.185664	-0.086981	-0.085446	0.999648	-0.012776	0.005291	-0.022624	
33525	    0	19.967067	-9.869938	-7.094890	-3.094131	0.959333	-4.628606	0.196960	-0.104370	-0.070312	0.999600	-0.015469	0.004796	-0.023140	
33526	    0	20.021061	-11.408263	-5.780020	-3.270054	1.082388	-4.811798	0.197064	-0.119785	-0.056945	0.999562	-0.016348	0.005411	-0.024055	
33527	    0	20.832788	-12.416612	-4.891609	-3.016345	1.315692	-4.957549	0.204834	-0.130005	-0.048340	0.999557	-0.015079	0.006577	-0.024784	
33528	    0	21.914267	-14.180418	-4.799013	-2.362199	1.494425	-5.063954	0.215092	-0.147851	-0.047885	0.999581	-0.011809	0.007471	-0.025316	
33529	    0	22.322979	-14.851079	-4.414648	-1.519202	1.643005	-4.997115	0.219055	-0.154358	-0.044800	0.999625	-0.007595	0.008214	-0.024982	
33530	    0	22.397081	-13.402688	-3.419575	-0.719531	1.747705	-4.778052	0.220375	-0.139447	-0.035637	0.999669	-0.003597	0.008738	-0.023888	
33531	    0	22.804709	-10.841622	-2.574900	-0.028994	1.801661	-4.404865	0.225342	-0.113403	-0.027771	0.999717	-0.000145	0.009007	-0.022022	
33532	    0	22.498708	-8.574534	-2.736636	0.675063	1.749556	-3.893201	0.223010	-0.090002	-0.029622	0.999766	0.003375	0.008747	-0.019464	
33533	    0	19.370126	-6.906804	-3.647612	1.170419	1.555917	-3.230477	0.192261	-0.071960	-0.038391	0.999822	0.005852	0.007779	-0.016151	
33534	    0	16.182705	-5.710679	-3.274170	1.278167	1.364382	-2.520665	0.160862	-0.058923	-0.034214	0.999876	0.006391	0.006822	-0.012603	
33535	    0	12.162824	-4.284239	-2.939032	1.494829	1.123077	-1.686141	0.121094	-0.043640	-0.030396	0.999920	0.007474	0.005615	-0.008430	
33536	    0	8.150739	-2.978868	-3.439559	1.602390	0.945679	-0.742925	0.081232	-0.029812	-0.035019	0.999949	0.008012	0.004728	-0.003715	
33537	    0	5.404255	-1.834415	-4.097743	1.404587	0.801286	0.183107	0.053894	-0.018005	-0.041321	0.999967	0.007023	0.004006	0.000916	
33538	    0	1.292795	-0.267105	-5.505431	1.397157	0.641071	1.312660	0.012767	-0.002202	-0.055112	0.999949	0.006986	0.003205	0.006563	
33539	    0	-0.702115	1.113966	-6.411947	1.331376	0.496882	2.533048	-0.007324	0.011475	-0.064026	0.999894	0.006657	0.002484	0.012665	
33540	    0	-1.580078	2.016279	-7.113814	1.380439	0.282688	3.707366	-0.016277	0.020354	-0.070975	0.999803	0.006902	0.001413	0.018536	
33541	    0	-1.573961	0.763067	-7.733411	1.596234	0.017740	4.714690	-0.015930	0.007874	-0.077271	0.999690	0.007980	0.000089	0.023571	
33542	    0	-0.734592	0.505005	-7.954370	1.795077	-0.260963	5.630360	-0.007394	0.005556	-0.079505	0.999562	0.008974	-0.001305	0.028148	
33543	    0	0.776201	0.809821	-7.388679	1.691944	-0.566207	6.464071	0.007690	0.008972	-0.073792	0.999437	0.008458	-0.002831	0.032314	
33544	    0	2.755288	0.982879	-6.446070	1.390575	-0.821487	7.119615	0.027433	0.011254	-0.064273	0.999333	0.006951	-0.004107	0.035590	
33545	    0	4.943983	0.466126	-5.625894	1.051784	-1.040909	7.596958	0.049500	0.006836	-0.055969	0.999250	0.005258	-0.005203	0.037975	
33546	    0	7.050114	-1.197185	-4.369977	0.959468	-1.299832	7.933876	0.071178	-0.008948	-0.043286	0.999180	0.004796	-0.006497	0.039659	
33547	    0	8.893457	-2.431353	-3.326937	1.357870	-1.564498	8.257498	0.090088	-0.020386	-0.032715	0.999094	0.006787	-0.007820	0.041275	
33548	    0	10.921677	-2.091316	-2.363024	1.695995	-1.745029	8.500197	0.110169	-0.016047	-0.022821	0.999022	0.008477	-0.008722	0.042487	
33549	    0	12.585004	-1.224402	-2.034797	1.776158	-1.896553	8.678352	0.126404	-0.006592	-0.019226	0.998974	0.008878	-0.009480	0.043377	
33550	    0	13.773973	-0.706038	-2.509021	1.796029	-2.031098	8.854978	0.138111	-0.000732	-0.023714	0.998928	0.008977	-0.010152	0.044259	
33551	    0	15.360678	-0.584156	-2.690579	1.709621	-2.139889	9.051835	0.153931	0.001343	-0.025269	0.998881	0.008545	-0.010695	0.045242	
33552	    0	17.542625	0.151526	-2.727564	1.656421	-2.262242	9.300455	0.175389	0.009889	-0.025232	0.998820	0.008279	-0.011307	0.046484	
33553	    0	20.771427	1.661848	-2.723851	1.614461	-2.308826	9.445199	0.206909	0.026611	-0.024658	0.998785	0.008069	-0.011539	0.047207	
33554	    0	24.213807	4.229066	-3.128894	1.692509	-2.308071	9.476525	0.240102	0.053949	-0.028086	0.998775	0.008459	-0.011536	0.047363	
33555	    0	26.684925	10.114233	-3.942583	1.696889	-2.208073	9.430679	0.262085	0.113892	-0.035583	0.998791	0.008481	-0.011036	0.047134	
33556	    0	29.180711	16.089676	-3.760484	1.090660	-1.995282	9.333002	0.284225	0.174473	-0.033816	0.998846	0.005451	-0.009973	0.046647	
33557	    0	31.005973	20.633531	-4.067154	0.463463	-1.935517	9.118146	0.300598	0.220276	-0.037231	0.998911	0.002316	-0.009674	0.045574	
33558	    0	33.538535	25.716941	-2.343573	-0.219605	-1.981409	8.485046	0.324292	0.271064	-0.020478	0.999050	-0.001098	-0.009904	0.042412	
33559	    0	31.388513	28.806235	0.558568	-0.383662	-1.942157	7.412249	0.302856	0.299438	0.007996	0.999264	-0.001918	-0.009708	0.037052	
33560	    0	26.591730	32.425021	2.046052	0.072872	-1.731184	5.809720	0.256161	0.331779	0.022826	0.999540	0.000364	-0.008655	0.029044	
33561	    0	18.135271	40.434747	3.664930	0.923232	-1.513604	4.037040	0.172852	0.407715	0.039856	0.999757	0.004616	-0.007567	0.020184	
33562	    0	10.777250	47.156594	6.584767	1.492360	-1.160852	2.141072	0.102322	0.472169	0.069974	0.999898	0.007462	-0.005804	0.010705	
33563	    0	8.690995	49.575605	8.511669	1.471155	-0.671394	0.298313	0.085876	0.495239	0.089050	0.999966	0.007356	-0.003357	0.001492	
33564	    0	11.502605	43.424929	8.535955	1.589804	-0.208286	-1.330018	0.117816	0.432775	0.088925	0.999946	0.007949	-0.001041	-0.006650	
33565	    0	16.306885	36.115608	2.072596	1.871008	-0.097661	-2.834456	0.168152	0.358582	0.024170	0.999855	0.009355	-0.000488	-0.014172	
33566	    0	19.857894	43.147488	-5.648782	3.028347	-0.331354	-4.989190	0.209357	0.427128	-0.049657	0.999573	0.015140	-0.001657	-0.024942	
33567	    0	34.416345	59.499165	-6.574232	1.357733	-0.164065	-6.805260	0.364197	0.583252	-0.061462	0.999397	0.006787	-0.000820	-0.034019	
33568	    0	43.615292	2.201784	3.865099	-2.287215	0.503267	-6.813951	0.436670	0.007577	0.037411	0.999351	-0.011434	0.002516	-0.034062	
33569	    0	38.217920	-18.208560	2.249360	-0.231233	0.458841	-8.031342	0.374512	-0.197205	0.021851	0.999190	-0.001156	0.002294	-0.040146	
33570	    0	18.290465	11.572913	-12.785607	3.702057	-0.338112	-8.843570	0.188063	0.109825	-0.125471	0.998849	0.018503	-0.001690	-0.044201	
33571	    0	16.082171	43.924297	-3.141385	0.597553	0.112375	-8.268054	0.178772	0.432190	-0.030212	0.999141	0.002987	0.000562	-0.041328	
33572	    0	-1.906656	12.406543	12.243259	-0.610284	-0.104162	-6.920108	-0.014815	0.125000	0.122044	0.999396	-0.003051	-0.000521	-0.034594	
33573	    0	-0.556406	15.121239	5.458203	0.380764	0.055131	-5.967075	-0.001038	0.151184	0.054871	0.999553	0.001904	0.000276	-0.029831	
33574	    0	7.421871	12.605482	1.470766	0.320662	-0.302731	-5.219102	0.077451	0.124038	0.015023	0.999657	0.001603	-0.001513	-0.026093	
33575	    0	12.392417	9.175474	-0.068455	0.327331	-0.176065	-4.706248	0.126038	0.088806	-0.000427	0.999721	0.001637	-0.000880	-0.023529	
33576	    0	13.896800	10.800821	0.551567	0.057415	-0.132379	-4.134473	0.141157	0.105103	0.005639	0.999785	0.000287	-0.000662	-0.020671	
33577	    0	15.876575	12.518962	-1.653948	-0.296800	-0.074581	-3.633319	0.161011	0.122253	-0.016663	0.999833	-0.001484	-0.000373	-0.018166	
33578	    0	16.000490	9.691174	-2.506674	-0.702505	-0.046350	-3.033570	0.161455	0.094381	-0.025364	0.999878	-0.003512	-0.000232	-0.015167	
33579	    0	19.664050	7.474104	-2.301369	-0.750566	-0.157171	-2.668848	0.197632	0.072021	-0.023132	0.999903	-0.003753	-0.000786	-0.013344	
33580	    0	24.838761	8.760727	0.040915	-0.884841	-0.150684	-2.248819	0.249352	0.084808	0.000217	0.999927	-0.004424	-0.000753	-0.011244	
33581	    0	25.490656	6.934188	4.083932	-1.056694	-0.131801	-1.989788	0.255554	0.067017	0.040649	0.999936	-0.005283	-0.000659	-0.009949	
33582	    0	26.598040	4.630484	3.394897	-1.475367	-0.076105	-1.770631	0.266365	0.044197	0.033719	0.999933	-0.007377	-0.000381	-0.008853	
33583	    0	26.901312	4.551178	3.604494	-1.960044	-0.115779	-1.606031	0.269348	0.043701	0.035767	0.999919	-0.009800	-0.000579	-0.008030	
33584	    0	25.063118	1.931851	1.779419	-2.626897	-0.183303	-1.365521	0.250740	0.017840	0.017783	0.999889	-0.013134	-0.000916	-0.006827	
33585	    0	24.424047	-1.546562	1.421351	-3.606626	-0.268380	-0.996457	0.244141	-0.016418	0.014832	0.999824	-0.018032	-0.001342	-0.004982	
33586	    0	22.735364	-4.607121	0.317339	-4.318584	-0.228137	-0.744307	0.227176	-0.046830	0.004438	0.999759	-0.021591	-0.001141	-0.003721	
33587	    0	22.693350	-8.624865	-1.577890	-4.366655	-0.023462	-0.576829	0.226685	-0.087219	-0.013855	0.999757	-0.021832	-0.000117	-0.002884	
33588	    0	21.132373	-12.246299	-4.360237	-3.889905	0.246445	-0.376725	0.211040	-0.123681	-0.041465	0.999808	-0.019448	0.001232	-0.001884	
33589	    0	18.489459	-15.110252	-6.501522	-3.057219	0.383201	-0.025178	0.184753	-0.152100	-0.063049	0.999881	-0.015285	0.001916	-0.000126	
33590	    0	14.590389	-12.870127	-6.480210	-1.351750	0.396923	-0.278094	0.145597	-0.129339	-0.064219	0.999973	-0.006759	0.001985	-0.001390	
33591	    0	10.952577	2.985358	-2.255488	-0.110627	0.355723	-1.326762	0.109680	0.029114	-0.022766	0.999976	-0.000553	0.001779	-0.006634	
33592	    0	6.427496	14.644876	-5.146853	-1.281206	0.550478	-2.333141	0.065831	0.145352	-0.052582	0.999907	-0.006406	0.002752	-0.011665	
33593	    0	10.834132	17.627934	-14.568544	-2.857415	1.047783	-2.852074	0.110046	0.172607	-0.148743	0.999782	-0.014286	0.005239	-0.014259	
33594	    0	16.309351	4.249093	-14.410175	-3.269873	1.356629	-3.032959	0.162704	0.037646	-0.145848	0.999728	-0.016348	0.006783	-0.015163	
33595	    0	12.281203	-5.537413	-11.027333	-3.058689	1.477937	-2.920013	0.121155	-0.058838	-0.110291	0.999748	-0.015292	0.007389	-0.014599	
33596	    0	11.215737	-10.607837	-6.260610	-2.450183	1.598103	-3.219668	0.109924	-0.108624	-0.062170	0.999763	-0.012250	0.007990	-0.016097	
33597	    0	13.116419	-10.143852	-6.805837	-1.645605	1.497011	-3.850110	0.128662	-0.104492	-0.068176	0.999752	-0.008227	0.007484	-0.019249	
33598	    0	15.222128	-8.271995	-7.475493	-1.481763	1.345185	-4.222491	0.149918	-0.086457	-0.075137	0.999726	-0.007408	0.006725	-0.021111	
33599	    0	17.870627	-7.593622	-7.147019	-1.754933	1.127926	-4.375886	0.176575	-0.080444	-0.071777	0.999705	-0.008774	0.005639	-0.021877	
33600	    0	19.550776	-10.054735	-5.734458	-2.063021	1.044959	-4.543797	0.192848	-0.105540	-0.057285	0.999675	-0.010314	0.005224	-0.022717	
33601	    0	19.098872	-12.391577	-5.008503	-1.910620	1.055457	-4.781129	0.187683	-0.128906	-0.049866	0.999654	-0.009552	0.005277	-0.023903	
33602	    0	18.756987	-13.115094	-4.850833	-1.620672	1.121270	-4.904555	0.184001	-0.136086	-0.048457	0.999650	-0.008102	0.005606	-0.024520	
33603	    0	20.319899	-14.494749	-4.299507	-1.133096	1.238585	-5.000885	0.199219	-0.150208	-0.043396	0.999652	-0.005665	0.006192	-0.025002	
33604	    0	20.903278	-13.654908	-3.267587	-0.512944	1.357042	-5.023575	0.205288	-0.141823	-0.033718	0.999658	-0.002564	0.006784	-0.025115	
33605	    0	21.002403	-11.991980	-2.650318	0.032238	1.435241	-4.832207	0.206848	-0.124939	-0.028015	0.999681	0.000161	0.007175	-0.024158	
33606	    0	21.956765	-10.453592	-2.046114	0.446552	1.506374	-4.465711	0.216998	-0.109352	-0.022343	0.999720	0.002233	0.007531	-0.022326	
33607	    0	22.713553	-8.732254	-2.361139	1.006397	1.497959	-3.966073	0.225159	-0.091675	-0.025757	0.999763	0.005032	0.007489	-0.019829	
33608	    0	20.951333	-6.417759	-3.705793	1.506901	1.360598	-3.326054	0.208150	-0.067358	-0.038977	0.999809	0.007534	0.006803	-0.016629	
33609	    0	17.545975	-4.595905	-3.646953	1.394712	1.191952	-2.601733	0.174622	-0.047974	-0.037842	0.999873	0.006973	0.005960	-0.013008	
33610	    0	13.609458	-3.493666	-3.367940	1.263839	0.954841	-1.778835	0.135614	-0.035928	-0.034553	0.999928	0.006319	0.004774	-0.008894	
33611	    0	9.416233	-2.073505	-3.867772	1.051341	0.715072	-0.861367	0.093933	-0.020935	-0.039124	0.999970	0.005257	0.003575	-0.004307	
33612	    0	5.479735	-1.015705	-4.657252	0.655748	0.518228	0.107766	0.054682	-0.009974	-0.046747	0.999990	0.003279	0.002591	0.000539	
33613	    0	2.404263	-0.415711	-5.378951	0.412944	0.293734	1.164253	0.023987	-0.003906	-0.053833	0.999979	0.002065	0.001469	0.005821	
33614	    0	0.367528	0.000326	-5.943871	0.318916	0.059892	2.301459	0.003656	0.000140	-0.059440	0.999932	0.001595	0.000299	0.011507	
33615	    0	-0.237696	1.158743	-5.769775	0.390072	-0.257123	3.431873	-0.002502	0.011658	-0.057678	0.999849	0.001950	-0.001286	0.017159	
33616	    0	-0.451858	0.775105	-5.727755	0.547265	-0.611549	4.470829	-0.004518	0.007807	-0.057270	0.999742	0.002736	-0.003057	0.022352	
33617	    0	0.197031	-0.740724	-5.631280	0.944067	-0.988133	5.362623	0.002441	-0.007080	-0.056335	0.999617	0.004720	-0.004940	0.026810	
33618	    0	1.827340	-0.772636	-5.465488	1.271661	-1.310196	6.220190	0.018852	-0.006799	-0.054578	0.999475	0.006357	-0.006550	0.031096	
33619	    0	4.087279	-0.655912	-4.796436	1.284498	-1.602522	6.934342	0.041443	-0.004822	-0.047668	0.999346	0.006421	-0.008011	0.034664	
33620	    0	6.296284	-1.181678	-3.845041	1.196212	-1.828658	7.498549	0.063689	-0.009210	-0.037930	0.999237	0.005980	-0.009141	0.037483	
33621	    0	8.421648	-2.087677	-3.134197	1.180603	-2.054990	7.913932	0.085266	-0.017334	-0.030579	0.999146	0.005901	-0.010272	0.039558	
33622	    0	10.808378	-2.854561	-2.416322	1.255236	-2.246223	8.263878	0.109399	-0.023895	-0.023099	0.999063	0.006274	-0.011228	0.041306	
33623	    0	12.935000	-2.264175	-1.894914	1.364593	-2.400059	8.536340	0.130371	-0.016968	-0.017517	0.998994	0.006821	-0.011996	0.042667	
33624	    0	14.460899	-2.046763	-1.311945	1.152059	-2.504269	8.727449	0.145466	-0.014062	-0.011395	0.998953	0.005758	-0.012517	0.043622	
33625	    0	15.763445	-2.585906	-1.010787	1.023475	-2.572616	8.935753	0.158691	-0.018738	-0.008179	0.998906	0.005116	-0.012858	0.044662	
33626	    0	17.642109	-2.344198	-0.855427	1.014141	-2.613870	9.128796	0.177337	-0.015324	-0.006331	0.998859	0.005069	-0.013064	0.045627	
33627	    0	20.537274	-1.363155	0.003730	0.986303	-2.550764	9.407754	0.205688	-0.003967	0.002625	0.998800	0.004930	-0.012749	0.047020	
33628	    0	24.298314	-0.358004	0.797188	0.977921	-2.457300	9.606138	0.242661	0.008035	0.010976	0.998759	0.004888	-0.012281	0.048011	
33629	    0	27.714255	1.731071	0.791403	1.104626	-2.295882	9.688805	0.275757	0.030640	0.011230	0.998745	0.005521	-0.011475	0.048424	
33630	    0	30.523167	7.018154	0.211151	1.011118	-2.025861	9.649602	0.301331	0.084764	0.005582	0.998772	0.005054	-0.010125	0.048228	
33631	    0	31.414178	13.890899	-1.602570	0.909209	-1.753924	9.506144	0.307190	0.153687	-0.012634	0.998821	0.004544	-0.008766	0.047512	
33632	    0	32.345351	20.798552	-3.419377	0.727731	-1.649511	9.231346	0.313661	0.222733	-0.030787	0.998894	0.003637	-0.008245	0.046140	
33633	    0	33.085563	25.441392	-4.218546	0.605206	-1.813902	8.589655	0.319885	0.268433	-0.038452	0.999032	0.003025	-0.009067	0.042934	
33634	    0	30.194338	29.914086	-1.238968	1.005990	-1.964093	7.314744	0.290830	0.309962	-0.007956	0.999269	0.005029	-0.009818	0.036565	
33635	    0	24.360191	36.536121	4.812775	1.496350	-1.815879	5.534434	0.232910	0.371521	0.053040	0.999547	0.007481	-0.009078	0.027668	
33636	    0	15.969852	44.195840	8.883883	2.288067	-1.420719	3.739306	0.150752	0.443769	0.095001	0.999734	0.011439	-0.007103	0.018695	
33637	    0	9.715179	51.255362	7.995424	2.604795	-0.871126	1.874629	0.091980	0.512329	0.087036	0.999862	0.013023	-0.004355	0.009373	
33638	    0	7.990503	51.463405	6.086103	2.584531	-0.331125	0.000000	0.079797	0.513789	0.067636	0.999915	0.012922	-0.001656	0.000000	
33639	    0	11.395654	45.032088	5.181709	2.978104	-0.051120	-2.016558	0.118469	0.448303	0.058533	0.999838	0.014890	-0.000256	-0.010082	
33640	    0	16.024078	39.854461	0.753055	2.993680	-0.005913	-3.752115	0.167677	0.395273	0.013469	0.999712	0.014967	-0.000030	-0.018759	
33641	    0	21.682978	50.336729	-10.521557	3.824656	-0.330231	-5.974308	0.231934	0.498474	-0.095276	0.999370	0.019119	-0.001651	-0.029865	
33642	    0	39.376869	55.503705	-12.352472	0.778941	-0.161969	-7.198190	0.413507	0.540864	-0.121070	0.999344	0.003894	-0.000810	-0.035983	
33643	    0	46.606117	-7.250890	0.296647	-2.952320	0.544868	-6.908524	0.463196	-0.088501	0.002930	0.999290	-0.014758	0.002724	-0.034534	
33644	    0	32.442350	-13.272820	-0.012175	0.041593	0.292486	-8.549436	0.318357	-0.146426	-0.000620	0.999084	0.000208	0.001462	-0.042734	
33645	    0	12.716085	22.661785	-17.909497	3.075910	-0.427395	-8.608197	0.137207	0.223572	-0.175354	0.998953	0.015374	-0.002136	-0.043026	
33646	    0	25.491978	45.203896	9.207838	-1.017657	0.439573	-8.008658	0.272949	0.441807	0.089226	0.999183	-0.005087	0.002197	-0.040032	
33647	    0	-0.539273	5.084822	13.178101	-0.978283	0.051318	-6.842640	-0.003601	0.051636	0.131531	0.999402	-0.004890	0.000257	-0.034206	
33648	    0	3.879294	17.343351	5.003522	0.291488	0.326017	-6.107521	0.044144	0.172067	0.050218	0.999531	0.001457	0.001630	-0.030533	
33649	    0	6.328840	10.123724	1.240379	0.332678	-0.008966	-5.132096	0.065857	0.099548	0.012573	0.999669	0.001663	-0.000045	-0.025658	
33650	    0	8.896410	8.260477	1.369303	0.286509	-0.046162	-4.631267	0.090841	0.080496	0.013830	0.999730	0.001432	-0.000231	-0.023154	
33651	    0	11.845783	12.337093	-2.092841	0.063328	-0.127992	-4.006463	0.120911	0.120972	-0.020813	0.999799	0.000317	-0.000640	-0.020031	
33652	    0	15.721800	14.216911	-3.885117	-0.643190	-0.007821	-3.387047	0.159595	0.139354	-0.039296	0.999851	-0.003216	-0.000039	-0.016934	
33653	    0	18.031662	9.470904	-1.824339	-0.892482	0.020600	-2.853500	0.181641	0.092041	-0.018677	0.999887	-0.004462	0.000103	-0.014267	
33654	    0	20.646563	8.233810	-2.069202	-1.005203	0.027085	-2.513009	0.207475	0.079630	-0.021125	0.999907	-0.005026	0.000135	-0.012565	
33655	    0	26.332593	8.599433	2.796752	-1.134518	0.064279	-2.104237	0.264221	0.083374	0.027405	0.999928	-0.005672	0.000321	-0.010521	
33656	    0	24.497065	5.669490	4.932640	-1.280812	0.101473	-1.851121	0.245508	0.054738	0.048847	0.999936	-0.006404	0.000507	-0.009255	
33657	    0	24.363954	4.540216	4.192116	-1.696816	0.133708	-1.583898	0.244019	0.043823	0.041382	0.999932	-0.008484	0.000669	-0.007919	
33658	    0	24.180581	3.485308	4.056246	-2.107294	0.075533	-1.369131	0.242054	0.033621	0.040112	0.999921	-0.010536	0.000378	-0.006845	
33659	    0	23.508164	2.763821	2.194668	-2.760225	0.024415	-1.075784	0.235229	0.026672	0.021545	0.999889	-0.013801	0.000122	-0.005379	
33660	    0	22.586714	-2.285193	1.504924	-3.744542	-0.065617	-0.687641	0.225782	-0.023340	0.015557	0.999818	-0.018722	-0.000328	-0.003438	
33661	    0	20.800585	-5.194161	-0.121240	-4.159659	-0.061803	-0.460086	0.207886	-0.052429	-0.000061	0.999781	-0.020797	-0.000309	-0.002300	
33662	    0	21.513303	-8.164069	-2.073567	-3.978230	0.105293	-0.221839	0.215032	-0.082272	-0.019217	0.999801	-0.019890	0.000526	-0.001109	
33663	    0	21.178368	-10.813135	-2.643353	-2.471989	0.393115	0.222021	0.211853	-0.108215	-0.025513	0.999921	-0.012360	0.001966	0.001110	
33664	    0	17.385149	-6.978509	-3.328664	-0.959401	0.519374	-0.072670	0.173739	-0.070008	-0.033402	0.999985	-0.004797	0.002597	-0.000363	
33665	    0	16.349011	6.258300	-4.451970	-0.595098	0.639539	-1.131449	0.163696	0.061523	-0.045227	0.999974	-0.002975	0.003198	-0.005657	
33666	    0	9.089079	17.255064	-11.064563	-1.234853	0.736639	-2.198664	0.092364	0.170852	-0.112042	0.999913	-0.006174	0.003683	-0.010993	
33667	    0	14.527869	23.438007	-19.929637	-3.581568	1.004312	-2.881125	0.147583	0.228638	-0.204163	0.999722	-0.017906	0.005021	-0.014404	
33668	    0	15.240633	-2.082089	-8.468736	-5.529221	1.657584	-2.902536	0.151355	-0.025375	-0.085285	0.999477	-0.027641	0.008286	-0.014510	
33669	    0	13.199759	-10.722412	-4.421670	-4.618003	1.863569	-3.352096	0.129761	-0.110413	-0.042908	0.999549	-0.023087	0.009316	-0.016758	
33670	    0	14.374974	-8.175169	-6.478163	-3.898236	2.218761	-3.861609	0.141401	-0.085759	-0.064713	0.999561	-0.019488	0.011092	-0.019305	
33671	    0	14.801685	-6.333544	-9.146247	-2.762765	2.290636	-4.210437	0.145569	-0.067688	-0.092224	0.999617	-0.013812	0.011452	-0.021049	
33672	    0	19.222488	-8.369617	-9.929761	-1.606756	2.150226	-4.705432	0.189095	-0.088975	-0.100641	0.999633	-0.008033	0.010750	-0.023524	
33673	    0	23.210974	-10.263446	-7.485604	-0.820084	2.112112	-5.331403	0.228455	-0.109070	-0.076843	0.999580	-0.004100	0.010559	-0.026653	
33674	    0	22.547750	-11.717734	-5.919779	0.015070	1.926140	-5.691431	0.221438	-0.123513	-0.061353	0.999548	0.000075	0.009629	-0.028453	
33675	    0	21.964773	-12.641770	-6.658188	0.377904	1.750451	-5.793887	0.215271	-0.132568	-0.068726	0.999540	0.001889	0.008751	-0.028965	
33676	    0	22.149880	-13.393080	-7.234047	0.322772	1.691119	-5.759153	0.216900	-0.140102	-0.074410	0.999548	0.001614	0.008454	-0.028791	
33677	    0	21.927312	-14.540519	-7.948299	0.499036	1.618624	-5.706867	0.214355	-0.151367	-0.081604	0.999557	0.002495	0.008092	-0.028530	
33678	    0	21.068984	-14.546270	-7.595393	0.826192	1.495768	-5.631878	0.205911	-0.150987	-0.078122	0.999567	0.004130	0.007478	-0.028155	
33679	    0	21.079634	-12.687119	-6.749721	0.912029	1.429945	-5.483999	0.206726	-0.132263	-0.069580	0.999588	0.004560	0.007149	-0.027416	
33680	    0	21.528892	-11.493109	-5.212247	0.888170	1.369072	-5.175272	0.211858	-0.120206	-0.054107	0.999632	0.004440	0.006845	-0.025873	
33681	    0	21.496507	-9.377619	-5.149226	0.886055	1.277292	-4.716976	0.212341	-0.098572	-0.053284	0.999691	0.004430	0.006386	-0.023582	
33682	    0	21.041312	-8.131845	-4.604346	0.748310	1.185127	-4.057433	0.208429	-0.085384	-0.047597	0.999769	0.003741	0.005925	-0.020286	
33683	    0	18.968635	-7.787141	-3.943945	0.728072	1.039177	-3.270889	0.188171	-0.080811	-0.040710	0.999846	0.003640	0.005196	-0.016354	
33684	    0	15.143298	-7.011646	-2.952656	0.843836	0.898197	-2.361749	0.150456	-0.071770	-0.030504	0.999910	0.004219	0.004491	-0.011808	
33685	    0	10.839263	-5.316641	-2.005011	0.929272	0.724992	-1.296251	0.107971	-0.053772	-0.020691	0.999961	0.004646	0.003625	-0.006481	
33686	    0	6.265498	-3.417777	-2.215819	0.883488	0.558474	-0.178719	0.062562	-0.034135	-0.022484	0.999986	0.004417	0.002792	-0.000894	
33687	    0	3.538629	-2.696849	-2.622887	0.545505	0.367930	0.921636	0.035461	-0.026733	-0.026367	0.999984	0.002728	0.001840	0.004608	
33688	    0	-0.198670	-1.879073	-3.581689	0.420960	0.114443	2.102320	-0.001810	-0.018735	-0.035855	0.999942	0.002105	0.000572	0.010511	
33689	    0	-2.534015	-0.168449	-4.691083	0.441001	-0.166138	3.425006	-0.025269	-0.002014	-0.046936	0.999850	0.002205	-0.000831	0.017124	
33690	    0	-3.387204	-0.805565	-5.148586	0.719713	-0.505687	4.747280	-0.033541	-0.008669	-0.051601	0.999708	0.003598	-0.002528	0.023734	
33691	    0	-2.318464	-3.156160	-5.367735	1.523822	-0.865877	5.784725	-0.022034	-0.031799	-0.054016	0.999543	0.007618	-0.004329	0.028919	
33692	    0	0.624026	-2.074744	-5.167346	2.029645	-1.190049	6.617380	0.007218	-0.019994	-0.051838	0.999383	0.010146	-0.005949	0.033080	
33693	    0	3.369311	-1.244591	-4.450105	2.015618	-1.418660	7.348183	0.034424	-0.010742	-0.044373	0.999249	0.010076	-0.007092	0.036732	
33694	    0	5.547193	-1.073773	-3.730817	1.770143	-1.594235	7.921188	0.056126	-0.008195	-0.036942	0.999145	0.008848	-0.007969	0.039595	
33695	    0	7.932914	-1.493700	-3.277477	1.498311	-1.760654	8.366732	0.080139	-0.011353	-0.032166	0.999058	0.007489	-0.008801	0.041821	
33696	    0	10.083033	-1.913124	-2.755249	1.296486	-1.926316	8.744552	0.101792	-0.014519	-0.026679	0.998977	0.006480	-0.009628	0.043708	
33697	    0	12.156530	-2.361144	-2.136925	1.196155	-2.101143	9.063228	0.122681	-0.017944	-0.020203	0.998899	0.005979	-0.010502	0.045300	
33698	    0	14.354717	-2.926875	-1.119747	1.004413	-2.234361	9.270595	0.144810	-0.022523	-0.009708	0.998851	0.005020	-0.011168	0.046335	
33699	    0	16.400191	-3.192051	-0.334430	0.851775	-2.343718	9.389373	0.165283	-0.024170	-0.001526	0.998820	0.004257	-0.011714	0.046928	
33700	    0	17.670802	-1.988940	0.046675	0.818585	-2.447551	9.536616	0.177365	-0.011448	0.002577	0.998779	0.004091	-0.012233	0.047664	
33701	    0	19.381733	-0.100171	0.473582	0.635225	-2.466865	9.754497	0.193481	0.008423	0.007141	0.998730	0.003175	-0.012329	0.048752	
33702	    0	22.120433	1.181676	0.757078	0.409306	-2.463277	9.952333	0.220137	0.022773	0.010326	0.998684	0.002046	-0.012311	0.049740	
33703	    0	25.780969	1.733695	0.677217	0.383165	-2.433896	9.987466	0.256409	0.030151	0.009949	0.998677	0.001915	-0.012164	0.049915	
33704	    0	29.526830	5.112000	-0.172118	0.482004	-2.319383	9.896542	0.292252	0.065634	0.001827	0.998705	0.002409	-0.011592	0.049461	
33705	    0	32.339377	10.839052	-1.460286	0.512144	-2.148373	9.721585	0.317749	0.123962	-0.010864	0.998757	0.002560	-0.010737	0.048588	
33706	    0	34.555752	17.640823	-1.717402	0.589221	-2.179814	9.457499	0.336862	0.192521	-0.012918	0.998818	0.002945	-0.010895	0.047269	
33707	    0	36.534180	24.407301	0.288601	0.689366	-2.228561	8.850135	0.354004	0.259888	0.007751	0.998953	0.003446	-0.011139	0.044235	
33708	    0	35.664168	28.248471	5.747950	1.164939	-2.054573	7.656620	0.344867	0.295485	0.062759	0.999197	0.005823	-0.010270	0.038273	
33709	    0	31.136560	33.147058	8.499733	1.866474	-1.599971	5.968749	0.300598	0.339722	0.090576	0.999478	0.009331	-0.007998	0.029839	
33710	    0	21.637276	41.533509	6.264335	2.723038	-1.097799	4.197580	0.207237	0.418834	0.069485	0.999672	0.013614	-0.005488	0.020986	
33711	    0	11.564349	51.413232	2.146228	2.843828	-0.704233	2.256904	0.109741	0.515015	0.029175	0.999828	0.014218	-0.003521	0.011284	
33712	    0	8.089018	54.182025	2.224828	2.029456	-0.358397	0.404747	0.079747	0.541718	0.027889	0.999945	0.010147	-0.001792	0.002024	
33713	    0	13.263612	46.507220	5.965493	1.576452	0.029755	-1.334405	0.135742	0.463684	0.063293	0.999947	0.007882	0.000149	-0.006672	
33714	    0	16.112766	39.178483	1.442672	1.491994	0.254833	-2.872593	0.166752	0.389296	0.017127	0.999867	0.007460	0.001274	-0.014362	
33715	    0	19.376932	51.741674	-12.297944	2.186097	-0.041013	-5.046718	0.206787	0.513611	-0.117310	0.999621	0.010929	-0.000205	-0.025230	
33716	    0	35.354293	62.541866	-12.693011	-0.646903	0.159103	-6.679454	0.374048	0.612738	-0.129218	0.999436	-0.003234	0.000795	-0.033391	
33717	    0	44.819399	0.432025	1.446676	-4.429154	0.928758	-6.851595	0.448059	-0.010742	0.012512	0.999157	-0.022140	0.004642	-0.034248	
33718	    0	38.863759	-23.251011	2.851805	-1.349263	0.906632	-8.128968	0.378899	-0.247853	0.028423	0.999141	-0.006744	0.004532	-0.040633	
33719	    0	15.534456	5.455858	-14.574535	3.388136	0.033582	-8.807589	0.157593	0.050110	-0.144897	0.998886	0.016934	0.000168	-0.044022	
33720	    0	16.709755	45.945649	1.168481	0.179537	0.589933	-8.565292	0.186592	0.451732	0.011561	0.999078	0.000897	0.002949	-0.042813	
33721	    0	-3.584108	11.879697	14.357694	-1.137793	0.310012	-7.171683	-0.031311	0.120789	0.142944	0.999339	-0.005688	0.001550	-0.035851	
33722	    0	-1.766944	15.333296	5.729963	0.320105	0.479585	-6.199694	-0.012771	0.153687	0.057580	0.999515	0.001600	0.002398	-0.030993	
33723	    0	4.541411	13.002503	1.071526	0.341075	0.042921	-5.377085	0.048889	0.128723	0.010925	0.999637	0.001705	0.000215	-0.026882	
33724	    0	9.543022	9.830295	-1.507221	0.432630	0.126088	-4.857163	0.097771	0.095980	-0.014924	0.999702	0.002163	0.000630	-0.024283	
33725	    0	14.091393	11.557095	-1.021763	-0.003815	0.219171	-4.240736	0.143311	0.112549	-0.010376	0.999774	-0.000019	0.001096	-0.021202	
33726	    0	17.372608	11.331107	-4.084391	-0.501472	0.405335	-3.706578	0.175701	0.109963	-0.041477	0.999823	-0.002507	0.002027	-0.018532	
33727	    0	17.598105	10.162450	-2.343702	-0.800168	0.446339	-3.134295	0.177490	0.098755	-0.024231	0.999866	-0.004001	0.002232	-0.015671	
33728	    0	20.174262	8.149684	-0.524063	-0.707843	0.345243	-2.849873	0.202867	0.078591	-0.005872	0.999890	-0.003539	0.001726	-0.014249	
33729	    0	24.267864	11.567333	0.805649	-0.798820	0.378619	-2.439186	0.244080	0.112732	0.007141	0.999915	-0.003994	0.001893	-0.012196	
33730	    0	24.935129	7.151217	5.044519	-0.923940	0.291449	-2.077720	0.250151	0.069147	0.049758	0.999934	-0.004620	0.001457	-0.010388	
33731	    0	26.491587	5.717198	5.585455	-1.087209	0.329024	-1.777682	0.265503	0.055115	0.055115	0.999944	-0.005436	0.001645	-0.008888	
33732	    0	27.785591	5.636742	5.089278	-1.623377	0.223927	-1.483375	0.278322	0.054713	0.050133	0.999938	-0.008117	0.001120	-0.007417	
33733	    0	26.538577	1.693010	3.648992	-2.257598	0.131420	-1.153595	0.265503	0.015808	0.036133	0.999919	-0.011288	0.000657	-0.005768	
33734	    0	26.260433	-1.469467	2.551859	-3.259429	-0.019837	-0.745808	0.262546	-0.015255	0.025790	0.999860	-0.016296	-0.000099	-0.003729	
33735	    0	25.272593	-4.490997	1.032453	-4.185795	-0.066190	-0.433382	0.252625	-0.045227	0.011353	0.999778	-0.020927	-0.000331	-0.002167	
33736	    0	24.436619	-9.343247	-1.429788	-4.348145	0.091941	-0.258657	0.244239	-0.094031	-0.012370	0.999763	-0.021739	0.000460	-0.001293	
33737	    0	22.734635	-13.756271	-4.030941	-3.946753	0.333426	0.019075	0.227295	-0.138306	-0.037964	0.999804	-0.019732	0.001667	0.000095	
33738	    0	19.355596	-15.788084	-6.628090	-2.909577	0.535985	0.346769	0.193656	-0.158492	-0.064497	0.999888	-0.014547	0.002680	0.001734	
33739	    0	15.914307	-10.788152	-7.006850	-0.898556	0.611118	-0.100709	0.158875	-0.108276	-0.070068	0.999985	-0.004493	0.003056	-0.000504	
33740	    0	8.927660	9.479904	-3.051910	-0.092317	0.605590	-1.476304	0.089880	0.094123	-0.030834	0.999968	-0.000462	0.003028	-0.007381	
33741	    0	5.917904	21.916027	-9.525019	-1.401391	1.078844	-2.738311	0.061646	0.217651	-0.097107	0.999866	-0.007007	0.005394	-0.013691	
33742	    0	15.781396	15.987455	-15.828536	-2.421004	1.640835	-3.317913	0.159100	0.155300	-0.161486	0.999755	-0.012104	0.008204	-0.016588	
33743	    0	11.929378	-2.608716	-12.810580	-2.387998	1.823569	-3.142032	0.117676	-0.029480	-0.128845	0.999763	-0.011939	0.009117	-0.015709	
33744	    0	11.046056	-9.187133	-7.320425	-1.941252	1.873536	-3.237392	0.108260	-0.094347	-0.073318	0.999778	-0.009706	0.009367	-0.016186	
33745	    0	12.612938	-10.303204	-6.358233	-1.052754	1.797636	-3.966091	0.123474	-0.105835	-0.064148	0.999748	-0.005263	0.008987	-0.019829	
33746	    0	14.551497	-7.757017	-8.144746	-0.646273	1.691602	-4.497969	0.143023	-0.081071	-0.082406	0.999705	-0.003231	0.008457	-0.022488	
33747	    0	18.514950	-5.829359	-8.404455	-0.820819	1.537486	-4.730726	0.183044	-0.062988	-0.085205	0.999681	-0.004104	0.007687	-0.023651	
33748	    0	21.911574	-8.153367	-7.869368	-1.087502	1.287605	-4.916363	0.216506	-0.087309	-0.079629	0.999661	-0.005437	0.006437	-0.024579	
33749	    0	22.435271	-10.702444	-7.192090	-1.396926	1.119372	-5.177955	0.221069	-0.113281	-0.072388	0.999624	-0.006984	0.005596	-0.025887	
33750	    0	21.871871	-11.553824	-6.820716	-1.795449	1.109088	-5.410573	0.215097	-0.122004	-0.068331	0.999578	-0.008976	0.005545	-0.027049	
33751	    0	22.961231	-13.440438	-6.815201	-1.893136	1.182161	-5.562661	0.225342	-0.141357	-0.068176	0.999551	-0.009464	0.005910	-0.027809	
33752	    0	23.200639	-14.935835	-6.404312	-1.623584	1.265522	-5.588213	0.227298	-0.156275	-0.064241	0.999557	-0.008117	0.006327	-0.027937	
33753	    0	22.440182	-13.874951	-5.987650	-1.166504	1.358219	-5.452714	0.220093	-0.145142	-0.060547	0.999588	-0.005832	0.006790	-0.027260	
33754	    0	22.344571	-11.688017	-4.845316	-0.789738	1.407793	-5.138828	0.219995	-0.122757	-0.049533	0.999637	-0.003948	0.007038	-0.025691	
33755	    0	22.249857	-10.262996	-3.975563	-0.481463	1.373620	-4.697129	0.219727	-0.107910	-0.041016	0.999698	-0.002407	0.006867	-0.023483	
33756	    0	20.966093	-9.559951	-3.203286	-0.107964	1.304537	-4.111037	0.207422	-0.099896	-0.033338	0.999767	-0.000540	0.006522	-0.020554	
33757	    0	18.205145	-8.435726	-2.665896	0.273147	1.166026	-3.406710	0.180420	-0.087402	-0.027832	0.999837	0.001366	0.005830	-0.017033	
33758	    0	14.552077	-7.003664	-1.634606	0.730730	0.949319	-2.565279	0.144526	-0.071833	-0.017294	0.999899	0.003654	0.004746	-0.012826	
33759	    0	10.457181	-4.920991	-1.149159	1.143667	0.709738	-1.622802	0.104126	-0.049988	-0.012146	0.999944	0.005718	0.003549	-0.008114	
33760	    0	6.686623	-3.344154	-1.656915	1.287282	0.533681	-0.638777	0.066714	-0.033546	-0.016963	0.999970	0.006436	0.002668	-0.003194	
33761	    0	4.281955	-3.726255	-2.221916	1.230058	0.347903	0.356295	0.042847	-0.037048	-0.022522	0.999977	0.006150	0.001740	0.001781	
33762	    0	-0.114067	-3.312256	-3.560001	1.565202	0.124743	1.554521	-0.000907	-0.032850	-0.035857	0.999938	0.007826	0.000624	0.007772	
33763	    0	-2.111164	-0.714094	-4.869958	1.746642	-0.055697	2.888626	-0.020996	-0.007019	-0.048767	0.999857	0.008733	-0.000278	0.014442	
33764	    0	-2.907053	-0.889112	-6.018385	1.989543	-0.309590	4.177849	-0.028791	-0.008895	-0.060317	0.999731	0.009947	-0.001548	0.020887	
33765	    0	-2.487263	-1.845151	-7.353988	2.614209	-0.608723	5.244441	-0.024170	-0.018127	-0.073853	0.999566	0.013069	-0.003043	0.026218	
33766	    0	-0.597016	0.377945	-8.083718	2.763910	-0.880224	6.229482	-0.005752	0.004715	-0.080802	0.999410	0.013817	-0.004400	0.031141	
33767	    0	1.138025	1.219901	-7.657124	2.316265	-1.143920	7.119163	0.011353	0.013489	-0.076355	0.999283	0.011579	-0.005718	0.035587	
33768	    0	3.272134	1.120605	-6.818163	1.574948	-1.376339	7.837537	0.032702	0.013023	-0.067859	0.999177	0.007873	-0.006880	0.039177	
33769	    0	6.046271	0.469209	-5.995946	0.717573	-1.609531	8.381926	0.060669	0.007446	-0.059448	0.999083	0.003587	-0.008045	0.041897	
33770	    0	8.674208	-0.875444	-5.094577	0.009540	-1.903411	8.776180	0.087494	-0.004923	-0.050116	0.998992	0.000048	-0.009514	0.043866	
33771	    0	10.928153	-1.956636	-3.604982	-0.333525	-2.239848	9.043344	0.110413	-0.014648	-0.034790	0.998914	-0.001667	-0.011195	0.045200	
33772	    0	13.151314	-2.833187	-2.127671	-0.282777	-2.579152	9.233771	0.132894	-0.022244	-0.019534	0.998850	-0.001413	-0.012891	0.046151	
33773	    0	15.501020	-2.565681	-1.200476	-0.150358	-2.854325	9.284045	0.156128	-0.018433	-0.009766	0.998820	-0.000751	-0.014266	0.046402	
33774	    0	17.067446	-1.613995	-0.264826	-0.059152	-3.083517	9.333744	0.171193	-0.008157	-0.000008	0.998792	-0.000296	-0.015411	0.046650	
33775	    0	18.493136	-1.230098	0.514964	0.148835	-3.277989	9.405591	0.185120	-0.003601	0.008179	0.998759	0.000744	-0.016383	0.047009	
33776	    0	21.201233	-0.122019	0.734411	0.663278	-3.387183	9.524985	0.211586	0.008834	0.010949	0.998716	0.003315	-0.016929	0.047605	
33777	    0	24.973423	1.731472	1.100493	1.155785	-3.350765	9.596622	0.248291	0.029175	0.015320	0.998692	0.005776	-0.016747	0.047962	
33778	    0	28.668735	4.500478	0.265142	1.686829	-3.229782	9.540125	0.284012	0.058548	0.007710	0.998696	0.008430	-0.016142	0.047680	
33779	    0	31.078835	10.764730	-0.076332	1.883736	-2.917005	9.489663	0.305176	0.122192	0.004822	0.998723	0.009415	-0.014579	0.047428	
33780	    0	32.692782	16.502660	0.232975	1.737354	-2.539341	9.433802	0.318589	0.180137	0.007933	0.998769	0.008683	-0.012691	0.047150	
33781	    0	35.968250	21.227740	0.382385	1.779082	-2.242933	9.067136	0.349487	0.228210	0.009766	0.998870	0.008892	-0.011210	0.045319	
33782	    0	37.595533	25.586786	2.794530	2.209789	-2.065166	8.161260	0.364778	0.270550	0.034687	0.999053	0.011045	-0.010323	0.040793	
33783	    0	33.225365	29.078708	2.207839	2.722203	-1.794834	6.549007	0.322266	0.301086	0.029053	0.999331	0.013608	-0.008972	0.032738	
33784	    0	22.753824	40.822542	-0.246816	3.024701	-1.548786	4.573296	0.218104	0.413242	0.005470	0.999594	0.015121	-0.007743	0.022863	
33785	    0	11.209152	51.378495	1.584479	2.626981	-1.326652	2.804759	0.104736	0.515015	0.023315	0.999793	0.013134	-0.006633	0.014023	
33786	    0	8.986541	54.219780	5.299263	1.664575	-0.860421	1.009960	0.086885	0.542173	0.057883	0.999943	0.008323	-0.004302	0.005050	
33787	    0	11.250412	45.519045	7.859727	1.280224	-0.278285	-0.686652	0.113953	0.454285	0.081665	0.999972	0.006401	-0.001391	-0.003433	
33788	    0	12.555180	37.675825	5.872510	1.986970	0.154502	-2.508080	0.130305	0.374537	0.062354	0.999871	0.009934	0.000772	-0.012540	
33789	    0	15.734018	33.568144	-3.566463	2.269182	0.054364	-3.996629	0.164001	0.332825	-0.031921	0.999736	0.011345	0.000272	-0.019981	
33790	    0	22.478227	42.073635	-10.569999	2.977164	-0.378870	-5.981417	0.237450	0.415268	-0.099049	0.999440	0.014883	-0.001894	-0.029902	
33791	    0	37.904149	38.226326	-4.358399	0.434960	-0.024228	-6.819717	0.391785	0.369141	-0.042725	0.999415	0.002174	-0.000121	-0.034092	
33792	    0	40.360458	-7.706530	6.015166	-1.810657	0.621549	-6.957037	0.400798	-0.090500	0.059682	0.999349	-0.009051	0.003107	-0.034778	
33793	    0	32.658196	-7.679804	-0.503107	1.121279	0.364793	-8.329940	0.322998	-0.090271	-0.006104	0.999115	0.005605	0.001823	-0.041637	
33794	    0	14.762308	28.796794	-13.144719	3.192317	-0.272657	-8.652704	0.160124	0.283267	-0.126687	0.998936	0.015956	-0.001363	-0.043248	
33795	    0	23.434684	45.215748	7.096971	-1.143772	0.593731	-8.052005	0.252502	0.442627	0.067688	0.999168	-0.005717	0.002968	-0.040249	
33796	    0	-2.361588	1.799196	11.809419	-0.762518	0.045404	-6.849118	-0.022944	0.019236	0.118028	0.999406	-0.003812	0.000227	-0.034239	
33797	    0	5.046812	14.178717	2.436851	0.438761	0.299311	-6.207516	0.054871	0.140076	0.024597	0.999515	0.002193	0.001496	-0.031033	
33798	    0	3.892613	9.470463	-0.422339	0.262865	-0.211360	-5.388914	0.041463	0.093616	-0.004057	0.999635	0.001314	-0.001057	-0.026941	
33799	    0	9.954704	9.027155	0.525232	0.155846	-0.098429	-4.828351	0.101685	0.087830	0.005371	0.999708	0.000779	-0.000492	-0.024139	
33800	    0	13.218914	9.375434	-0.040999	0.034335	-0.184836	-4.231579	0.134133	0.090930	-0.000271	0.999775	0.000172	-0.000924	-0.021156	
33801	    0	15.509433	15.246926	-3.393387	-0.421167	-0.012780	-3.723362	0.157898	0.149475	-0.034241	0.999824	-0.002106	-0.000064	-0.018616	
33802	    0	16.001701	10.343339	-2.185637	-0.747333	-0.053790	-3.185033	0.161642	0.100785	-0.022193	0.999866	-0.003736	-0.000269	-0.015924	
33803	    0	19.362177	8.202948	-1.684948	-0.723102	-0.113682	-2.823739	0.194763	0.079224	-0.017029	0.999893	-0.003615	-0.000568	-0.014118	
33804	    0	24.322448	9.735516	2.396705	-0.860618	-0.064661	-2.345718	0.244337	0.094596	0.023635	0.999922	-0.004303	-0.000323	-0.011728	
33805	    0	24.327888	6.293088	4.005423	-1.048875	-0.101473	-2.078294	0.243896	0.060608	0.039856	0.999931	-0.005244	-0.000507	-0.010391	
33806	    0	24.834101	5.848372	4.512028	-1.251819	-0.036813	-1.843300	0.248859	0.056473	0.044808	0.999937	-0.006259	-0.000184	-0.009216	
33807	    0	25.113158	5.180412	3.085216	-1.688995	-0.074007	-1.602209	0.251526	0.050049	0.030518	0.999931	-0.008445	-0.000370	-0.008011	
33808	    0	23.875244	3.155858	1.864681	-2.350687	-0.121883	-1.272430	0.238936	0.030256	0.018432	0.999910	-0.011753	-0.000609	-0.006362	
33809	    0	24.239281	-0.179057	1.173685	-3.366259	-0.204287	-0.853772	0.242371	-0.002625	0.012024	0.999848	-0.016830	-0.001021	-0.004269	
33810	    0	23.659008	-1.996423	0.535454	-4.169010	-0.184264	-0.591322	0.236525	-0.020543	0.005997	0.999778	-0.020844	-0.000921	-0.002956	
33811	    0	23.385338	-7.295206	-1.490844	-4.353679	-0.002861	-0.408205	0.233704	-0.073730	-0.013306	0.999761	-0.021767	-0.000014	-0.002041	
33812	    0	21.273881	-10.627731	-4.408085	-3.973651	0.184453	-0.186170	0.212600	-0.107326	-0.042151	0.999802	-0.019867	0.000922	-0.000931	
33813	    0	17.940040	-14.102080	-6.342988	-3.220318	0.348679	0.127416	0.179382	-0.141907	-0.061462	0.999868	-0.016101	0.001743	0.000637	
33814	    0	14.287451	-13.506684	-7.312733	-1.412214	0.389484	-0.123025	0.142650	-0.135668	-0.072449	0.999972	-0.007061	0.001947	-0.000615	
33815	    0	11.436746	1.172064	-3.123646	-0.036431	0.340273	-1.167305	0.114380	0.011047	-0.031433	0.999981	-0.000182	0.001701	-0.005836	
33816	    0	6.403651	12.152207	-5.224822	-0.887701	0.527013	-2.127315	0.065184	0.120599	-0.052956	0.999929	-0.004438	0.002635	-0.010636	
33817	    0	10.661525	17.306643	-13.549576	-2.403403	0.948581	-2.775740	0.108337	0.169922	-0.138062	0.999820	-0.012016	0.004743	-0.013878	
33818	    0	15.537641	5.367985	-14.353276	-2.824061	1.391143	-3.124875	0.155162	0.049211	-0.145329	0.999754	-0.014119	0.006955	-0.015623	
33819	    0	13.206147	-3.922301	-12.668520	-2.438342	1.462662	-3.074871	0.130493	-0.042786	-0.127136	0.999781	-0.012191	0.007313	-0.015373	
33820	    0	12.608634	-9.309878	-7.873364	-2.058756	1.507300	-3.401250	0.123877	-0.096028	-0.078694	0.999774	-0.010293	0.007536	-0.017005	
33821	    0	14.523664	-10.748121	-7.138870	-1.503119	1.436928	-4.018745	0.142517	-0.110901	-0.071594	0.999743	-0.007515	0.007184	-0.020092	
33822	    0	17.240662	-9.443036	-7.525209	-1.546820	1.312956	-4.397059	0.169771	-0.098766	-0.075620	0.999706	-0.007733	0.006564	-0.021983	
33823	    0	19.734409	-8.459257	-7.305827	-1.982136	1.141479	-4.498768	0.194946	-0.089722	-0.073303	0.999681	-0.009910	0.005707	-0.022491	
33824	    0	20.321492	-10.027954	-6.629442	-2.458676	1.080833	-4.641135	0.200445	-0.105766	-0.066105	0.999640	-0.012292	0.005404	-0.023203	
33825	    0	20.042249	-11.335992	-5.696751	-2.675983	1.188245	-4.817838	0.197266	-0.118896	-0.056580	0.999602	-0.013378	0.005940	-0.024086	
33826	    0	20.897174	-13.269674	-5.041450	-2.281112	1.326929	-5.009176	0.205218	-0.138442	-0.050227	0.999599	-0.011404	0.006634	-0.025043	
33827	    0	21.663596	-15.030312	-4.171542	-1.508331	1.460451	-5.094791	0.212402	-0.156067	-0.042114	0.999620	-0.007541	0.007301	-0.025471	
33828	    0	21.291412	-14.175331	-3.457197	-0.770087	1.593968	-5.012721	0.208989	-0.147161	-0.035688	0.999646	-0.003850	0.007969	-0.025061	
33829	    0	21.536741	-12.719334	-2.416556	-0.199148	1.729191	-4.675015	0.212097	-0.132202	-0.025879	0.999688	-0.000996	0.008645	-0.023373	
33830	    0	21.836854	-10.688439	-2.327935	0.351365	1.742327	-4.257007	0.215814	-0.111453	-0.025360	0.999734	0.001757	0.008711	-0.021283	
33831	    0	21.449787	-8.886176	-2.465842	0.844825	1.641200	-3.715019	0.212585	-0.092712	-0.026794	0.999784	0.004224	0.008205	-0.018574	
33832	    0	20.429186	-7.056789	-2.810936	1.196544	1.473315	-3.036661	0.202974	-0.073481	-0.030042	0.999839	0.005982	0.007366	-0.015182	
33833	    0	17.439645	-5.314767	-3.129828	1.393940	1.264427	-2.240833	0.173584	-0.054871	-0.032776	0.999892	0.006969	0.006322	-0.011204	
33834	    0	13.857435	-3.958209	-3.148085	1.397924	1.029417	-1.358250	0.138137	-0.040297	-0.032473	0.999939	0.006989	0.005147	-0.006791	
33835	    0	10.788317	-2.751459	-3.735321	1.193249	0.828751	-0.440983	0.107666	-0.027527	-0.037964	0.999970	0.005966	0.004144	-0.002205	
33836	    0	6.352152	-0.884121	-4.027878	0.988204	0.610737	0.607686	0.063424	-0.008449	-0.040515	0.999978	0.004941	0.003054	0.003038	
33837	    0	1.547547	0.498296	-5.053002	0.971431	0.423439	1.856267	0.015320	0.005371	-0.050537	0.999943	0.004857	0.002117	0.009281	
33838	    0	0.238756	1.487871	-5.563172	0.935977	0.163467	3.098433	0.002109	0.015173	-0.055563	0.999868	0.004680	0.000817	0.015491	
33839	    0	-0.000618	1.354571	-6.214188	1.007351	-0.177016	4.259832	-0.000244	0.013855	-0.062073	0.999760	0.005036	-0.000885	0.021297	
33840	    0	0.244736	0.414268	-5.977776	1.124517	-0.503219	5.229434	0.002482	0.004543	-0.059747	0.999639	0.005622	-0.002516	0.026144	
33841	    0	1.184277	0.936854	-5.547017	1.246273	-0.847000	6.050327	0.011780	0.010071	-0.055359	0.999514	0.006230	-0.004234	0.030247	
33842	    0	2.703356	1.796471	-4.969108	1.153417	-1.169823	6.774939	0.026688	0.019158	-0.049426	0.999393	0.005766	-0.005848	0.033868	
33843	    0	4.346968	1.414180	-4.292363	0.934822	-1.433712	7.338162	0.043213	0.015930	-0.042542	0.999290	0.004673	-0.007167	0.036682	
33844	    0	6.400536	0.462298	-3.605365	0.807403	-1.667653	7.737675	0.064056	0.007245	-0.035494	0.999208	0.004036	-0.008336	0.038678	
33845	    0	8.135100	-0.571036	-3.176841	1.018248	-1.910192	8.065087	0.081787	-0.002258	-0.031006	0.999128	0.005090	-0.009548	0.040314	
33846	    0	10.154324	-0.834241	-2.862371	1.372010	-2.092072	8.365427	0.102060	-0.003888	-0.027595	0.999046	0.006858	-0.010457	0.041814	
33847	    0	12.121453	-0.268119	-2.649829	1.463042	-2.216123	8.532502	0.121460	0.002686	-0.025146	0.999002	0.007313	-0.011077	0.042648	
33848	    0	13.797307	0.249808	-2.842461	1.423370	-2.293991	8.656988	0.138000	0.008667	-0.026794	0.998972	0.007114	-0.011466	0.043270	
33849	    0	14.800483	0.611591	-3.149464	1.362516	-2.295727	8.779172	0.147888	0.012817	-0.029724	0.998947	0.006810	-0.011475	0.043880	
33850	    0	15.926405	1.103909	-2.553140	1.453926	-2.323992	8.907108	0.158838	0.018297	-0.023568	0.998914	0.007267	-0.011616	0.044519	
33851	    0	17.985850	3.535349	-2.430384	1.627380	-2.303403	8.991516	0.178284	0.043579	-0.021912	0.998890	0.008134	-0.011513	0.044941	
33852	    0	20.201350	5.910925	-2.701538	1.553732	-2.230139	9.052212	0.199339	0.068370	-0.024275	0.998883	0.007766	-0.011147	0.045244	
33853	    0	21.966661	8.234110	-4.170968	1.464050	-2.172893	9.052574	0.216064	0.092468	-0.038696	0.998890	0.007318	-0.010860	0.045246	
33854	    0	23.246649	13.692292	-5.670048	1.192712	-2.116964	8.961654	0.226591	0.147491	-0.053422	0.998922	0.005961	-0.010581	0.044792	
33855	    0	25.172942	18.850400	-5.265938	0.418999	-2.132965	8.860036	0.243591	0.199524	-0.049622	0.998960	0.002094	-0.010661	0.044285	
33856	    0	27.903984	21.990925	-4.050150	-0.162368	-2.244530	8.515058	0.269779	0.231498	-0.037623	0.999030	-0.000812	-0.011219	0.042562	
33857	    0	30.605618	23.461258	1.475486	-0.368599	-2.263299	7.721509	0.296509	0.246216	0.017700	0.999188	-0.001842	-0.011313	0.038597	
33858	    0	29.716369	24.239259	7.163175	0.324312	-2.042021	6.490055	0.288341	0.251726	0.075009	0.999419	0.001621	-0.010208	0.032444	
33859	    0	24.542834	30.149014	7.972820	1.471891	-1.676193	4.952086	0.237183	0.306824	0.083984	0.999631	0.007359	-0.008380	0.024757	
33860	    0	15.167993	39.057030	5.916701	2.426147	-1.372636	3.318665	0.144748	0.392246	0.064928	0.999764	0.012130	-0.006863	0.016592	
33861	    0	8.659079	44.547246	5.204681	2.550043	-1.047560	1.613686	0.082703	0.445435	0.058167	0.999872	0.012750	-0.005238	0.008068	
33862	    0	9.064755	43.753389	8.082203	2.288491	-0.657669	-0.013542	0.090400	0.436563	0.086119	0.999928	0.011442	-0.003288	-0.000068	
33863	    0	11.036840	38.821266	9.927703	2.145640	-0.156407	-1.578569	0.113342	0.386230	0.103516	0.999910	0.010728	-0.000782	-0.007893	
33864	    0	10.862325	33.934134	7.707316	2.082936	0.237096	-2.901041	0.113616	0.336891	0.080458	0.999840	0.010414	0.001185	-0.014504	
33865	    0	15.222113	27.144861	-2.089289	1.712926	0.040630	-3.852367	0.157410	0.268616	-0.018616	0.999778	0.008564	0.000203	-0.019260	
33866	    0	20.360764	34.852244	-13.773742	1.546876	-0.448096	-5.437626	0.213304	0.343860	-0.134595	0.999598	0.007733	-0.002240	-0.027184	
33867	    0	28.974700	44.349075	-9.379383	-1.483221	-0.318201	-6.267871	0.303589	0.433411	-0.096558	0.999479	-0.007415	-0.001591	-0.031334	
33868	    0	36.571709	-0.156746	-7.397265	-3.805188	0.413027	-5.934804	0.365274	-0.013827	-0.074542	0.999376	-0.019022	0.002065	-0.029668	
33869	    0	28.223807	-12.033908	-11.536717	-0.291318	-0.180858	-7.371668	0.277649	-0.130798	-0.114929	0.999319	-0.001456	-0.000904	-0.036850	
33870	    0	22.196754	41.269059	-10.727309	2.975853	-0.449707	-8.274653	0.239053	0.404565	-0.100687	0.999031	0.014874	-0.002248	-0.041360	
33871	    0	38.088124	36.752148	24.592468	-3.092214	0.714483	-7.122318	0.394592	0.357361	0.238953	0.999240	-0.015457	0.003572	-0.035603	
33872	    0	2.206979	-8.330435	14.204424	-0.322970	0.063335	-6.461507	0.019414	-0.083731	0.142173	0.999476	-0.001615	0.000317	-0.032302	
33873	    0	5.829301	17.079688	0.362459	0.656990	0.299308	-5.962505	0.063354	0.168945	0.004089	0.999549	0.003284	0.001496	-0.029808	
33874	    0	5.649983	11.166701	-1.231562	0.123992	-0.009538	-5.185899	0.059370	0.110160	-0.012244	0.999663	0.000620	-0.000048	-0.025927	
33875	    0	10.832650	9.327319	0.547705	-0.060850	-0.080116	-4.694798	0.110474	0.090698	0.005493	0.999723	-0.000304	-0.000401	-0.023472	
33876	    0	11.362345	9.245102	-4.141079	-0.348879	-0.042346	-4.109292	0.115499	0.090018	-0.041545	0.999787	-0.001744	-0.000212	-0.020545	
33877	    0	13.469027	12.962087	-4.432495	-0.999315	0.117499	-3.499797	0.136902	0.127014	-0.045044	0.999834	-0.004996	0.000587	-0.017498	
33878	    0	15.881795	7.691715	-2.660678	-1.021620	0.152976	-3.061237	0.159948	0.074337	-0.027113	0.999869	-0.005108	0.000765	-0.015306	
33879	    0	19.094684	8.032130	-0.961343	-0.974308	0.205429	-2.750495	0.192017	0.077637	-0.010193	0.999892	-0.004871	0.001027	-0.013752	
33880	    0	25.230668	9.119417	3.053003	-0.916315	0.355730	-2.328362	0.253400	0.088386	0.029671	0.999920	-0.004581	0.001779	-0.011642	
33881	    0	24.875523	5.473677	3.710947	-1.029230	0.417528	-2.101185	0.249390	0.052307	0.036316	0.999928	-0.005146	0.002088	-0.010506	
33882	    0	25.079973	3.598613	4.617142	-1.186205	0.466357	-1.844445	0.251225	0.033941	0.045381	0.999937	-0.005931	0.002332	-0.009222	
33883	    0	25.890375	3.181289	3.309747	-1.588474	0.437365	-1.576267	0.259216	0.030029	0.032288	0.999934	-0.007942	0.002187	-0.007881	
33884	    0	25.618134	2.875267	1.381568	-2.207245	0.304231	-1.307333	0.256383	0.027225	0.013120	0.999916	-0.011036	0.001521	-0.006536	
33885	    0	25.741285	-0.569447	0.645010	-3.105301	0.110059	-0.964398	0.257385	-0.006836	0.006409	0.999867	-0.015526	0.000550	-0.004822	
33886	    0	23.827242	-6.082183	-0.956102	-3.670907	0.035670	-0.738187	0.238044	-0.061863	-0.008474	0.999825	-0.018353	0.000178	-0.003691	
33887	    0	22.995051	-10.191196	-4.005620	-3.485289	0.163468	-0.592072	0.229614	-0.103271	-0.038452	0.999843	-0.017426	0.000817	-0.002960	
33888	    0	21.028792	-13.252339	-6.363553	-3.021930	0.246439	-0.399033	0.209945	-0.133886	-0.061878	0.999883	-0.015109	0.001232	-0.001995	
33889	    0	15.975742	-13.268290	-7.803940	-1.940186	0.198558	-0.293736	0.159485	-0.133667	-0.076904	0.999951	-0.009701	0.000993	-0.001469	
33890	    0	12.433216	-8.484420	-4.777455	-0.247384	0.227929	-0.789263	0.123941	-0.085393	-0.047811	0.999990	-0.001237	0.001140	-0.003946	
33891	    0	8.614700	8.654691	-4.115748	0.363929	0.456437	-2.001989	0.086914	0.085754	-0.041199	0.999946	0.001820	0.002282	-0.010010	
33892	    0	10.162275	16.001303	-11.846939	-0.799781	0.731305	-2.805243	0.103414	0.158094	-0.119480	0.999887	-0.003999	0.003656	-0.014026	
33893	    0	14.904991	6.625547	-14.221214	-2.523782	1.051401	-2.938277	0.149231	0.062256	-0.143799	0.999798	-0.012618	0.005257	-0.014690	
33894	    0	11.609790	-6.479979	-8.303806	-3.320029	1.205358	-2.892364	0.114633	-0.067839	-0.082623	0.999739	-0.016599	0.006026	-0.014461	
33895	    0	13.172141	-13.697965	-6.129609	-2.798504	1.181891	-3.273282	0.129089	-0.139954	-0.060120	0.999750	-0.013991	0.005909	-0.016365	
33896	    0	15.063296	-11.257118	-7.477572	-2.414170	1.183241	-3.951449	0.147918	-0.116410	-0.074266	0.999714	-0.012070	0.005916	-0.019755	
33897	    0	17.180198	-8.954544	-8.381369	-2.641392	1.136903	-4.216461	0.169373	-0.094238	-0.083557	0.999674	-0.013206	0.005684	-0.021080	
33898	    0	19.442202	-10.892104	-7.780765	-2.661626	1.024935	-4.373666	0.191566	-0.114162	-0.077298	0.999659	-0.013307	0.005124	-0.021866	
33899	    0	18.742924	-13.394891	-6.580074	-2.342303	0.940812	-4.605632	0.183960	-0.138977	-0.065063	0.999655	-0.011710	0.004704	-0.023026	
33900	    0	17.997187	-13.591518	-5.302490	-2.065712	0.958365	-4.816625	0.176369	-0.140736	-0.052439	0.999644	-0.010327	0.004791	-0.024080	
33901	    0	18.472788	-13.574295	-4.526899	-1.852446	1.031617	-4.897890	0.181091	-0.140625	-0.044922	0.999643	-0.009261	0.005157	-0.024487	
33902	    0	18.524575	-13.870082	-3.964341	-1.464624	1.096465	-4.820022	0.181610	-0.143397	-0.039607	0.999667	-0.007322	0.005482	-0.024097	
33903	    0	18.719301	-13.319474	-3.766195	-0.927062	1.140897	-4.610130	0.183838	-0.137634	-0.038086	0.999707	-0.004635	0.005704	-0.023048	
33904	    0	19.597183	-12.166903	-3.453658	-0.372346	1.213748	-4.316122	0.193071	-0.125922	-0.035482	0.999746	-0.001862	0.006068	-0.021579	
33905	    0	20.898449	-10.526809	-3.006500	0.151836	1.298806	-3.923314	0.206665	-0.109314	-0.031494	0.999785	0.000759	0.006494	-0.019615	
33906	    0	21.711318	-8.438567	-3.361727	0.831081	1.335032	-3.422939	0.215396	-0.087937	-0.035419	0.999823	0.004155	0.006675	-0.017114	
33907	    0	20.562884	-6.267555	-4.037344	1.321663	1.284087	-2.777991	0.204468	-0.065247	-0.042114	0.999861	0.006608	0.006420	-0.013889	
33908	    0	17.217233	-4.580932	-3.572789	1.493121	1.161040	-2.037305	0.171483	-0.047285	-0.037074	0.999903	0.007465	0.005805	-0.010186	
33909	    0	13.164279	-3.052837	-3.442386	1.686896	0.997374	-1.176478	0.131287	-0.031006	-0.035339	0.999934	0.008434	0.004987	-0.005882	
33910	    0	9.593258	-1.589820	-3.905671	1.684978	0.883879	-0.216678	0.095741	-0.015670	-0.039613	0.999953	0.008425	0.004419	-0.001083	
33911	    0	6.097210	-0.405995	-4.733061	1.456472	0.821888	0.772106	0.060791	-0.003479	-0.047607	0.999957	0.007282	0.004109	0.003860	
33912	    0	2.640958	0.250005	-5.981911	1.313050	0.757808	1.863143	0.026155	0.003138	-0.059899	0.999928	0.006565	0.003789	0.009315	
33913	    0	1.567380	0.448960	-6.821676	1.208739	0.649289	2.906924	0.015381	0.005127	-0.068237	0.999870	0.006043	0.003246	0.014534	
33914	    0	0.701312	1.138454	-7.157890	1.222317	0.437196	3.952311	0.006624	0.011955	-0.071522	0.999784	0.006111	0.002186	0.019760	
33915	    0	0.343892	1.034376	-7.068158	1.250781	0.183888	4.885620	0.003113	0.010864	-0.070618	0.999681	0.006253	0.000919	0.024426	
33916	    0	1.000783	0.625614	-6.946624	1.396191	-0.078594	5.736230	0.009841	0.007025	-0.069415	0.999564	0.006980	-0.000393	0.028677	
33917	    0	2.546115	0.851447	-6.560429	1.494303	-0.342623	6.493056	0.025269	0.009827	-0.065491	0.999443	0.007470	-0.001713	0.032459	
33918	    0	4.394857	1.112396	-5.875527	1.419382	-0.587212	7.126097	0.043677	0.013100	-0.058538	0.999335	0.007095	-0.002935	0.035623	
33919	    0	6.493716	0.636853	-4.823087	1.294272	-0.817124	7.633611	0.064819	0.009155	-0.047913	0.999242	0.006470	-0.004085	0.038158	
33920	    0	9.002172	-0.238847	-3.938269	1.324639	-1.088253	7.968247	0.090227	0.001463	-0.038891	0.999169	0.006621	-0.005440	0.039830	
33921	    0	10.873809	-0.133399	-3.412634	1.493523	-1.334593	8.268943	0.108887	0.003418	-0.033386	0.999095	0.007465	-0.006671	0.041332	
33922	    0	12.532285	-0.006087	-3.017255	1.450617	-1.544870	8.461965	0.125398	0.005459	-0.029178	0.999048	0.007251	-0.007722	0.042296	
33923	    0	13.834840	-0.275313	-3.075293	1.405798	-1.736068	8.606503	0.138550	0.003418	-0.029541	0.999011	0.007027	-0.008677	0.043018	
33924	    0	15.411480	-0.132734	-3.644599	1.337891	-1.900179	8.763072	0.154305	0.005670	-0.034958	0.998972	0.006687	-0.009498	0.043800	
33925	    0	17.168060	0.715322	-3.293995	1.182214	-2.026899	8.945601	0.171448	0.015015	-0.031128	0.998931	0.005909	-0.010131	0.044712	
33926	    0	19.654996	1.714947	-2.742834	1.070030	-2.112584	9.031524	0.195779	0.026143	-0.025233	0.998910	0.005348	-0.010559	0.045141	
33927	    0	22.264623	3.999403	-2.264947	1.155512	-2.186429	9.027343	0.220764	0.050110	-0.019958	0.998904	0.005775	-0.010928	0.045120	
33928	    0	24.564934	7.348724	-2.706413	1.358906	-2.201687	8.959201	0.242300	0.084563	-0.023834	0.998913	0.006792	-0.011004	0.044780	
33929	    0	26.269410	13.052023	-3.752940	1.476237	-2.128589	8.831089	0.256958	0.142212	-0.033752	0.998941	0.007379	-0.010639	0.044140	
33930	    0	27.605942	18.534740	-2.889359	0.896371	-1.997278	8.671599	0.267943	0.197204	-0.025324	0.999000	0.004480	-0.009983	0.043344	
33931	    0	28.320681	21.974403	-1.729586	0.420698	-1.962112	8.291088	0.273926	0.231262	-0.014099	0.999090	0.002103	-0.009808	0.041443	
33932	    0	29.050215	25.725353	1.524360	0.293614	-1.858599	7.476560	0.280459	0.267839	0.018270	0.999257	0.001468	-0.009291	0.037374	
33933	    0	26.930265	28.518916	3.242560	0.702792	-1.624396	6.285449	0.259888	0.293335	0.035583	0.999467	0.003513	-0.008121	0.031422	
33934	    0	21.732273	32.735642	3.367032	1.498006	-1.325563	4.746771	0.209237	0.332115	0.037551	0.999668	0.007489	-0.006627	0.023731	
33935	    0	13.361628	40.947302	4.188067	2.161543	-1.051969	3.041267	0.127136	0.410950	0.046997	0.999812	0.010807	-0.005260	0.015205	
33936	    0	8.354507	47.369595	4.927250	2.022033	-0.712986	1.291499	0.080298	0.473689	0.054352	0.999921	0.010110	-0.003565	0.006457	
33937	    0	8.696516	46.114330	6.813432	1.481643	-0.247004	-0.254061	0.087463	0.460510	0.071655	0.999970	0.007408	-0.001235	-0.001270	
33938	    0	11.147761	39.260478	8.073613	1.454956	0.201039	-1.697194	0.114883	0.391039	0.083470	0.999936	0.007275	0.001005	-0.008486	
33939	    0	15.643484	33.326549	2.354139	1.679314	0.252736	-3.035889	0.161499	0.330627	0.026123	0.999848	0.008396	0.001264	-0.015179	
33940	    0	17.262026	39.051140	-11.983964	2.528127	-0.246079	-4.874843	0.182236	0.387619	-0.114707	0.999621	0.012639	-0.001230	-0.024371	
33941	    0	30.904726	61.475538	-17.798055	0.417594	-0.425034	-6.553306	0.329346	0.604553	-0.176025	0.999458	0.002088	-0.002125	-0.032761	
33942	    0	41.781565	11.974791	-6.410249	-4.074124	0.316124	-6.409853	0.421233	0.104937	-0.067005	0.999277	-0.020366	0.001580	-0.032042	
33943	    0	33.237102	-20.770229	-8.931832	-1.533685	0.141178	-7.424416	0.324280	-0.220520	-0.087891	0.999281	-0.007667	0.000706	-0.037113	
33944	    0	16.016582	11.141912	-17.800004	2.669829	-0.634211	-8.442026	0.165302	0.106872	-0.176034	0.999015	0.013345	-0.003170	-0.042196	
33945	    0	21.558688	46.045405	3.975874	-0.926255	0.316701	-7.780161	0.233337	0.451782	0.037292	0.999231	-0.004630	0.001583	-0.038891	
33946	    0	7.399789	7.811489	19.905763	-1.156069	0.093096	-6.590929	0.076635	0.076767	0.198576	0.999440	-0.005779	0.000465	-0.032948	
33947	    0	3.417711	12.726749	7.790681	0.514488	0.250281	-5.932732	0.038025	0.125977	0.078186	0.999556	0.002572	0.001251	-0.029659	
33948	    0	9.029019	12.543569	1.380999	0.392195	-0.079545	-5.165487	0.093483	0.123021	0.014090	0.999664	0.001961	-0.000398	-0.025825	
33949	    0	10.398615	6.751077	-0.541477	0.255036	-0.155654	-4.673431	0.105530	0.065063	-0.005249	0.999725	0.001275	-0.000778	-0.023365	
33950	    0	12.314447	9.445541	0.151952	0.075918	-0.251025	-4.131231	0.125058	0.091885	0.001711	0.999785	0.000380	-0.001255	-0.020655	
33951	    0	14.398032	16.799853	-3.499067	-0.564606	-0.081448	-3.583723	0.146973	0.165283	-0.035400	0.999835	-0.002823	-0.000407	-0.017918	
33952	    0	14.165741	9.569717	-1.639966	-1.086469	-0.047113	-2.902338	0.143029	0.093537	-0.016878	0.999880	-0.005432	-0.000236	-0.014511	
33953	    0	18.219860	8.205296	-3.154912	-1.034387	-0.114444	-2.513963	0.183228	0.079590	-0.031860	0.999907	-0.005172	-0.000572	-0.012569	
33954	    0	22.784266	9.009538	-1.051040	-1.307138	-0.038720	-2.050832	0.228752	0.087682	-0.011045	0.999926	-0.006536	-0.000194	-0.010254	
33955	    0	25.001953	6.690411	1.468038	-1.369505	0.057412	-1.792183	0.250610	0.064758	0.014160	0.999936	-0.006847	0.000287	-0.008961	
33956	    0	26.511557	5.975770	2.466659	-1.815839	0.158504	-1.554717	0.265590	0.057914	0.023925	0.999928	-0.009079	0.000793	-0.007773	
33957	    0	25.994814	4.255599	2.740300	-2.285644	0.149541	-1.374095	0.260254	0.041077	0.026733	0.999910	-0.011428	0.000748	-0.006870	
33958	    0	25.435581	3.352607	1.891762	-2.920462	0.112729	-1.151895	0.254555	0.032331	0.018296	0.999876	-0.014602	0.000564	-0.005759	
33959	    0	24.678145	-1.949910	1.260919	-3.987396	0.005532	-0.778252	0.246704	-0.020203	0.013000	0.999793	-0.019936	0.000028	-0.003891	
33960	    0	23.708439	-5.916948	0.214082	-4.491235	-0.032809	-0.545930	0.236921	-0.059748	0.003517	0.999743	-0.022454	-0.000164	-0.002729	
33961	    0	25.177810	-9.037167	-2.408803	-4.408624	0.107774	-0.392946	0.251587	-0.091370	-0.022217	0.999755	-0.022041	0.000539	-0.001965	
33962	    0	22.018051	-9.654110	-4.928066	-3.890284	0.131425	-0.219168	0.220042	-0.097718	-0.047532	0.999809	-0.019450	0.000657	-0.001096	
33963	    0	16.723330	-12.764432	-5.698014	-2.896983	0.135999	-0.031282	0.167175	-0.128479	-0.055237	0.999894	-0.014484	0.000680	-0.000156	
33964	    0	14.403822	-6.713194	-3.202375	-1.251993	0.118829	-0.466922	0.143862	-0.067667	-0.031687	0.999977	-0.006260	0.000594	-0.002335	
33965	    0	11.845155	9.770641	-2.204385	-1.328300	0.233654	-1.474787	0.119141	0.096680	-0.022827	0.999949	-0.006641	0.001168	-0.007374	
33966	    0	8.894485	14.014610	-9.261301	-2.790040	0.514442	-2.412172	0.090374	0.137750	-0.094777	0.999826	-0.013949	0.002572	-0.012060	
33967	    0	14.376307	16.712182	-15.155384	-4.317262	0.941015	-3.325314	0.145752	0.161377	-0.155762	0.999618	-0.021584	0.004704	-0.016624	
33968	    0	15.054681	2.957680	-10.676040	-4.410028	1.563673	-3.435045	0.150154	0.024615	-0.108515	0.999578	-0.022047	0.007817	-0.017173	
33969	    0	14.960406	-5.901510	-7.866667	-3.684692	1.872676	-3.561843	0.147766	-0.063110	-0.078918	0.999627	-0.018421	0.009362	-0.017807	
33970	    0	14.349707	-11.246076	-6.872156	-2.669448	2.100230	-3.978992	0.140489	-0.116193	-0.068673	0.999658	-0.013346	0.010500	-0.019893	
33971	    0	16.339761	-12.773709	-6.720432	-1.791407	2.206687	-4.569033	0.159668	-0.132019	-0.067810	0.999638	-0.008956	0.011032	-0.022842	
33972	    0	18.849776	-11.522670	-6.906697	-1.561565	2.090544	-5.036075	0.184779	-0.120456	-0.070085	0.999598	-0.007807	0.010451	-0.025177	
33973	    0	20.683219	-11.344334	-6.087367	-1.587707	1.905325	-5.215416	0.203186	-0.119263	-0.061890	0.999582	-0.007937	0.009525	-0.026073	
33974	    0	20.675468	-12.495715	-5.548803	-1.603739	1.813196	-5.362140	0.202790	-0.130879	-0.056305	0.999567	-0.008018	0.009065	-0.026807	
33975	    0	20.017917	-13.328761	-5.513577	-1.585427	1.822163	-5.379503	0.195984	-0.139038	-0.055847	0.999565	-0.007926	0.009109	-0.026894	
33976	    0	19.572146	-15.013080	-6.185893	-1.240705	1.797916	-5.216149	0.191151	-0.155543	-0.062637	0.999599	-0.006203	0.008988	-0.026077	
33977	    0	19.174074	-16.196324	-6.685619	-0.521912	1.727690	-5.016158	0.187012	-0.166870	-0.068054	0.999644	-0.002609	0.008637	-0.025078	
33978	    0	19.493902	-15.129054	-6.574245	0.129714	1.674458	-4.908922	0.190589	-0.155961	-0.067451	0.999663	0.000648	0.008371	-0.024542	
33979	    0	19.975432	-11.970053	-6.410221	0.785341	1.660337	-4.762785	0.196289	-0.124146	-0.066223	0.999674	0.003926	0.008301	-0.023811	
33980	    0	20.535088	-8.291199	-6.410652	1.368665	1.608062	-4.525083	0.202885	-0.087072	-0.066331	0.999688	0.006843	0.008039	-0.022623	
33981	    0	20.377174	-5.745835	-6.763196	1.846484	1.559020	-4.039374	0.202026	-0.060913	-0.069763	0.999722	0.009232	0.007794	-0.020195	
33982	    0	19.611360	-5.027724	-6.102600	2.136005	1.420697	-3.311972	0.194810	-0.052845	-0.062968	0.999780	0.010679	0.007103	-0.016559	
33983	    0	17.910864	-5.356326	-4.984647	2.169152	1.203410	-2.563612	0.178101	-0.055298	-0.051514	0.999841	0.010845	0.006017	-0.012817	
33984	    0	14.381097	-5.098918	-4.137475	2.068022	0.974118	-1.845998	0.143129	-0.051876	-0.042606	0.999891	0.010340	0.004870	-0.009230	
33985	    0	10.147369	-3.837377	-3.975121	1.954885	0.791186	-0.932333	0.101135	-0.038452	-0.040527	0.999933	0.009774	0.003956	-0.004662	
33986	    0	5.688449	-2.050504	-4.502451	1.643774	0.624856	0.174906	0.056761	-0.020083	-0.045368	0.999961	0.008219	0.003124	0.000875	
33987	    0	2.038996	-0.806583	-4.305302	1.101128	0.548561	1.356525	0.020325	-0.007690	-0.043152	0.999958	0.005506	0.002743	0.006783	
33988	    0	0.722789	-0.535637	-3.753584	0.608653	0.400555	2.554015	0.007219	-0.005150	-0.037566	0.999911	0.003043	0.002003	0.012770	
33989	    0	-0.596521	0.253916	-4.352663	0.360893	0.133713	3.830956	-0.006042	0.002502	-0.043518	0.999814	0.001804	0.000669	0.019154	
33990	    0	-1.833713	0.177271	-5.262344	0.244358	-0.210785	5.112635	-0.018320	0.001369	-0.052641	0.999672	0.001222	-0.001054	0.025560	
33991	    0	-1.760058	-2.446124	-5.939949	0.482255	-0.591182	6.167069	-0.016663	-0.024841	-0.059509	0.999516	0.002411	-0.002955	0.030830	
33992	    0	0.752398	-3.182661	-5.888060	0.980397	-0.978680	7.049360	0.008921	-0.031240	-0.058993	0.999354	0.004901	-0.004892	0.035239	
33993	    0	3.883481	-2.414639	-5.490798	0.950111	-1.352859	7.797016	0.040100	-0.022339	-0.054749	0.999206	0.004749	-0.006763	0.038975	
33994	    0	6.960568	-2.376076	-4.838887	0.672737	-1.693480	8.367043	0.070920	-0.020650	-0.047865	0.999084	0.003363	-0.008465	0.041822	
33995	    0	9.299483	-2.931783	-3.877917	0.477190	-1.998056	8.806559	0.094543	-0.025085	-0.037903	0.998978	0.002385	-0.009987	0.044018	
33996	    0	11.183106	-3.652793	-2.938179	0.574326	-2.296350	9.155442	0.113671	-0.031269	-0.028178	0.998882	0.002871	-0.011477	0.045760	
33997	    0	13.662042	-4.181649	-1.849273	0.900822	-2.543138	9.451283	0.138611	-0.035217	-0.016907	0.998793	0.004502	-0.012711	0.047237	
33998	    0	16.126039	-3.814602	-0.945716	1.208053	-2.712442	9.624544	0.162954	-0.030280	-0.007453	0.998732	0.006038	-0.013556	0.048102	
33999	    0	18.335517	-3.653402	0.089521	1.396795	-2.835379	9.789014	0.184814	-0.027527	0.003296	0.998677	0.006981	-0.014171	0.048923	
34000	    0	20.781992	-3.870211	1.168427	1.882289	-2.925907	10.010635	0.209215	-0.028378	0.014440	0.998596	0.009407	-0.014623	0.050030	
34001	    0	24.409150	-2.166331	1.245239	2.421242	-2.878278	10.227686	0.244568	-0.009338	0.015808	0.998515	0.012100	-0.014384	0.051113	
34002	    0	28.731899	1.467510	1.084677	2.814598	-2.707350	10.409375	0.285859	0.029391	0.015069	0.998455	0.014066	-0.013530	0.052020	
34003	    0	33.365680	8.006921	0.973781	2.455604	-2.218020	10.443760	0.328735	0.097168	0.014526	0.998500	0.012272	-0.011085	0.052193	
34004	    0	35.181142	15.191739	-1.199368	1.791845	-1.677540	10.346900	0.343405	0.169915	-0.007620	0.998587	0.008955	-0.008384	0.051710	
34005	    0	38.818154	21.215157	-3.230931	0.637520	-1.173143	10.081248	0.377014	0.231445	-0.029358	0.998707	0.003186	-0.005863	0.050385	
34006	    0	42.946086	28.622649	-6.198016	-0.491522	-1.178431	9.515984	0.415567	0.306075	-0.060240	0.998847	-0.002457	-0.005890	0.047562	
34007	    0	34.360750	32.274099	-7.703043	-0.841013	-1.565071	8.328475	0.330383	0.336365	-0.075806	0.999093	-0.004204	-0.007823	0.041630	
34008	    0	26.131038	39.373510	-3.809078	-0.664062	-1.723014	6.152829	0.249362	0.401405	-0.037232	0.999484	-0.003320	-0.008614	0.030759	
34009	    0	16.257406	50.574698	7.701876	-1.030810	-1.492233	3.876028	0.152161	0.509155	0.075562	0.999770	-0.005154	-0.007461	0.019379	
34010	    0	10.927688	54.656558	16.860177	-0.669681	-0.825323	1.671246	0.104010	0.548011	0.167205	0.999950	-0.003348	-0.004127	0.008356	
34011	    0	12.282994	49.266706	15.373345	0.361061	0.032806	-0.325775	0.123657	0.492188	0.154602	0.999996	0.001805	0.000164	-0.001629	
34012	    0	14.753042	38.701449	11.826822	2.310663	0.440808	-2.230742	0.152091	0.383937	0.122384	0.999868	0.011553	0.002204	-0.011153	
34013	    0	13.350880	35.469961	3.499494	4.104449	0.422158	-4.235694	0.141052	0.350952	0.041931	0.999562	0.020519	0.002110	-0.021175	
34014	    0	20.958158	45.362500	-4.557984	5.930476	-0.065443	-6.347936	0.223870	0.447756	-0.032170	0.999056	0.029643	-0.000327	-0.031730	
34015	    0	37.515321	49.764298	-5.858387	3.347226	0.160455	-7.652219	0.393799	0.483704	-0.050720	0.999127	0.016731	0.000802	-0.038250	
34016	    0	38.046203	-2.240189	-1.873791	-0.272049	0.454623	-7.316322	0.379259	-0.036319	-0.019558	0.999327	-0.001360	0.002273	-0.036573	
34017	    0	31.508196	4.984772	-9.049949	1.531721	0.363469	-8.727072	0.316711	0.036743	-0.090759	0.999017	0.007656	0.001817	-0.043621	
34018	    0	20.932336	31.039356	-12.493656	1.413831	0.204156	-8.969338	0.222854	0.301474	-0.123007	0.998969	0.007067	0.001020	-0.044831	
34019	    0	13.427085	21.381520	4.559808	-1.105022	0.526755	-7.785523	0.142578	0.208618	0.044067	0.999223	-0.005524	0.002633	-0.038918	
34020	    0	-3.294546	11.621326	11.309335	-0.245906	0.372769	-6.867238	-0.028717	0.117387	0.113006	0.999408	-0.001229	0.001863	-0.034329	
34021	    0	7.742126	17.342658	6.841324	0.186185	0.528223	-5.938075	0.082703	0.170959	0.068359	0.999555	0.000931	0.002641	-0.029686	
34022	    0	7.017829	9.545879	1.990521	0.189995	0.145739	-5.370596	0.072721	0.093510	0.019942	0.999639	0.000950	0.000729	-0.026850	
34023	    0	11.409459	8.858761	1.438316	0.354230	0.123608	-4.861169	0.116211	0.085754	0.014465	0.999702	0.001771	0.000618	-0.024303	
34024	    0	12.329206	10.425270	0.137209	0.091560	0.136004	-4.222040	0.125457	0.101619	0.001334	0.999777	0.000458	0.000680	-0.021109	
34025	    0	15.661624	11.425200	-2.934006	-0.499561	0.208294	-3.531835	0.158569	0.111389	-0.029785	0.999840	-0.002498	0.001041	-0.017658	
34026	    0	18.199455	9.237052	-2.695767	-0.754196	0.091938	-3.034334	0.183354	0.089493	-0.027383	0.999877	-0.003771	0.000460	-0.015171	
34027	    0	23.465671	10.332968	-0.211004	-0.958854	0.076296	-2.578817	0.235962	0.100281	-0.002686	0.999905	-0.004794	0.000381	-0.012894	
34028	    0	25.289478	6.984265	4.240433	-1.130326	0.010491	-2.321880	0.253687	0.067139	0.042006	0.999916	-0.005651	0.000052	-0.011609	
34029	    0	25.976690	6.135295	6.651395	-1.146726	0.100901	-2.130942	0.260437	0.058960	0.066040	0.999927	-0.005733	0.000504	-0.010654	
34030	    0	26.102382	3.372766	5.027201	-1.482046	0.091173	-1.898812	0.261353	0.031618	0.049913	0.999927	-0.007410	0.000456	-0.009494	
34031	    0	25.700051	3.127406	4.302253	-1.823281	0.065614	-1.651043	0.257263	0.029541	0.042664	0.999924	-0.009116	0.000328	-0.008255	
34032	    0	24.392753	0.038032	2.395330	-2.625176	-0.015259	-1.228948	0.243923	-0.000804	0.023977	0.999894	-0.013125	-0.000076	-0.006145	
34033	    0	23.461780	-1.223961	1.030364	-3.595177	-0.021173	-0.913291	0.234558	-0.013123	0.010559	0.999827	-0.017975	-0.000106	-0.004566	
34034	    0	22.596688	-7.264331	-0.594709	-4.149743	0.119218	-0.675442	0.225717	-0.073510	-0.004562	0.999779	-0.020747	0.000596	-0.003377	
34035	    0	22.924763	-10.535699	-3.870432	-3.788991	0.418307	-0.540194	0.228882	-0.106689	-0.037170	0.999814	-0.018944	0.002091	-0.002701	
34036	    0	20.017698	-14.222907	-6.990962	-3.097853	0.521109	-0.288975	0.199791	-0.143583	-0.068213	0.999875	-0.015489	0.002605	-0.001445	
34037	    0	14.031004	-14.263292	-9.353754	-1.711296	0.485427	-0.267795	0.139893	-0.143616	-0.092651	0.999959	-0.008556	0.002427	-0.001339	
34038	    0	12.393106	-6.045081	-6.538824	-0.032234	0.433161	-1.053244	0.123468	-0.061112	-0.065646	0.999983	-0.000161	0.002166	-0.005266	
34039	    0	7.197518	10.362012	-2.780972	-0.134280	0.542653	-2.250722	0.073059	0.102783	-0.028076	0.999932	-0.000671	0.002713	-0.011253	
34040	    0	8.187149	15.101901	-11.757934	-1.335591	0.942467	-3.001359	0.083559	0.148982	-0.118970	0.999853	-0.006678	0.004712	-0.015006	
34041	    0	16.979097	9.391417	-15.462044	-1.652635	1.317110	-3.342656	0.170288	0.089783	-0.156494	0.999804	-0.008263	0.006585	-0.016712	
34042	    0	13.533391	-3.121315	-13.027441	-1.660453	1.435372	-3.244607	0.133854	-0.034478	-0.130961	0.999807	-0.008302	0.007176	-0.016222	
34043	    0	11.988159	-10.177955	-6.627118	-1.311388	1.477147	-3.434978	0.117615	-0.104248	-0.066467	0.999804	-0.006557	0.007385	-0.017174	
34044	    0	13.814744	-10.666153	-5.611905	-0.567097	1.292516	-3.989327	0.135616	-0.109544	-0.056693	0.999776	-0.002835	0.006462	-0.019945	
34045	    0	16.067602	-8.492787	-6.341630	-0.481455	1.106545	-4.295705	0.158447	-0.088501	-0.064087	0.999751	-0.002407	0.005532	-0.021477	
34046	    0	18.344201	-7.436785	-6.786064	-0.927243	0.876122	-4.406362	0.181441	-0.078696	-0.068300	0.999737	-0.004636	0.004380	-0.022030	
34047	    0	19.415542	-9.744796	-6.475008	-1.371895	0.725815	-4.510926	0.191650	-0.102234	-0.064758	0.999715	-0.006859	0.003629	-0.022552	
34048	    0	19.241488	-11.758640	-5.567637	-1.692190	0.705031	-4.724245	0.189363	-0.122553	-0.055325	0.999679	-0.008460	0.003525	-0.023619	
34049	    0	19.837474	-11.704142	-4.574090	-1.856257	0.802706	-4.879565	0.195251	-0.122253	-0.045410	0.999651	-0.009280	0.004013	-0.024395	
34050	    0	21.097332	-12.429394	-3.296006	-1.802278	0.940816	-4.944246	0.207656	-0.129751	-0.032789	0.999642	-0.009010	0.004704	-0.024718	
34051	    0	21.157392	-12.930530	-2.831215	-1.316788	1.076627	-4.862751	0.208191	-0.134583	-0.028564	0.999668	-0.006583	0.005383	-0.024311	
34052	    0	20.806550	-11.821545	-2.289675	-0.672215	1.102365	-4.671363	0.205099	-0.123108	-0.023624	0.999706	-0.003361	0.005511	-0.023355	
34053	    0	20.523185	-9.260389	-1.534218	-0.099190	1.102731	-4.351409	0.203064	-0.097046	-0.016418	0.999747	-0.000496	0.005513	-0.021755	
34054	    0	20.771114	-7.049178	-0.826574	0.393513	1.095846	-3.860735	0.206249	-0.074465	-0.009542	0.999796	0.001967	0.005479	-0.019302	
34055	    0	18.626223	-6.146055	-1.229583	0.873037	0.921677	-3.221291	0.185181	-0.064392	-0.013428	0.999849	0.004365	0.004608	-0.016106	
34056	    0	15.009322	-5.546928	-1.887879	0.887517	0.708411	-2.471809	0.149324	-0.057232	-0.019660	0.999907	0.004437	0.003542	-0.012359	
34057	    0	12.106280	-4.231992	-1.749511	0.564583	0.441939	-1.662468	0.120667	-0.043274	-0.017883	0.999959	0.002823	0.002210	-0.008312	
34058	    0	7.633281	-2.001167	-2.172458	0.374795	0.163842	-0.662805	0.076248	-0.020224	-0.021825	0.999992	0.001874	0.000819	-0.003314	
34059	    0	3.909932	-1.431605	-2.641290	0.174713	0.014687	0.366974	0.039124	-0.014221	-0.026428	0.999997	0.000874	0.000073	0.001835	
34060	    0	1.016449	-0.501803	-3.508569	0.477605	-0.229838	1.455131	0.010241	-0.004860	-0.035086	0.999969	0.002388	-0.001149	0.007276	
34061	    0	0.565682	0.582189	-4.483165	0.650999	-0.437941	2.636039	0.005676	0.006042	-0.044800	0.999905	0.003255	-0.002190	0.013180	
34062	    0	0.472369	0.382554	-4.366320	0.868662	-0.715301	3.747416	0.004805	0.004105	-0.043629	0.999808	0.004343	-0.003576	0.018736	
34063	    0	1.054025	-0.756280	-4.285233	1.361415	-1.012525	4.668907	0.010925	-0.007019	-0.042847	0.999691	0.006806	-0.005062	0.023342	
34064	    0	2.030456	-0.046131	-4.204806	1.784394	-1.285550	5.495111	0.020570	0.000476	-0.041915	0.999561	0.008921	-0.006427	0.027472	
34065	    0	3.344799	0.930278	-4.234241	1.825488	-1.533799	6.307653	0.033447	0.010742	-0.041992	0.999432	0.009126	-0.007668	0.031532	
34066	    0	4.991055	1.154722	-4.064242	1.560945	-1.740658	6.979229	0.049810	0.013601	-0.040108	0.999322	0.007803	-0.008701	0.034888	
34067	    0	6.591054	0.369813	-3.522085	1.317937	-1.935124	7.518422	0.066040	0.006409	-0.034546	0.999225	0.006588	-0.009673	0.037582	
34068	    0	8.538253	-0.924545	-2.746820	1.301377	-2.117766	7.927886	0.085939	-0.005671	-0.026605	0.999137	0.006505	-0.010586	0.039628	
34069	    0	11.115047	-1.149322	-1.830516	1.430196	-2.286291	8.236220	0.111694	-0.006775	-0.017090	0.999061	0.007149	-0.011428	0.041168	
34070	    0	16.545103	-4.315500	9.077981	1.789097	-2.004315	8.372524	0.166168	-0.037027	0.092093	0.999033	0.008943	-0.010018	0.041849	
34071	    0	13.374022	6.073468	3.020855	3.030604	-2.147409	7.945509	0.130859	0.065491	0.032593	0.999038	0.015148	-0.010734	0.039715	
34072	    0	14.134234	5.573968	-5.300995	1.397820	-1.949430	8.916016	0.139166	0.062340	-0.051226	0.998934	0.006987	-0.009744	0.044564	
34073	    0	14.864343	-0.789364	-5.328661	0.293075	-2.138343	9.090678	0.149353	-0.001038	-0.051697	0.998908	0.001465	-0.010688	0.045437	
34074	    0	19.441812	-3.867980	-3.563230	0.775637	-2.279590	9.324816	0.196324	-0.029421	-0.033527	0.998840	0.003877	-0.011394	0.046606	
34075	    0	21.804861	3.258029	1.745187	1.324954	-2.186442	9.082348	0.216064	0.042297	0.020081	0.998887	0.006622	-0.010928	0.045395	
34076	    0	23.925686	8.214379	2.129092	1.236602	-2.028248	9.030380	0.234994	0.092677	0.024240	0.998910	0.006181	-0.010138	0.045135	
34077	    0	26.003943	9.777223	-0.269417	0.693757	-1.859748	8.981437	0.255310	0.109314	0.000061	0.998942	0.003468	-0.009295	0.044891	
34078	    0	27.942621	10.761891	-2.292333	0.540159	-1.833410	8.941140	0.274437	0.120022	-0.020079	0.998955	0.002700	-0.009164	0.044690	
34079	    0	30.314041	16.886093	-2.443882	0.592430	-1.874405	8.732468	0.295593	0.181946	-0.021118	0.998999	0.002961	-0.009369	0.043648	
34080	    0	31.385062	23.502816	-0.761894	0.385397	-1.903518	8.146950	0.303986	0.247558	-0.004225	0.999123	0.001926	-0.009515	0.040723	
34081	    0	28.730497	25.855966	1.737387	0.419139	-1.835282	7.100748	0.277710	0.268494	0.020508	0.999325	0.002095	-0.009174	0.035496	
34082	    0	24.923506	26.872876	4.398131	1.060457	-1.644576	5.724445	0.241034	0.275461	0.047435	0.999542	0.005301	-0.008222	0.028618	
34083	    0	18.453990	31.640067	6.631052	2.333302	-1.338139	4.098158	0.177551	0.319275	0.071228	0.999700	0.011665	-0.006690	0.020489	
34084	    0	11.091697	42.953839	7.129788	3.004458	-0.951065	2.350768	0.105506	0.429659	0.078262	0.999806	0.015021	-0.004755	0.011753	
34085	    0	8.034381	47.505288	6.594059	2.560693	-0.472274	0.685140	0.078552	0.474426	0.072205	0.999908	0.012803	-0.002361	0.003426	
34086	    0	10.418076	40.675989	6.458875	2.264652	-0.058176	-0.951600	0.106092	0.405492	0.069216	0.999924	0.011323	-0.000291	-0.004758	
34087	    0	11.769175	34.557091	6.560937	2.475105	0.272574	-2.526988	0.122131	0.343201	0.069702	0.999843	0.012375	0.001363	-0.012634	
34088	    0	13.873708	30.463550	4.259726	2.455726	0.376351	-3.734520	0.144470	0.301422	0.046043	0.999748	0.012278	0.001882	-0.018671	
34089	    0	13.693990	27.159821	-8.123540	2.389048	-0.096714	-4.781148	0.143433	0.269165	-0.077942	0.999642	0.011944	-0.000484	-0.023903	
34090	    0	24.625599	54.184919	-18.618241	0.652999	-0.469098	-6.398738	0.263864	0.534197	-0.183825	0.999479	0.003264	-0.002345	-0.031988	
34091	    0	33.398291	28.208716	-10.550530	-3.758318	0.005533	-6.293371	0.342590	0.269348	-0.110657	0.999328	-0.018787	0.000028	-0.031460	
34092	    0	32.478749	-13.864705	-14.986235	-3.235752	0.130109	-6.423809	0.319964	-0.151379	-0.147691	0.999352	-0.016175	0.000650	-0.032112	
34093	    0	21.549994	-3.459715	-15.426202	1.660648	-0.558446	-8.249820	0.214294	-0.042175	-0.153992	0.999110	0.008301	-0.002791	-0.041237	
34094	    0	13.624279	44.986458	-3.653839	0.846128	-0.073452	-7.831309	0.153727	0.444221	-0.034596	0.999224	0.004230	-0.000367	-0.039146	
34095	    0	22.273660	18.922214	28.689582	-1.822824	0.468535	-6.544233	0.229492	0.184387	0.284668	0.999420	-0.009112	0.002342	-0.032715	
34096	    0	0.369380	6.812014	11.574205	0.523074	0.307320	-5.993223	0.005904	0.067662	0.115911	0.999546	0.002615	0.001536	-0.029962	
34097	    0	8.372231	15.241100	2.049448	0.557774	0.236730	-5.250397	0.087708	0.150085	0.020813	0.999650	0.002789	0.001184	-0.026249	
34098	    0	10.504079	9.395459	0.101319	0.262856	-0.063330	-4.588340	0.107159	0.091511	0.001168	0.999736	0.001314	-0.000317	-0.022940	
34099	    0	14.246200	8.091034	1.098747	0.078779	-0.295278	-4.045382	0.144043	0.078003	0.011230	0.999794	0.000394	-0.001476	-0.020226	
34100	    0	15.308625	15.065656	-3.623784	-0.386067	-0.148209	-3.505889	0.155722	0.147872	-0.036410	0.999844	-0.001930	-0.000741	-0.017529	
34101	    0	14.478195	10.962457	-1.881543	-0.989569	-0.003624	-2.807721	0.146301	0.107483	-0.019348	0.999888	-0.004948	-0.000018	-0.014038	
34102	    0	17.916143	8.704581	-1.406193	-0.912691	0.000572	-2.393216	0.180185	0.084828	-0.014453	0.999918	-0.004563	0.000003	-0.011966	
34103	    0	22.439167	10.625509	-1.833234	-1.221302	0.117495	-1.952405	0.225403	0.103943	-0.019104	0.999933	-0.006106	0.000587	-0.009762	
34104	    0	26.515550	7.763919	1.033215	-1.304841	0.247960	-1.591902	0.265775	0.075589	0.009505	0.999946	-0.006524	0.001240	-0.007959	
34105	    0	27.903785	5.160744	1.625721	-1.694524	0.409135	-1.385527	0.279419	0.049805	0.015259	0.999938	-0.008472	0.002046	-0.006927	
34106	    0	28.681315	4.310134	2.083867	-2.326459	0.427449	-1.105340	0.287089	0.041749	0.019734	0.999914	-0.011632	0.002137	-0.005527	
34107	    0	27.625494	0.681479	1.536719	-3.328869	0.356501	-0.783577	0.276306	0.005981	0.014771	0.999852	-0.016644	0.001782	-0.003918	
34108	    0	26.179319	-2.893818	0.707160	-4.466622	0.173393	-0.377687	0.261744	-0.029268	0.007496	0.999748	-0.022331	0.000867	-0.001888	
34109	    0	24.204101	-11.488380	-0.559061	-5.159379	0.151842	-0.058753	0.242004	-0.115051	-0.002808	0.999666	-0.025794	0.000759	-0.000294	
34110	    0	25.610989	-13.211068	-4.541789	-4.605894	0.376544	0.138867	0.256120	-0.132939	-0.042845	0.999732	-0.023027	0.001883	0.000694	
34111	    0	22.810421	-13.071134	-6.566935	-3.489867	0.568610	0.162515	0.228027	-0.131653	-0.064026	0.999843	-0.017448	0.002843	0.000813	
34112	    0	17.501330	-11.224586	-6.578846	-1.587887	0.543601	-0.388913	0.174616	-0.113106	-0.065368	0.999963	-0.007939	0.002718	-0.001945	
34113	    0	13.128967	3.169020	-2.837228	-0.428777	0.470167	-1.598378	0.131470	0.030579	-0.028748	0.999963	-0.002144	0.002351	-0.007992	
34114	    0	7.206606	14.848992	-5.031273	-1.230094	0.792151	-2.580356	0.073769	0.147231	-0.051511	0.999889	-0.006150	0.003961	-0.012901	
