// Start Time: Unknown
// Update Rate: 100.0Hz
// Filter Profile: human (34.3)
// Firmware Version: 2.1.4
PacketCounter	SampleTimeFine	Acc_X	Acc_Y	Acc_Z	Gyr_X	Gyr_Y	Gyr_Z	VelInc_X	VelInc_Y	VelInc_Z	OriInc_q0	OriInc_q1	OriInc_q2	OriInc_q3	
26126	    0	27.778683	-0.854835	-9.315509	1.735541	-0.292022	1.730200	0.277978	-0.005338	-0.092805	0.999924	0.008677	-0.001460	0.008651	
26127	    0	31.171314	4.375804	-7.091017	1.311719	-0.345621	2.136287	0.311340	0.047546	-0.070068	0.999920	0.006558	-0.001728	0.010681	
26128	    0	28.700649	8.197590	-4.206005	0.760489	-0.572227	2.899855	0.285894	0.086284	-0.040918	0.999883	0.003802	-0.002861	0.014499	
26129	    0	26.063493	7.984223	-4.002675	0.325981	-0.826302	3.232726	0.259460	0.084106	-0.038818	0.999859	0.001630	-0.004131	0.016163	
26130	    0	27.037600	8.455083	-3.492819	0.321787	-1.028306	3.411093	0.269055	0.089202	-0.033401	0.999840	0.001609	-0.005141	0.017055	
26131	    0	27.342373	9.266048	-3.977376	0.511390	-1.193307	3.505148	0.271973	0.097534	-0.037903	0.999825	0.002557	-0.005966	0.017525	
26132	    0	26.888006	10.059008	-4.974153	0.412585	-1.424116	3.593671	0.267358	0.105503	-0.047620	0.999810	0.002063	-0.007120	0.017967	
26133	    0	26.651719	10.580963	-4.668001	0.313017	-1.609909	3.644804	0.264893	0.110718	-0.044373	0.999800	0.001565	-0.008049	0.018223	
26134	    0	24.769592	10.149232	-2.697910	0.487550	-1.572138	3.569833	0.246032	0.105956	-0.024786	0.999806	0.002438	-0.007860	0.017848	
26135	    0	21.651737	9.547225	-0.908400	0.949348	-1.371852	3.523478	0.214844	0.099304	-0.007141	0.999809	0.004746	-0.006859	0.017616	
26136	    0	19.769530	10.284676	-0.886322	1.476571	-1.044148	3.427911	0.195933	0.106272	-0.007061	0.999812	0.007382	-0.005220	0.017138	
26137	    0	18.052657	10.560218	-0.719921	1.838792	-0.731511	3.190800	0.178833	0.108521	-0.005554	0.999824	0.009193	-0.003657	0.015953	
26138	    0	15.921082	10.528009	-0.466538	2.197196	-0.334377	2.885406	0.157676	0.107603	-0.003227	0.999834	0.010985	-0.001672	0.014426	
26139	    0	12.221874	10.726189	1.761923	2.635539	0.204480	2.678839	0.120789	0.108643	0.018921	0.999823	0.013177	0.001022	0.013393	
26140	    0	6.698376	12.498958	4.736721	3.143145	0.593798	2.495174	0.065568	0.125051	0.049136	0.999794	0.015715	0.002969	0.012475	
26141	    0	3.368626	15.036305	4.484618	3.088576	0.654072	2.308802	0.032104	0.150024	0.047058	0.999808	0.015442	0.003270	0.011543	
26142	    0	3.238790	12.375390	3.960529	2.629793	0.656351	2.153695	0.031190	0.123560	0.041127	0.999849	0.013148	0.003282	0.010768	
26143	    0	0.043598	13.545864	-0.941402	1.010347	0.566115	2.137809	-0.001038	0.135498	-0.008728	0.999926	0.005052	0.002831	0.010689	
26144	    0	-2.557188	14.447043	0.145859	0.058938	0.430306	2.107661	-0.027089	0.144190	0.001558	0.999942	0.000295	0.002151	0.010538	
26145	    0	-3.929173	12.652033	-0.299650	-0.632489	0.193218	2.049295	-0.040588	0.126099	-0.003357	0.999942	-0.003162	0.000966	0.010246	
26146	    0	-3.981385	12.876545	-1.749993	-1.673932	0.065996	1.816224	-0.040986	0.128244	-0.018561	0.999923	-0.008369	0.000330	0.009081	
26147	    0	-3.118795	12.846656	-0.307901	-2.412497	-0.077632	1.526694	-0.032166	0.128174	-0.004639	0.999898	-0.012062	-0.000388	0.007633	
26148	    0	-2.053450	9.238234	2.703195	-1.792560	-0.247006	1.127837	-0.021089	0.092502	0.026177	0.999943	-0.008963	-0.001235	0.005639	
26149	    0	-1.600752	4.243525	3.084593	-1.029785	-0.599675	0.639348	-0.016235	0.042542	0.030579	0.999977	-0.005149	-0.002998	0.003197	
26150	    0	-0.385870	0.569675	3.102792	-1.133360	-1.224532	0.029755	-0.004049	0.005872	0.030971	0.999965	-0.005667	-0.006123	0.000149	
26151	    0	0.443165	-0.023748	1.698710	-2.167395	-1.868504	-0.367750	0.004272	-0.000061	0.017029	0.999895	-0.010837	-0.009342	-0.001839	
26152	    0	3.593525	-0.693551	-1.289826	-3.427939	-2.237478	-0.482212	0.036058	-0.007237	-0.012373	0.999787	-0.017138	-0.011187	-0.002411	
26153	    0	6.147452	-3.491391	-1.989527	-3.932548	-2.499426	-0.371585	0.061646	-0.035400	-0.018433	0.999726	-0.019661	-0.012496	-0.001858	
26154	    0	4.829852	-7.403748	-2.582903	-3.590892	-2.768373	-0.200480	0.048563	-0.074526	-0.023823	0.999743	-0.017953	-0.013841	-0.001002	
26155	    0	2.868170	-10.595250	-4.890120	-2.223923	-3.264068	0.263994	0.029602	-0.106445	-0.047241	0.999804	-0.011119	-0.016319	0.001320	
26156	    0	4.992921	-15.441827	-14.117413	-0.153356	-2.587399	0.848224	0.052403	-0.154307	-0.140388	0.999907	-0.000767	-0.012937	0.004241	
26157	    0	8.513624	-21.041578	-17.128237	1.672578	0.006104	0.829327	0.085999	-0.208618	-0.173035	0.999956	0.008363	0.000031	0.004147	
26158	    0	7.109344	-16.109367	-9.290932	2.175211	1.662118	0.577564	0.070771	-0.159862	-0.095242	0.999902	0.010876	0.008310	0.002888	
26159	    0	3.212337	-7.327268	-1.720389	2.151556	1.613095	0.510422	0.032166	-0.072998	-0.018250	0.999906	0.010757	0.008065	0.002552	
26160	    0	2.068588	-1.645765	0.637481	1.939813	0.892848	0.535594	0.020758	-0.016462	0.006123	0.999939	0.009699	0.004464	0.002678	
26161	    0	4.311127	2.995896	-0.256007	1.962507	0.534830	0.498972	0.043030	0.030090	-0.002380	0.999945	0.009812	0.002674	0.002495	
26162	    0	4.708036	2.099217	-0.870044	2.440897	0.119212	0.469220	0.047026	0.021207	-0.008471	0.999922	0.012204	0.000596	0.002346	
26163	    0	7.408368	-8.791563	-10.100539	4.499441	-0.108156	0.609641	0.074402	-0.085388	-0.102905	0.999742	0.022495	-0.000541	0.003048	
26164	    0	22.688772	-25.847408	6.759636	4.434395	0.496335	0.856473	0.228153	-0.258904	0.061294	0.999742	0.022170	0.002481	0.004282	
26165	    0	27.788189	-18.165369	-4.047696	5.757188	-0.166916	-0.767625	0.277222	-0.181458	-0.045471	0.999578	0.028782	-0.000834	-0.003838	
26166	    0	10.200852	23.885921	-12.821345	4.885589	-0.294524	-0.088319	0.102298	0.241848	-0.122179	0.999700	0.024426	-0.001472	-0.000442	
26167	    0	5.604956	43.734432	0.094909	2.273041	-0.656143	-0.137332	0.056335	0.437256	0.006104	0.999929	0.011365	-0.003281	-0.000687	
26168	    0	5.733377	54.719986	-4.252882	-0.689131	-0.904854	-0.938233	0.060097	0.546772	-0.044146	0.999972	-0.003446	-0.004524	-0.004691	
26169	    0	6.874678	38.497286	-3.545514	-2.575817	-0.842138	-2.256129	0.073242	0.383667	-0.040100	0.999845	-0.012878	-0.004210	-0.011280	
26170	    0	15.285032	17.959445	-3.683419	-2.186767	-0.531432	-3.872623	0.156384	0.176175	-0.038361	0.999749	-0.010933	-0.002657	-0.019361	
26171	    0	27.886092	15.164521	-4.355421	-0.774272	-0.343358	-4.893997	0.282532	0.144592	-0.043640	0.999691	-0.003871	-0.001717	-0.024467	
26172	    0	28.617023	12.704039	-3.231891	-0.096138	-0.358801	-4.331548	0.288889	0.120788	-0.031861	0.999763	-0.000481	-0.001794	-0.021656	
26173	    0	23.945299	10.128126	-1.128177	0.375388	-0.092130	-3.689024	0.241272	0.096863	-0.010986	0.999827	0.001877	-0.000461	-0.018444	
26174	    0	26.265864	8.973285	-2.127719	0.567096	0.014688	-4.150313	0.264444	0.084317	-0.021052	0.999781	0.002835	0.000073	-0.020750	
26175	    0	28.122252	8.654609	-3.127386	-0.630052	-0.027468	-4.509362	0.283081	0.080078	-0.031494	0.999741	-0.003150	-0.000137	-0.022545	
26176	    0	29.442505	5.491311	-2.173781	-1.800717	0.103579	-4.549671	0.295558	0.047998	-0.022344	0.999701	-0.009003	0.000518	-0.022746	
26177	    0	28.959823	5.063297	-0.958995	-2.366145	0.376363	-4.649120	0.290649	0.043762	-0.010681	0.999658	-0.011829	0.001882	-0.023243	
26178	    0	27.300592	3.842289	0.517874	-2.992060	0.693029	-4.623434	0.273812	0.032162	0.003718	0.999615	-0.014958	0.003465	-0.023114	
26179	    0	26.298038	2.030210	0.383494	-3.413104	0.986046	-4.563014	0.263367	0.014343	0.002258	0.999581	-0.017063	0.004930	-0.022812	
26180	    0	23.613672	1.557733	-0.817887	-3.842534	1.157930	-4.358548	0.236345	0.010250	-0.009778	0.999560	-0.019210	0.005789	-0.021790	
26181	    0	20.652431	1.515953	-2.657737	-4.270825	1.204293	-4.119739	0.206604	0.010315	-0.028076	0.999541	-0.021351	0.006021	-0.020596	
26182	    0	18.055620	-1.770080	-5.314075	-4.655987	1.084114	-3.785720	0.179873	-0.022355	-0.053633	0.999535	-0.023276	0.005420	-0.018926	
26183	    0	15.469629	-7.609374	-8.536575	-4.656883	0.919664	-3.418456	0.152954	-0.080688	-0.084229	0.999572	-0.023281	0.004598	-0.017090	
26184	    0	11.329632	-14.296023	-9.780278	-4.046318	0.934132	-3.072890	0.110613	-0.146620	-0.095382	0.999666	-0.020229	0.004670	-0.015363	
26185	    0	5.973391	-18.986088	-9.313543	-2.989987	1.043014	-2.735338	0.056641	-0.192017	-0.090576	0.999781	-0.014949	0.005215	-0.013676	
26186	    0	2.998828	-16.880327	-8.175984	-2.402050	1.159920	-2.340821	0.027535	-0.170102	-0.079886	0.999842	-0.012010	0.005799	-0.011703	
26187	    0	3.724854	-15.467085	-6.586480	-2.146994	1.082080	-1.848673	0.035461	-0.155701	-0.064392	0.999885	-0.010735	0.005410	-0.009243	
26188	    0	4.631105	-15.865962	-6.496454	-1.525913	0.910779	-1.476702	0.044843	-0.159485	-0.063956	0.999933	-0.007629	0.004554	-0.007383	
26189	    0	4.395410	-16.818972	-5.545921	-0.977146	0.804911	-1.123823	0.042786	-0.168701	-0.054810	0.999964	-0.004886	0.004025	-0.005619	
26190	    0	4.729289	-15.893283	-6.299004	0.010681	0.643162	-0.987249	0.046305	-0.159160	-0.063148	0.999982	0.000053	0.003216	-0.004936	
26191	    0	3.712480	-12.992628	-5.611804	0.661665	0.507359	-1.118478	0.036255	-0.129944	-0.056641	0.999975	0.003308	0.002537	-0.005592	
26192	    0	2.481291	-11.815772	-2.313500	0.467876	0.338747	-1.159676	0.024088	-0.118244	-0.023453	0.999978	0.002339	0.001694	-0.005798	
26193	    0	3.067496	-11.781311	1.429893	-0.412561	0.103760	-0.901035	0.030151	-0.117920	0.014526	0.999987	-0.002063	0.000519	-0.004505	
26194	    0	3.569026	-10.883454	2.114349	-1.202973	-0.028038	-0.450137	0.035442	-0.108785	0.021803	0.999979	-0.006015	-0.000140	-0.002251	
26195	    0	3.890463	-11.618693	-0.311937	-1.199348	0.097085	-0.041199	0.038879	-0.116211	-0.002441	0.999982	-0.005997	0.000485	-0.000206	
26196	    0	3.667228	-12.626061	-0.796709	-0.702097	0.325013	0.224305	0.036801	-0.126246	-0.007584	0.999991	-0.003510	0.001625	0.001122	
26197	    0	3.365735	-11.403304	-0.523603	-0.234032	0.504304	0.511171	0.033936	-0.113953	-0.005188	0.999992	-0.001170	0.002522	0.002556	
26198	    0	3.139760	-8.890443	-1.013581	0.443270	0.576022	0.754741	0.031703	-0.088762	-0.010424	0.999986	0.002216	0.002880	0.003774	
26199	    0	2.810121	-7.396596	-1.751084	0.966654	0.541883	1.055156	0.028442	-0.073730	-0.017944	0.999970	0.004833	0.002709	0.005276	
26200	    0	3.260010	-6.301452	-2.580711	1.204891	0.434501	1.437019	0.032994	-0.062621	-0.026257	0.999953	0.006024	0.002172	0.007185	
26201	    0	4.937995	-5.258898	-2.917068	1.377136	0.290877	1.792947	0.049805	-0.051941	-0.029602	0.999934	0.006886	0.001454	0.008965	
26202	    0	7.924969	-3.810514	-3.616800	1.521723	0.126651	1.993613	0.079599	-0.037036	-0.036503	0.999921	0.007608	0.000633	0.009968	
26203	    0	12.812733	-2.211886	-6.029091	1.634263	-0.057794	2.027950	0.128357	-0.020325	-0.060425	0.999915	0.008171	-0.000289	0.010139	
26204	    0	19.377309	-0.391686	-8.486201	1.753476	-0.218588	1.946315	0.193887	-0.001287	-0.084669	0.999913	0.008767	-0.001093	0.009731	
26205	    0	27.284104	2.003872	-9.828069	1.729635	-0.181394	2.005064	0.272705	0.023621	-0.097839	0.999911	0.008648	-0.000907	0.010025	
26206	    0	32.542848	5.763609	-8.710967	1.258699	-0.208861	2.441674	0.324779	0.062149	-0.086389	0.999905	0.006293	-0.001044	0.012208	
26207	    0	29.427040	9.345126	-5.769432	0.605802	-0.518632	3.248748	0.292847	0.098389	-0.056641	0.999860	0.003029	-0.002593	0.016243	
26208	    0	26.466412	8.709438	-4.803383	0.156984	-0.879340	3.681594	0.263208	0.091986	-0.046803	0.999820	0.000785	-0.004396	0.018407	
26209	    0	28.273075	8.322387	-4.974174	0.139818	-1.211629	3.807321	0.281372	0.088623	-0.047974	0.999800	0.000699	-0.006058	0.019035	
26210	    0	29.374430	8.421660	-5.453744	0.454553	-1.471623	3.815539	0.292455	0.089925	-0.052182	0.999788	0.002273	-0.007358	0.019076	
26211	    0	28.430445	9.952582	-6.704296	0.331332	-1.750320	3.946231	0.282837	0.105225	-0.064392	0.999765	0.001657	-0.008751	0.019730	
26212	    0	28.235111	12.324789	-5.821204	0.247785	-1.915138	4.033043	0.280328	0.128984	-0.055364	0.999749	0.001239	-0.009575	0.020164	
26213	    0	25.409318	12.430747	-3.194660	0.503008	-1.795340	3.967603	0.251831	0.129395	-0.029358	0.999760	0.002515	-0.008976	0.019836	
26214	    0	22.222752	11.505720	-0.565685	1.036343	-1.574256	3.872408	0.219976	0.119352	-0.003308	0.999767	0.005181	-0.007871	0.019361	
26215	    0	20.057518	11.410781	-0.568063	1.593329	-1.278020	3.733344	0.198425	0.117859	-0.003479	0.999773	0.007966	-0.006390	0.018665	
26216	    0	17.265968	11.107950	0.084141	1.900804	-0.978537	3.460360	0.170693	0.114024	0.002754	0.999793	0.009503	-0.004892	0.017301	
26217	    0	14.378102	11.445399	0.623690	2.149331	-0.634613	3.089329	0.141968	0.116577	0.007935	0.999818	0.010746	-0.003173	0.015446	
26218	    0	10.899073	11.704786	2.025497	2.345403	-0.156793	2.738911	0.107360	0.118277	0.021722	0.999837	0.011726	-0.000784	0.013694	
26219	    0	6.161217	12.648169	4.968671	2.496656	0.191508	2.435427	0.060120	0.126587	0.051208	0.999847	0.012483	0.000957	0.012177	
26220	    0	2.184171	14.776424	5.063922	2.356633	0.400179	2.203657	0.020320	0.147384	0.052336	0.999867	0.011783	0.002001	0.011018	
26221	    0	0.533393	14.581710	5.870676	2.214332	0.631740	2.139370	0.003967	0.145203	0.060303	0.999876	0.011071	0.003159	0.010696	
26222	    0	-2.291472	13.359041	3.284401	1.379243	0.575845	2.142967	-0.024246	0.133104	0.033832	0.999914	0.006896	0.002879	0.010715	
26223	    0	-4.493626	14.846045	1.092386	0.281530	0.426683	2.155348	-0.046509	0.147949	0.011230	0.999938	0.001408	0.002133	0.010777	
26224	    0	-4.439193	14.802271	0.799706	-0.650037	0.197414	2.018776	-0.045876	0.147590	0.007562	0.999943	-0.003250	0.000987	0.010094	
26225	    0	-4.066825	14.331736	0.724883	-1.704259	0.063326	1.767775	-0.041931	0.143005	0.006042	0.999924	-0.008521	0.000317	0.008839	
26226	    0	-3.450105	12.695442	0.156739	-2.744785	-0.091938	1.455938	-0.035424	0.126704	-0.000189	0.999879	-0.013723	-0.000460	0.007279	
26227	    0	-1.674807	10.674152	1.953659	-2.381774	-0.173192	1.066620	-0.017334	0.106873	0.018250	0.999914	-0.011909	-0.000866	0.005333	
26228	    0	-0.526108	5.383571	1.630322	-1.703670	-0.728809	0.446708	-0.005440	0.053960	0.015824	0.999954	-0.008518	-0.003644	0.002234	
26229	    0	-0.221206	-0.328612	1.824083	-1.877457	-1.814322	-0.175481	-0.002380	-0.003113	0.018250	0.999914	-0.009387	-0.009071	-0.000877	
26230	    0	1.583306	-3.364889	-2.561533	-3.430653	-2.831696	-0.530478	0.016098	-0.034122	-0.024806	0.999748	-0.017152	-0.014157	-0.002652	
26231	    0	5.830955	-5.437435	-5.232608	-4.710261	-3.111496	-0.729469	0.058899	-0.055786	-0.050110	0.999595	-0.023548	-0.015555	-0.003647	
26232	    0	7.032176	-8.487612	-0.131227	-3.758036	-2.955154	-0.804598	0.069973	-0.085150	0.001322	0.999705	-0.018788	-0.014774	-0.004023	
26233	    0	4.432418	-10.407883	1.771678	-1.111654	-3.121903	-0.405903	0.043823	-0.104065	0.018982	0.999860	-0.005558	-0.015609	-0.002029	
26234	    0	4.650018	-11.153162	-10.968782	0.729015	-2.803521	0.455110	0.048288	-0.111024	-0.109425	0.999892	0.003645	-0.014017	0.002275	
26235	    0	8.384475	-17.895017	-21.125780	1.800565	-0.206569	0.666819	0.084656	-0.176758	-0.212769	0.999953	0.009003	-0.001033	0.003334	
26236	    0	7.758535	-15.798542	-12.835174	2.649442	2.234954	0.413534	0.076453	-0.156100	-0.131287	0.999847	0.013247	0.011174	0.002068	
26237	    0	3.798172	-9.433218	-3.056727	2.373802	2.223305	0.449392	0.037842	-0.093872	-0.032104	0.999865	0.011868	0.011116	0.002247	
26238	    0	1.995104	-5.207055	0.902424	2.135716	1.246486	0.625437	0.020167	-0.052099	0.008343	0.999918	0.010678	0.006232	0.003127	
26239	    0	3.406205	-1.154847	-1.400388	2.085921	0.579274	0.642409	0.034058	-0.011292	-0.014221	0.999936	0.010429	0.002896	0.003212	
26240	    0	5.359485	2.932734	-1.208186	2.471993	0.502219	0.561158	0.053482	0.029625	-0.011851	0.999916	0.012360	0.002511	0.002806	
26241	    0	6.232046	-2.403441	-7.486115	4.690418	0.340303	0.558524	0.062256	-0.022095	-0.075500	0.999720	0.023450	0.001701	0.002792	
26242	    0	13.381610	-12.344925	5.584505	4.683375	0.543265	0.983715	0.134571	-0.124045	0.052580	0.999709	0.023415	0.002716	0.004918	
26243	    0	22.484552	-12.427758	-2.551221	4.030333	-0.821746	-0.848451	0.224426	-0.124695	-0.027100	0.999779	0.020150	-0.004108	-0.004242	
26244	    0	17.784100	13.846107	-20.425586	3.408995	-1.043948	-0.284019	0.179095	0.141651	-0.200927	0.999840	0.017044	-0.005219	-0.001420	
26245	    0	9.776331	32.911944	-2.015607	1.450366	-0.887882	-0.182345	0.098145	0.329163	-0.017334	0.999963	0.007252	-0.004439	-0.000912	
26246	    0	10.508212	41.925868	-0.270128	0.004196	-0.796515	-1.103028	0.107402	0.418671	-0.002268	0.999976	0.000021	-0.003983	-0.005515	
26247	    0	10.594879	38.188395	-1.525166	-1.621115	-0.949895	-2.301110	0.110413	0.380493	-0.017822	0.999889	-0.008105	-0.004749	-0.011505	
26248	    0	15.389050	15.477160	-0.942509	-0.921488	-0.567656	-3.348905	0.156480	0.152122	-0.009688	0.999845	-0.004607	-0.002838	-0.016744	
26249	    0	23.611066	15.615505	-0.619744	-0.016595	-0.447882	-4.426177	0.239502	0.150879	-0.005676	0.999752	-0.000083	-0.002239	-0.022129	
26250	    0	25.479359	18.923788	-0.933296	0.106247	-0.260754	-4.175109	0.258681	0.183869	-0.008899	0.999781	0.000531	-0.001304	-0.020874	
26251	    0	22.438452	12.145529	0.338594	-0.360699	-0.164041	-3.569223	0.226501	0.117432	0.003357	0.999838	-0.001803	-0.000820	-0.017845	
26252	    0	26.093463	10.764068	-2.103623	-0.680967	-0.005913	-3.877699	0.262956	0.102483	-0.021383	0.999805	-0.003405	-0.000030	-0.019387	
26253	    0	28.630205	6.247127	-2.247420	-1.631307	0.084884	-4.271307	0.287537	0.056152	-0.023071	0.999738	-0.008156	0.000424	-0.021355	
26254	    0	29.142927	2.378536	-0.980286	-2.153608	0.332674	-4.335447	0.291835	0.017351	-0.010498	0.999705	-0.010767	0.001663	-0.021675	
26255	    0	27.115500	3.394134	-0.249893	-2.308696	0.601257	-4.291202	0.271790	0.028076	-0.003662	0.999699	-0.011542	0.003006	-0.021454	
26256	    0	26.221518	1.853613	1.477721	-2.269587	0.954722	-4.194292	0.262595	0.013188	0.013354	0.999704	-0.011347	0.004773	-0.020969	
26257	    0	24.658447	1.167078	1.264337	-2.381179	1.212431	-4.079842	0.246826	0.006775	0.011047	0.999702	-0.011905	0.006062	-0.020397	
26258	    0	22.398852	1.609041	-0.633698	-3.009748	1.292944	-3.984702	0.224200	0.011513	-0.007982	0.999667	-0.015047	0.006464	-0.019921	
26259	    0	20.226743	2.149769	-3.468396	-3.816519	1.264352	-3.802212	0.202393	0.016968	-0.036316	0.999617	-0.019080	0.006321	-0.019009	
26260	    0	18.419440	-0.650836	-6.480109	-4.432342	1.186918	-3.522220	0.183637	-0.011195	-0.065679	0.999581	-0.022159	0.005934	-0.017609	
26261	    0	16.587112	-5.737835	-9.664765	-4.500413	1.100495	-3.212401	0.164368	-0.062195	-0.096191	0.999602	-0.022499	0.005502	-0.016060	
26262	    0	12.785018	-12.860191	-10.940359	-3.924789	1.032176	-3.022326	0.125308	-0.132630	-0.107478	0.999680	-0.019622	0.005160	-0.015110	
26263	    0	6.811841	-18.095801	-9.518051	-2.696987	1.084975	-2.858169	0.065002	-0.183167	-0.093079	0.999792	-0.013484	0.005424	-0.014290	
26264	    0	1.940703	-17.940713	-7.217145	-1.388035	1.159716	-2.585518	0.016667	-0.180130	-0.071025	0.999875	-0.006940	0.005798	-0.012927	
26265	    0	2.251078	-16.252705	-5.579661	-0.526442	1.067570	-2.171381	0.020447	-0.162903	-0.055481	0.999923	-0.002632	0.005338	-0.010857	
26266	    0	4.627035	-15.584293	-4.940223	0.102808	0.906960	-1.796371	0.044643	-0.156223	-0.049687	0.999949	0.000514	0.004535	-0.008982	
26267	    0	4.399367	-15.036938	-5.480115	0.389294	0.661476	-1.444260	0.042725	-0.150574	-0.055237	0.999966	0.001946	0.003307	-0.007221	
26268	    0	3.761473	-12.124648	-6.871015	0.557522	0.369266	-1.202211	0.036758	-0.121277	-0.069117	0.999976	0.002788	0.001846	-0.006011	
26269	    0	3.003289	-8.520596	-5.919717	0.358774	0.250246	-1.123054	0.029480	-0.085266	-0.059387	0.999981	0.001794	0.001251	-0.005615	
26270	    0	2.004955	-7.630274	-1.834865	-0.532725	0.264551	-1.001554	0.019643	-0.076450	-0.018171	0.999983	-0.002664	0.001323	-0.005008	
26271	    0	3.376751	-9.769676	2.406330	-1.787595	0.200084	-0.706493	0.033447	-0.097595	0.024902	0.999953	-0.008938	0.001000	-0.003532	
26272	    0	5.053862	-10.114343	3.945814	-2.798746	0.096134	-0.374425	0.050369	-0.100673	0.040845	0.999900	-0.013993	0.000481	-0.001872	
26273	    0	5.394872	-11.013959	1.754283	-2.664836	0.098422	-0.115970	0.053894	-0.109924	0.018982	0.999910	-0.013324	0.000492	-0.000580	
26274	    0	4.750135	-12.433133	-0.129570	-1.851681	0.297932	0.106050	0.047566	-0.124311	-0.000216	0.999955	-0.009258	0.001490	0.000530	
26275	    0	3.589200	-12.087668	-0.600172	-1.089484	0.493053	0.320437	0.036072	-0.120850	-0.005432	0.999980	-0.005447	0.002465	0.001602	
26276	    0	2.458193	-10.886414	-1.438687	-0.380517	0.542070	0.591661	0.024865	-0.108818	-0.014247	0.999990	-0.001903	0.002710	0.002958	
26277	    0	1.713704	-9.542143	-2.448593	0.514415	0.565342	0.943762	0.017517	-0.095276	-0.024780	0.999981	0.002572	0.002827	0.004719	
26278	    0	2.826498	-8.970280	-3.105103	1.330397	0.565538	1.303884	0.028759	-0.089307	-0.031727	0.999952	0.006652	0.002828	0.006519	
26279	    0	5.086452	-8.233581	-3.590289	1.887751	0.502790	1.512184	0.051392	-0.081604	-0.036804	0.999924	0.009439	0.002514	0.007561	
26280	    0	6.512441	-5.989054	-4.242514	2.056756	0.292596	1.703314	0.065566	-0.058892	-0.043130	0.999909	0.010283	0.001463	0.008516	
26281	    0	8.856281	-2.787100	-5.252873	1.930294	0.013924	1.830346	0.088806	-0.026550	-0.052795	0.999911	0.009651	0.000070	0.009151	
26282	    0	14.478773	-0.980632	-7.095605	1.585427	-0.155262	1.812979	0.144920	-0.007931	-0.070911	0.999927	0.007927	-0.000776	0.009065	
26283	    0	20.396329	1.265338	-8.362936	1.303893	-0.218778	1.902051	0.203918	0.015137	-0.083313	0.999932	0.006519	-0.001094	0.009510	
26284	    0	26.520587	2.996735	-8.119404	1.046204	-0.244146	2.046821	0.264977	0.033103	-0.080703	0.999932	0.005231	-0.001221	0.010234	
26285	    0	30.422713	6.026536	-5.776865	0.766968	-0.342570	2.532271	0.303528	0.064331	-0.057007	0.999910	0.003835	-0.001713	0.012661	
26286	    0	28.201228	8.154299	-4.495102	0.542474	-0.595500	3.149171	0.280812	0.086091	-0.043884	0.999867	0.002712	-0.002977	0.015745	
26287	    0	27.514332	8.443051	-4.521632	0.258651	-0.888682	3.505136	0.273804	0.089294	-0.043884	0.999835	0.001293	-0.004443	0.017525	
26288	    0	29.398056	8.946275	-3.987142	0.203336	-1.211434	3.706214	0.292489	0.094932	-0.038002	0.999809	0.001017	-0.006057	0.018530	
26289	    0	28.840242	9.705887	-4.552426	0.163281	-1.509010	3.831753	0.286804	0.102600	-0.043274	0.999787	0.000816	-0.007545	0.019157	
26290	    0	27.559290	11.527594	-4.639885	-0.158895	-1.789810	4.018536	0.273604	0.120751	-0.044039	0.999758	-0.000794	-0.008948	0.020091	
26291	    0	26.341840	13.837237	-3.451149	-0.337821	-1.976188	4.143127	0.260803	0.143738	-0.032166	0.999735	-0.001689	-0.009880	0.020714	
26292	    0	23.409019	13.324888	-1.358218	-0.230236	-1.890341	4.067191	0.231432	0.137959	-0.011543	0.999747	-0.001151	-0.009451	0.020334	
26293	    0	20.411944	11.237133	0.766378	0.321222	-1.772255	3.925629	0.201782	0.116333	0.009644	0.999766	0.001606	-0.008861	0.019627	
26294	    0	18.335067	10.303178	0.792625	0.957557	-1.548113	3.692315	0.181336	0.106348	0.009839	0.999787	0.004787	-0.007740	0.018460	
26295	    0	16.817306	9.999292	1.001917	1.443574	-1.374714	3.366304	0.166382	0.102722	0.011902	0.999808	0.007217	-0.006873	0.016830	
26296	    0	14.715195	10.708505	-0.244896	1.690381	-1.027543	2.951014	0.145557	0.109252	-0.000781	0.999842	0.008451	-0.005137	0.014754	
26297	    0	9.757280	12.088082	1.946784	1.978578	-0.421924	2.503312	0.096008	0.121887	0.020874	0.999870	0.009892	-0.002110	0.012516	
26298	    0	3.522834	14.617672	4.189542	2.369218	0.106625	2.136893	0.033690	0.146032	0.043608	0.999872	0.011846	0.000533	0.010684	
26299	    0	0.242263	16.454621	4.951568	2.438460	0.484678	2.060789	0.000854	0.163940	0.051514	0.999869	0.012192	0.002423	0.010303	
26300	    0	-0.957428	13.616600	3.700475	2.006407	0.526827	1.918475	-0.010777	0.135686	0.038395	0.999900	0.010032	0.002634	0.009592	
26301	    0	-3.524619	15.481202	-0.169581	0.516518	0.419051	1.853973	-0.036682	0.154480	-0.001221	0.999951	0.002583	0.002095	0.009270	
26302	    0	-3.587133	15.752644	-0.248735	-0.548180	0.291828	1.739908	-0.037244	0.157199	-0.002865	0.999957	-0.002741	0.001459	0.008699	
26303	    0	-3.818743	13.820409	0.527698	-1.470784	0.054170	1.535063	-0.039246	0.137939	0.004272	0.999943	-0.007354	0.000271	0.007675	
26304	    0	-4.459740	9.851463	-0.005074	-2.148304	-0.192647	1.330984	-0.045251	0.098207	-0.001150	0.999919	-0.010741	-0.000963	0.006655	
26305	    0	-3.643230	9.629293	-2.192505	-1.921122	-0.554478	1.032279	-0.036865	0.095886	-0.022949	0.999936	-0.009605	-0.002772	0.005161	
26306	    0	-2.510410	7.471359	-2.895355	-1.360718	-0.828562	0.481039	-0.025162	0.074453	-0.029565	0.999965	-0.006804	-0.004143	0.002405	
26307	    0	-1.096501	1.783948	1.904293	-0.995461	-1.698331	-0.193027	-0.011108	0.017944	0.018860	0.999950	-0.004977	-0.008492	-0.000965	
26308	    0	1.992099	-3.225641	1.828867	-2.043063	-2.697507	-0.725592	0.019552	-0.032137	0.018883	0.999850	-0.010215	-0.013487	-0.003628	
26309	    0	7.810678	-7.718227	-1.061503	-3.476838	-2.949027	-0.923240	0.077881	-0.077698	-0.008118	0.999729	-0.017383	-0.014744	-0.004616	
26310	    0	12.152845	-11.525582	1.694723	-2.349006	-2.138806	-0.850716	0.120837	-0.115551	0.019598	0.999865	-0.011744	-0.010694	-0.004253	
26311	    0	8.867038	-14.618941	3.943779	0.607311	-1.957548	-0.534068	0.087891	-0.146545	0.039856	0.999944	0.003036	-0.009788	-0.002670	
26312	    0	4.953816	-11.472256	-7.484898	1.178017	-2.520643	0.098232	0.050538	-0.114257	-0.074890	0.999903	0.005890	-0.012603	0.000491	
26313	    0	8.258127	-10.017623	-21.405834	1.756507	-0.782026	0.649273	0.083740	-0.098022	-0.214600	0.999949	0.008782	-0.003910	0.003246	
26314	    0	9.652622	-12.108218	-15.461459	2.023963	2.101405	0.682475	0.095295	-0.119176	-0.156833	0.999887	0.010119	0.010507	0.003412	
26315	    0	4.965936	-9.314683	-2.776730	1.789361	2.569691	0.714142	0.049622	-0.092712	-0.029236	0.999870	0.008946	0.012848	0.003571	
26316	    0	2.540506	-7.029960	3.495588	1.852274	1.472130	0.759144	0.025926	-0.070520	0.034114	0.999923	0.009261	0.007360	0.003796	
26317	    0	3.997929	-4.407262	1.459416	1.833374	0.454147	0.678265	0.040161	-0.044067	0.014099	0.999949	0.009167	0.002271	0.003391	
26318	    0	4.547452	-2.462009	-2.402255	1.965748	-0.015641	0.543985	0.045543	-0.024259	-0.024259	0.999948	0.009829	-0.000078	0.002720	
26319	    0	5.356111	-6.245134	-10.768690	3.737294	-0.229659	0.683635	0.053894	-0.060242	-0.108765	0.999819	0.018685	-0.001148	0.003418	
26320	    0	11.719452	-9.468871	5.304518	5.042834	0.678139	1.041720	0.117864	-0.095366	0.050247	0.999662	0.025211	0.003390	0.005208	
26321	    0	16.640363	-4.165414	-2.348331	5.009999	-0.501877	-0.685956	0.166321	-0.041626	-0.024109	0.999677	0.025047	-0.002509	-0.003429	
26322	    0	13.890924	24.737453	-20.577201	3.652602	-0.921877	-0.499183	0.140465	0.250720	-0.200568	0.999819	0.018262	-0.004609	-0.002496	
26323	    0	9.329374	37.169940	-1.394466	1.273550	-0.871286	-0.414281	0.094116	0.371582	-0.011169	0.999968	0.006368	-0.004356	-0.002071	
26324	    0	9.371000	40.528563	-0.278515	0.195696	-0.878725	-1.332107	0.096416	0.404652	-0.001969	0.999968	0.000978	-0.004394	-0.006660	
26325	    0	11.861303	36.489938	-2.919143	-1.172683	-0.922239	-2.663525	0.123596	0.363098	-0.030762	0.999883	-0.005863	-0.004611	-0.013317	
26326	    0	17.259716	18.294612	-2.149442	-0.967086	-0.665324	-3.670347	0.175986	0.179632	-0.021787	0.999814	-0.004835	-0.003326	-0.018351	
26327	    0	25.301488	15.682728	-0.523000	-0.247213	-0.563668	-4.416259	0.256409	0.151184	-0.004700	0.999751	-0.001236	-0.002818	-0.022079	
26328	    0	25.808175	17.242257	-0.587176	0.147448	-0.338005	-3.987960	0.261460	0.167235	-0.005307	0.999799	0.000737	-0.001690	-0.019938	
26329	    0	22.735302	11.201332	0.560343	-0.010491	-0.175486	-3.589060	0.229309	0.107910	0.005798	0.999838	-0.000052	-0.000877	-0.017944	
26330	    0	25.679872	8.991746	-1.690445	-0.162326	-0.083738	-3.931490	0.258507	0.084833	-0.016867	0.999805	-0.000812	-0.000419	-0.019656	
26331	    0	27.664750	7.597247	-2.455251	-0.906254	-0.026705	-4.303325	0.278198	0.069885	-0.024841	0.999758	-0.004531	-0.000134	-0.021515	
26332	    0	28.467022	3.250832	-2.484828	-1.625786	0.148406	-4.454458	0.285278	0.025954	-0.025289	0.999719	-0.008128	0.000742	-0.022270	
26333	    0	27.438868	4.950960	-2.434199	-2.215822	0.354997	-4.643001	0.275391	0.042847	-0.025330	0.999667	-0.011078	0.001775	-0.023212	
26334	    0	27.071197	3.598397	-1.531298	-3.020864	0.591354	-4.609507	0.271394	0.029490	-0.016593	0.999616	-0.015102	0.002956	-0.023045	
26335	    0	26.863151	0.750460	-2.082296	-3.362546	0.816458	-4.589713	0.268616	0.000977	-0.021973	0.999586	-0.016810	0.004082	-0.022945	
26336	    0	24.586772	-0.633020	-3.917026	-3.638597	0.846030	-4.514196	0.245462	-0.012597	-0.040018	0.999571	-0.018190	0.004230	-0.022568	
26337	    0	22.129594	-2.512830	-5.983088	-4.100460	0.692090	-4.321937	0.220459	-0.031128	-0.059998	0.999550	-0.020499	0.003460	-0.021606	
26338	    0	19.539923	-8.491862	-6.217705	-4.324599	0.512771	-4.063826	0.193445	-0.090187	-0.060762	0.999557	-0.021620	0.002563	-0.020316	
26339	    0	14.899231	-13.308923	-6.994928	-3.825646	0.457056	-3.732747	0.146301	-0.137146	-0.067688	0.999640	-0.019126	0.002285	-0.018661	
26340	    0	8.309480	-16.928613	-8.083219	-2.809558	0.562713	-3.306271	0.080046	-0.171741	-0.078659	0.999761	-0.014047	0.002813	-0.016530	
26341	    0	3.571678	-17.745957	-9.042036	-2.018842	0.741043	-2.789451	0.032898	-0.178833	-0.088745	0.999845	-0.010094	0.003705	-0.013947	
26342	    0	2.794372	-18.143185	-9.697100	-1.810903	0.618385	-2.249609	0.025598	-0.182597	-0.095403	0.999890	-0.009054	0.003092	-0.011248	
26343	    0	4.113852	-16.990950	-8.054296	-1.611177	0.579085	-1.734204	0.039429	-0.170898	-0.079285	0.999926	-0.008056	0.002895	-0.008671	
26344	    0	5.338244	-16.631327	-2.261052	-1.360727	0.820366	-1.364161	0.052155	-0.166821	-0.021692	0.999945	-0.006804	0.004102	-0.006821	
26345	    0	5.894966	-17.193276	-0.110447	-0.635534	0.808914	-1.047525	0.058044	-0.172241	-0.000793	0.999972	-0.003178	0.004045	-0.005238	
26346	    0	5.542698	-11.603957	-2.201129	0.609021	0.567059	-0.957114	0.054808	-0.116235	-0.022521	0.999979	0.003045	0.002835	-0.004786	
26347	    0	2.663990	-9.341513	-0.895585	0.754552	0.226785	-0.952917	0.026184	-0.093506	-0.009338	0.999980	0.003773	0.001134	-0.004765	
26348	    0	1.029500	-10.122383	1.288664	-0.067902	-0.215340	-0.735666	0.009909	-0.101256	0.012932	0.999992	-0.000340	-0.001077	-0.003678	
26349	    0	2.956838	-9.001209	3.472158	-1.125342	-0.345423	-0.197602	0.029419	-0.089844	0.035278	0.999982	-0.005627	-0.001727	-0.000988	
26350	    0	5.451109	-7.531115	1.844515	-1.850346	-0.107767	0.258068	0.054598	-0.075066	0.019170	0.999956	-0.009252	-0.000539	0.001290	
26351	    0	5.876106	-8.045401	-0.205541	-1.950679	0.241856	0.499734	0.058960	-0.080322	-0.001343	0.999949	-0.009753	0.001209	0.002499	
26352	    0	4.760892	-9.589030	-0.693204	-1.869234	0.455674	0.710118	0.047935	-0.095780	-0.006145	0.999947	-0.009346	0.002278	0.003551	
26353	    0	3.947581	-9.214445	-1.172013	-1.334207	0.627144	0.903332	0.039856	-0.092041	-0.011230	0.999962	-0.006671	0.003136	0.004517	
26354	    0	2.922901	-8.428266	-2.013553	-0.605588	0.664335	1.120958	0.029634	-0.084178	-0.019979	0.999973	-0.003028	0.003322	0.005605	
26355	    0	2.130901	-8.121277	-2.841816	0.067139	0.536542	1.373303	0.021790	-0.081055	-0.028503	0.999972	0.000336	0.002683	0.006866	
26356	    0	2.768235	-8.555650	-3.165786	0.861180	0.367361	1.590561	0.028302	-0.085196	-0.032077	0.999957	0.004306	0.001837	0.007953	
26357	    0	4.911877	-7.841870	-3.953482	1.761672	0.251204	1.733443	0.049744	-0.077637	-0.040283	0.999923	0.008808	0.001256	0.008667	
26358	    0	7.155824	-5.694736	-4.657213	2.272497	0.126271	1.847524	0.072047	-0.055749	-0.047256	0.999892	0.011362	0.000631	0.009237	
26359	    0	10.584097	-3.340933	-5.109367	2.162435	0.016785	1.874606	0.106140	-0.031860	-0.051453	0.999897	0.010812	0.000084	0.009373	
26360	    0	15.015722	-0.816002	-7.176640	1.914653	-0.135235	1.855142	0.150269	-0.006080	-0.071730	0.999910	0.009573	-0.000676	0.009275	
26361	    0	20.307445	0.775439	-9.533344	1.689380	-0.278480	1.730389	0.203125	0.010315	-0.094971	0.999926	0.008447	-0.001392	0.008652	
26362	    0	26.820436	2.506475	-8.862779	1.202607	-0.208859	1.795423	0.268054	0.028003	-0.088185	0.999941	0.006013	-0.001044	0.008977	
26363	    0	30.801939	6.873233	-5.779841	0.679988	-0.317391	2.409427	0.307251	0.072632	-0.057068	0.999920	0.003400	-0.001587	0.012047	
26364	    0	28.527737	7.571043	-4.121059	0.506994	-0.551819	3.074011	0.284180	0.080187	-0.040226	0.999874	0.002535	-0.002759	0.015369	
26365	    0	25.690819	6.501850	-3.882421	0.512912	-0.773659	3.341079	0.255920	0.069397	-0.037659	0.999849	0.002564	-0.003868	0.016705	
26366	    0	28.141960	7.276842	-4.342095	0.868274	-1.029263	3.416063	0.280337	0.077746	-0.041646	0.999831	0.004341	-0.005146	0.017079	
26367	    0	29.910885	8.395965	-5.721458	0.902612	-1.347242	3.448695	0.297974	0.089355	-0.054810	0.999818	0.004513	-0.006736	0.017242	
26368	    0	29.274901	11.195467	-6.123385	0.596087	-1.655691	3.641186	0.291136	0.117442	-0.058475	0.999795	0.002980	-0.008278	0.018205	
26369	    0	27.184664	13.624600	-5.402753	0.563855	-1.793615	3.807354	0.269653	0.141541	-0.051208	0.999774	0.002819	-0.008967	0.019035	
26370	    0	23.968453	13.940580	-4.386060	0.928952	-1.691569	3.881758	0.237272	0.144222	-0.041184	0.999764	0.004644	-0.008457	0.019407	
26371	    0	21.490586	12.955196	-4.225763	1.281073	-1.398384	3.840931	0.212646	0.133911	-0.039917	0.999770	0.006405	-0.006991	0.019203	
26372	    0	18.875001	12.033854	-3.037062	1.548877	-1.105387	3.655502	0.186666	0.123988	-0.028384	0.999786	0.007744	-0.005527	0.018276	
26373	    0	16.913234	11.139277	-1.693795	1.984541	-0.732281	3.444906	0.167236	0.114441	-0.015198	0.999795	0.009922	-0.003661	0.017223	
26374	    0	13.358662	11.258113	-0.219157	2.345041	-0.315495	3.067590	0.131841	0.114626	-0.000647	0.999812	0.011724	-0.001577	0.015337	
26375	    0	7.577948	11.977399	1.051734	2.462900	0.097089	2.603289	0.074219	0.120605	0.011963	0.999839	0.012314	0.000485	0.013016	
26376	    0	5.041909	13.410326	1.842002	2.721928	0.582725	2.171629	0.049018	0.134375	0.020103	0.999844	0.013609	0.002913	0.010858	
26377	    0	2.471584	13.747332	2.212410	2.709526	1.013235	1.943305	0.023499	0.137390	0.023865	0.999847	0.013547	0.005066	0.009716	
26378	    0	-1.285912	15.124747	-0.651183	1.439897	1.031713	1.873640	-0.014305	0.151159	-0.005352	0.999916	0.007199	0.005158	0.009368	
26379	    0	-2.743807	14.199205	0.365909	0.755325	0.982113	1.789128	-0.028687	0.141724	0.004333	0.999940	0.003777	0.004910	0.008945	
26380	    0	-2.382153	11.600299	1.424307	0.804342	0.793851	1.612308	-0.024697	0.115747	0.014806	0.999951	0.004022	0.003969	0.008061	
26381	    0	-2.079497	10.833902	1.440617	0.544935	0.653846	1.362625	-0.021484	0.108154	0.014771	0.999968	0.002725	0.003269	0.006813	
26382	    0	-2.627976	11.860252	0.588183	-0.507550	0.469021	1.226054	-0.026993	0.118453	0.005644	0.999975	-0.002538	0.002345	0.006130	
26383	    0	-2.284633	11.197188	1.902918	-1.026736	0.337223	1.112377	-0.023438	0.111938	0.018494	0.999969	-0.005134	0.001686	0.005562	
26384	    0	-1.867534	8.791049	2.474326	-0.713924	0.301744	0.825123	-0.019001	0.087920	0.024458	0.999984	-0.003570	0.001509	0.004126	
26385	    0	-0.893185	5.197256	2.361595	-0.939946	0.112343	0.440218	-0.009033	0.052063	0.023376	0.999986	-0.004700	0.000562	0.002201	
26386	    0	0.331987	2.786623	2.982688	-1.091202	-0.781828	0.001717	0.003203	0.028028	0.029687	0.999977	-0.005456	-0.003909	0.000009	
26387	    0	1.810405	0.065105	0.405101	-2.218706	-1.856106	-0.285349	0.018066	0.000671	0.004211	0.999894	-0.011093	-0.009280	-0.001427	
26388	    0	5.290490	-4.008623	-2.915166	-4.111135	-2.703941	-0.364341	0.053211	-0.040761	-0.027600	0.999695	-0.020554	-0.013518	-0.001822	
26389	    0	8.724253	-8.156340	-2.130474	-4.662929	-3.038229	-0.468506	0.087341	-0.082214	-0.018066	0.999610	-0.023312	-0.015189	-0.002342	
26390	    0	6.435159	-11.797396	2.448983	-2.858963	-3.302648	-0.396379	0.063684	-0.117724	0.027229	0.999759	-0.014294	-0.016512	-0.001982	
26391	    0	4.296009	-9.658435	-6.486056	-0.408006	-3.738627	0.440242	0.044373	-0.096619	-0.063843	0.999821	-0.002040	-0.018692	0.002201	
26392	    0	9.595563	-12.380879	-22.233621	1.759390	-1.653147	1.090845	0.098461	-0.121319	-0.222604	0.999912	0.008797	-0.008265	0.005454	
26393	    0	12.691467	-19.500051	-20.224656	2.758364	2.114981	0.831648	0.125549	-0.191650	-0.206238	0.999840	0.013791	0.010574	0.004158	
26394	    0	7.108183	-14.051111	-5.806961	1.953811	3.132240	0.587307	0.070558	-0.139720	-0.060545	0.999825	0.009768	0.015660	0.002936	
26395	    0	0.824123	-3.062846	2.823604	1.596887	2.284510	0.688195	0.008667	-0.030823	0.027893	0.999896	0.007984	0.011422	0.003441	
26396	    0	3.192281	1.592560	4.668487	1.293201	0.934805	0.941862	0.032066	0.015775	0.046638	0.999956	0.006466	0.004674	0.004709	
26397	    0	5.862518	-0.920995	2.030424	0.486949	-0.144959	0.979619	0.058655	-0.008972	0.020325	0.999985	0.002435	-0.000725	0.004898	
26398	    0	6.689332	-7.797421	-8.306766	1.444080	-0.831047	1.279664	0.067734	-0.076941	-0.083345	0.999945	0.007220	-0.004155	0.006398	
26399	    0	16.035068	-13.022044	1.005200	4.662053	1.003562	1.621418	0.161438	-0.129089	0.006226	0.999682	0.023308	0.005017	0.008106	
26400	    0	20.646047	-8.008829	10.686503	3.716874	0.044444	0.023080	0.206493	-0.082031	0.105307	0.999826	0.018583	0.000222	0.000115	
26401	    0	10.643497	19.072629	-18.956657	2.453877	-1.049836	-0.065615	0.107483	0.192993	-0.186646	0.999910	0.012269	-0.005249	-0.000328	
26402	    0	7.622991	33.048994	-0.431809	0.827221	-0.699810	0.088120	0.076096	0.330537	-0.002685	0.999985	0.004136	-0.003499	0.000441	
26403	    0	7.768655	43.044720	-4.278562	0.113869	-0.618746	-0.596621	0.079102	0.430237	-0.042297	0.999990	0.000569	-0.003094	-0.002983	
26404	    0	9.349459	36.602910	-1.293086	-1.961781	-0.861772	-2.068215	0.097337	0.364888	-0.016100	0.999888	-0.009809	-0.004309	-0.010341	
26405	    0	14.448235	19.180996	-4.213601	-1.706598	-0.576814	-3.132800	0.147583	0.189148	-0.043335	0.999836	-0.008533	-0.002884	-0.015663	
26406	    0	25.261312	7.820128	-0.996471	-0.421558	-0.425755	-4.387451	0.254268	0.072615	-0.009582	0.999755	-0.002108	-0.002129	-0.021935	
26407	    0	26.209015	13.631106	-2.991142	1.157660	-0.253316	-4.165975	0.264893	0.130981	-0.028809	0.999765	0.005788	-0.001266	-0.020828	
26408	    0	21.403062	18.064758	-2.954092	1.176720	-0.280780	-3.764779	0.217422	0.176744	-0.028190	0.999804	0.005883	-0.001404	-0.018823	
26409	    0	22.403956	14.876156	-2.842812	1.124079	-0.125894	-3.936280	0.226929	0.144470	-0.027466	0.999790	0.005620	-0.000629	-0.019680	
26410	    0	26.509355	7.374567	-2.356016	0.935628	-0.114641	-4.239606	0.266592	0.068213	-0.023080	0.999763	0.004678	-0.000573	-0.021196	
26411	    0	27.253324	4.803161	-3.083672	0.674690	-0.125133	-4.585677	0.273560	0.041870	-0.030518	0.999731	0.003373	-0.000626	-0.022926	
26412	    0	25.898257	5.717850	-4.301027	-0.344690	-0.132382	-4.741925	0.260268	0.050943	-0.042930	0.999717	-0.001723	-0.000662	-0.023707	
26413	    0	25.247392	6.748048	-2.896858	-1.378782	0.011636	-4.925311	0.254028	0.061035	-0.029419	0.999673	-0.006893	0.000058	-0.024624	
26414	    0	24.289639	4.166704	-1.687523	-2.283186	0.271449	-4.914123	0.243795	0.035485	-0.017634	0.999632	-0.011415	0.001357	-0.024568	
26415	    0	23.807336	0.816721	-0.628606	-2.864454	0.512954	-4.830047	0.238159	0.002319	-0.006958	0.999602	-0.014320	0.002564	-0.024147	
26416	    0	21.959804	0.319755	-0.519516	-3.427618	0.670911	-4.733387	0.219571	-0.002097	-0.005926	0.999567	-0.017136	0.003354	-0.023664	
26417	    0	20.043752	0.512238	-1.244528	-4.295873	0.635634	-4.590608	0.200439	0.000244	-0.013123	0.999500	-0.021476	0.003178	-0.022949	
26418	    0	19.199895	-1.652104	-3.215671	-5.178302	0.474258	-4.364661	0.191489	-0.021536	-0.032097	0.999423	-0.025887	0.002371	-0.021819	
26419	    0	18.261774	-4.553831	-5.315165	-5.252861	0.351017	-4.113772	0.181519	-0.050659	-0.052185	0.999441	-0.026259	0.001755	-0.020565	
26420	    0	16.026134	-9.279067	-7.208487	-4.691666	0.321057	-3.920786	0.158266	-0.097567	-0.070088	0.999531	-0.023455	0.001605	-0.019601	
26421	    0	11.569807	-16.807524	-10.353456	-4.066207	0.386286	-3.600756	0.112427	-0.172180	-0.100281	0.999629	-0.020329	0.001931	-0.018002	
26422	    0	6.654961	-21.838638	-13.366210	-4.004509	0.585807	-2.880011	0.062987	-0.221931	-0.129430	0.999691	-0.020020	0.002929	-0.014399	
26423	    0	5.585616	-18.743641	-7.712145	-3.352583	0.731899	-2.111959	0.053589	-0.189270	-0.074158	0.999797	-0.016762	0.003659	-0.010559	
26424	    0	4.278321	-19.146830	-3.616017	-2.953485	0.732267	-1.614460	0.041107	-0.192312	-0.033477	0.999851	-0.014767	0.003661	-0.008072	
26425	    0	3.900477	-21.163016	-4.140565	-2.384827	0.650806	-0.917080	0.037903	-0.212280	-0.039001	0.999912	-0.011924	0.003254	-0.004585	
26426	    0	5.275035	-18.259312	-6.935657	-0.574497	0.651935	-0.786977	0.051805	-0.182997	-0.069001	0.999982	-0.002872	0.003260	-0.003935	
26427	    0	3.811324	-16.998645	-7.663542	1.042948	0.617414	-0.829323	0.037170	-0.169739	-0.077637	0.999972	0.005215	0.003087	-0.004147	
26428	    0	1.315685	-18.759734	-5.166950	1.553748	0.491149	-0.818836	0.012260	-0.187240	-0.053156	0.999958	0.007769	0.002456	-0.004094	
26429	    0	-0.837330	-17.367933	3.834516	0.300790	0.045776	-0.699617	-0.008972	-0.173706	0.038086	0.999992	0.001504	0.000229	-0.003498	
26430	    0	1.186086	-14.809517	8.058769	-0.857357	-0.654796	-0.052643	0.011557	-0.147751	0.081260	0.999985	-0.004287	-0.003274	-0.000263	
26431	    0	5.183963	-13.680784	1.198548	-0.398256	-0.743678	0.482943	0.052124	-0.136658	0.012451	0.999988	-0.001991	-0.003718	0.002415	
26432	    0	6.487160	-11.651462	-2.344721	0.625804	0.088501	0.762943	0.065305	-0.116192	-0.023840	0.999988	0.003129	0.000443	0.003815	
26433	    0	6.054084	-8.405370	-1.907443	0.953112	0.791939	0.926981	0.060852	-0.083679	-0.019714	0.999969	0.004766	0.003960	0.004635	
26434	    0	3.955355	-4.953644	-1.827143	0.749023	0.861558	1.057826	0.039735	-0.049257	-0.018627	0.999969	0.003745	0.004308	0.005289	
26435	    0	2.903929	-2.963130	-2.113106	0.135232	0.612646	1.359571	0.029175	-0.029419	-0.021240	0.999971	0.000676	0.003063	0.006798	
26436	    0	4.714226	-3.159365	-2.921706	-0.133707	0.313191	1.733612	0.047368	-0.031203	-0.029270	0.999961	-0.000669	0.001566	0.008668	
26437	    0	7.688133	-4.668513	-2.581832	0.109102	0.091745	2.001987	0.077332	-0.045898	-0.025879	0.999949	0.000546	0.000459	0.010010	
26438	    0	11.842946	-4.370355	-3.806305	0.580608	-0.120928	2.096981	0.118901	-0.042348	-0.038116	0.999940	0.002903	-0.000605	0.010485	
26439	    0	17.139623	-1.307061	-6.893865	1.277193	-0.334748	2.059988	0.171631	-0.010864	-0.068726	0.999925	0.006386	-0.001674	0.010300	
26440	    0	24.268637	1.594301	-9.012703	1.754239	-0.306710	1.930292	0.242650	0.019073	-0.089597	0.999913	0.008771	-0.001534	0.009651	
26441	    0	30.523584	5.010089	-8.626622	1.497120	-0.157170	2.106535	0.304749	0.053955	-0.085632	0.999916	0.007485	-0.000786	0.010532	
26442	    0	29.731325	8.837050	-5.893737	0.719669	-0.370993	2.832515	0.296128	0.092780	-0.058059	0.999891	0.003598	-0.001855	0.014162	
26443	    0	25.869144	8.309505	-4.078110	0.029756	-0.755160	3.526497	0.257324	0.087646	-0.039795	0.999837	0.000149	-0.003776	0.017632	
26444	    0	27.234766	7.640188	-4.031973	-0.210585	-1.131322	3.771263	0.271066	0.081480	-0.038868	0.999805	-0.001053	-0.005656	0.018855	
26445	    0	30.012307	8.499606	-4.302832	-0.150310	-1.553269	3.914169	0.298706	0.090820	-0.040771	0.999778	-0.000751	-0.007766	0.019569	
26446	    0	30.887094	9.681274	-5.614168	-0.285937	-1.946238	4.137401	0.307309	0.103104	-0.053290	0.999737	-0.001430	-0.009730	0.020685	
26447	    0	30.048063	11.406839	-6.295893	-0.453994	-2.199583	4.339268	0.298584	0.120422	-0.059937	0.999701	-0.002270	-0.010997	0.021694	
26448	    0	27.281549	11.747510	-4.570205	-0.246645	-2.253952	4.379907	0.270650	0.123364	-0.042793	0.999696	-0.001233	-0.011269	0.021897	
26449	    0	23.712311	11.143410	-3.513303	0.356517	-2.033427	4.313308	0.234985	0.116577	-0.032532	0.999714	0.001782	-0.010166	0.021564	
26450	    0	20.881303	10.054481	-2.850781	1.032154	-1.628060	4.070626	0.206927	0.104909	-0.026284	0.999746	0.005160	-0.008140	0.020351	
26451	    0	18.143111	10.065390	-2.100743	1.656658	-1.233004	3.739451	0.179626	0.104187	-0.019043	0.999771	0.008283	-0.006165	0.018696	
26452	    0	15.606395	10.664331	-1.710093	2.181212	-0.826705	3.468003	0.154247	0.109502	-0.015277	0.999782	0.010905	-0.004133	0.017339	
26453	    0	12.045340	11.768676	-0.642432	2.487542	-0.410489	3.148102	0.118591	0.119629	-0.004700	0.999796	0.012437	-0.002052	0.015739	
26454	    0	6.715022	13.483350	1.779219	2.749229	-0.049403	2.655763	0.065350	0.135448	0.019668	0.999817	0.013745	-0.000247	0.013278	
26455	    0	1.790971	15.973840	1.872616	2.462304	0.016022	2.098938	0.016235	0.159668	0.020691	0.999868	0.012311	0.000080	0.010494	
26456	    0	-0.258526	15.345037	3.379144	2.292146	0.186927	1.899599	-0.004007	0.153016	0.035550	0.999888	0.011460	0.000935	0.009498	
26457	    0	-0.177335	11.236849	1.115933	1.750992	0.296982	1.764725	-0.002747	0.112244	0.012146	0.999921	0.008755	0.001485	0.008823	
26458	    0	-1.867008	12.013491	-0.499996	0.899901	0.418860	1.641108	-0.019665	0.119997	-0.004419	0.999953	0.004499	0.002094	0.008205	
26459	    0	-3.642164	12.474221	1.679466	1.194213	0.546275	1.671632	-0.037415	0.124329	0.017639	0.999943	0.005971	0.002731	0.008358	
26460	    0	-4.276178	14.576976	1.197320	1.592479	0.414666	1.546893	-0.043860	0.145331	0.013222	0.999936	0.007962	0.002073	0.007734	
26461	    0	-3.703864	17.718729	0.421016	0.917825	0.229838	1.189434	-0.038086	0.176941	0.005066	0.999970	0.004589	0.001149	0.005947	
26462	    0	-2.918748	16.398784	0.367791	-0.787931	0.221445	0.976951	-0.029984	0.163856	0.003065	0.999979	-0.003940	0.001107	0.004885	
26463	    0	-0.246634	13.417869	1.800226	-1.996651	0.068094	0.789658	-0.002991	0.134338	0.016663	0.999942	-0.009983	0.000340	0.003948	
26464	    0	1.159583	8.845609	2.155548	-1.391614	-0.126840	0.344661	0.011430	0.088623	0.020947	0.999973	-0.006958	-0.000634	0.001723	
26465	    0	0.565698	5.861880	2.018767	-1.038367	-0.510219	-0.239564	0.005676	0.058716	0.019897	0.999982	-0.005192	-0.002551	-0.001198	
26466	    0	2.129766	3.324554	8.331932	-0.603111	-1.491184	-0.683030	0.020790	0.033425	0.083375	0.999961	-0.003016	-0.007456	-0.003415	
26467	    0	6.004712	-3.143628	6.250983	-1.859180	-2.689487	-0.735508	0.059082	-0.031067	0.063599	0.999859	-0.009295	-0.013447	-0.003677	
26468	    0	10.824758	-10.196549	1.164704	-3.336232	-2.931268	-0.628333	0.107724	-0.102074	0.014931	0.999748	-0.016680	-0.014655	-0.003141	
26469	    0	9.293411	-13.686281	-0.794288	-2.531401	-2.858151	-0.713393	0.092529	-0.137268	-0.004883	0.999811	-0.012656	-0.014290	-0.003567	
26470	    0	3.890125	-12.832940	-8.676686	-0.649478	-2.997516	-0.137907	0.040103	-0.128636	-0.085754	0.999882	-0.003247	-0.014987	-0.000690	
26471	    0	7.406205	-10.976081	-25.450707	1.937149	-1.129749	0.788898	0.075928	-0.106995	-0.255127	0.999928	0.009686	-0.005649	0.003944	
26472	    0	12.915469	-21.131719	-20.443677	3.439591	2.361285	0.857418	0.127595	-0.207193	-0.209537	0.999773	0.017197	0.011806	0.004287	
26473	    0	7.186327	-18.954193	-3.809100	2.639969	3.231482	0.795806	0.071960	-0.188721	-0.041748	0.999774	0.013199	0.016156	0.003979	
26474	    0	0.541375	-7.714915	5.386288	1.832647	2.084427	1.020087	0.006365	-0.077607	0.053090	0.999890	0.009163	0.010422	0.005100	
26475	    0	2.557421	-2.410423	4.285003	0.825511	0.674637	1.332108	0.025879	-0.024109	0.042664	0.999963	0.004128	0.003373	0.006660	
26476	    0	5.957328	-0.882946	2.434148	0.305178	-0.226786	1.329433	0.059603	-0.008471	0.024396	0.999975	0.001526	-0.001134	0.006647	
26477	    0	6.675471	-6.909070	-5.105705	3.616559	-0.129517	1.386348	0.067261	-0.067688	-0.052246	0.999812	0.018082	-0.000648	0.006931	
26478	    0	8.021085	-8.271115	9.883497	3.073643	0.265515	1.236400	0.080856	-0.083717	0.097446	0.999862	0.015368	0.001328	0.006182	
26479	    0	15.317347	5.080208	-3.543071	2.707955	-0.733973	-0.558491	0.153442	0.050842	-0.034180	0.999897	0.013539	-0.003670	-0.002792	
26480	    0	23.314166	14.603155	-17.628519	1.405348	-0.631148	-0.073815	0.233748	0.147176	-0.174517	0.999969	0.007027	-0.003156	-0.000369	
26481	    0	11.844947	29.082662	-2.474408	0.629618	-0.556185	-0.219727	0.118835	0.290771	-0.023499	0.999990	0.003148	-0.002781	-0.001099	
26482	    0	9.512468	36.642167	-5.318602	0.326159	-0.369647	-1.335728	0.097667	0.365861	-0.052410	0.999974	0.001631	-0.001848	-0.006679	
26483	    0	10.864194	33.846385	-1.049584	-0.885605	-0.598923	-2.258360	0.112488	0.337158	-0.011658	0.999922	-0.004428	-0.002995	-0.011292	
26484	    0	15.780362	14.574130	-2.423353	-0.261699	-0.365653	-3.061035	0.160053	0.143271	-0.024131	0.999880	-0.001308	-0.001828	-0.015305	
26485	    0	22.337415	13.040133	-2.111307	0.435669	-0.399618	-4.078963	0.226013	0.125854	-0.020386	0.999787	0.002178	-0.001998	-0.020393	
26486	    0	22.156902	20.360138	-4.720906	0.925707	-0.288604	-4.181992	0.225831	0.199123	-0.045957	0.999769	0.004628	-0.001443	-0.020908	
26487	    0	20.301705	20.528933	-4.713744	0.319121	-0.296804	-4.014860	0.207153	0.201233	-0.046509	0.999796	0.001595	-0.001484	-0.020073	
26488	    0	23.802413	12.618935	-1.898094	0.283261	-0.113305	-4.126843	0.240571	0.121269	-0.018671	0.999785	0.001416	-0.000566	-0.020633	
26489	    0	28.521367	4.978834	-2.541075	0.456468	-0.112162	-4.511648	0.286255	0.043396	-0.025146	0.999743	0.002282	-0.000561	-0.022556	
26490	    0	28.521724	6.037044	-5.027447	-0.216888	-0.208495	-4.957136	0.286648	0.053223	-0.050036	0.999691	-0.001084	-0.001042	-0.024783	
26491	    0	27.202304	10.225795	-5.216342	-1.656540	-0.127235	-5.095520	0.274536	0.094849	-0.052795	0.999640	-0.008282	-0.000636	-0.025475	
26492	    0	28.609604	5.741009	-2.877193	-2.841986	0.132580	-5.219847	0.287437	0.049501	-0.029703	0.999557	-0.014208	0.000663	-0.026095	
26493	    0	28.020508	1.052623	-0.641053	-3.241466	0.455736	-5.122401	0.280334	0.003235	-0.007141	0.999537	-0.016205	0.002278	-0.025608	
26494	    0	26.006111	-3.142146	0.762533	-3.394080	0.711170	-5.011953	0.259193	-0.037799	0.007308	0.999536	-0.016968	0.003555	-0.025056	
26495	    0	23.074379	-0.716733	-0.058066	-3.484120	0.773931	-4.937745	0.230469	-0.012878	-0.001282	0.999536	-0.017418	0.003869	-0.024685	
26496	    0	20.473691	0.159012	-2.827996	-4.268788	0.584128	-4.647460	0.204607	-0.003778	-0.028835	0.999497	-0.021340	0.002920	-0.023233	
26497	    0	18.581504	-5.051282	-4.761693	-4.614829	0.409766	-4.263247	0.184570	-0.055542	-0.046753	0.999504	-0.023070	0.002048	-0.021313	
26498	    0	16.075268	-12.607763	-5.653748	-4.104221	0.509522	-3.957526	0.158061	-0.130353	-0.054296	0.999590	-0.020518	0.002547	-0.019785	
26499	    0	11.437495	-16.699924	-9.210253	-3.592292	0.634259	-3.403826	0.111206	-0.170532	-0.089417	0.999688	-0.017960	0.003171	-0.017017	
26500	    0	7.628269	-19.776538	-11.050725	-4.254789	0.664972	-2.590071	0.073335	-0.201022	-0.106501	0.999684	-0.021272	0.003325	-0.012949	
26501	    0	6.069292	-17.455979	-5.474809	-4.135497	0.722758	-1.896072	0.058838	-0.176208	-0.051331	0.999734	-0.020676	0.003613	-0.009480	
26502	    0	4.253005	-23.170591	-4.130785	-4.018323	0.464284	-1.309684	0.040919	-0.232746	-0.036735	0.999774	-0.020090	0.002321	-0.006548	
26503	    0	3.841293	-23.111099	-5.304869	-3.222613	0.332657	-0.683625	0.037537	-0.232056	-0.049377	0.999863	-0.016112	0.001663	-0.003418	
26504	    0	4.498471	-17.631786	-5.933391	-1.230442	0.609976	-0.563817	0.044308	-0.176805	-0.058383	0.999972	-0.006152	0.003050	-0.002819	
26505	    0	3.300304	-14.376599	-5.535711	0.672917	0.789838	-0.604252	0.032349	-0.143677	-0.055969	0.999982	0.003365	0.003949	-0.003021	
26506	    0	1.247943	-15.372842	-0.822723	0.576785	0.521471	-0.610736	0.011988	-0.153741	-0.008702	0.999988	0.002884	0.002607	-0.003054	
26507	    0	0.162216	-14.640145	5.559975	-0.587274	-0.135804	-0.413514	0.001282	-0.146240	0.056030	0.999992	-0.002936	-0.000679	-0.002068	
26508	    0	2.532075	-14.231749	3.872936	-0.773814	-0.584032	0.044441	0.025238	-0.142160	0.039353	0.999988	-0.003869	-0.002920	0.000222	
26509	    0	5.184884	-12.498721	-2.523398	0.076485	-0.285340	0.382996	0.052124	-0.124878	-0.025208	0.999996	0.000382	-0.001427	0.001915	
26510	    0	5.406473	-10.475078	-3.099055	0.696948	0.344469	0.590136	0.054319	-0.104482	-0.031448	0.999988	0.003485	0.001722	0.002951	
26511	    0	4.627631	-7.679523	-1.882143	0.727278	0.805670	0.807959	0.046509	-0.076538	-0.019287	0.999977	0.003636	0.004028	0.004040	
26512	    0	3.272823	-5.382311	-0.959116	0.412372	0.857361	1.075754	0.032975	-0.053626	-0.009843	0.999973	0.002062	0.004287	0.005379	
26513	    0	2.357855	-4.741913	-1.938725	0.042153	0.614173	1.462570	0.023865	-0.047241	-0.019470	0.999968	0.000211	0.003071	0.007313	
26514	    0	3.003770	-6.082783	-2.805378	0.159838	0.424964	1.858930	0.030541	-0.060523	-0.028167	0.999953	0.000799	0.002125	0.009295	
26515	    0	5.010358	-6.777940	-2.695538	0.755517	0.288397	2.128647	0.050781	-0.067139	-0.027283	0.999935	0.003778	0.001442	0.010643	
26516	    0	8.208329	-5.878878	-3.407967	1.345482	0.193220	2.226320	0.082696	-0.057639	-0.034550	0.999914	0.006727	0.000966	0.011131	
26517	    0	13.195884	-2.595383	-5.972504	1.786291	0.079348	2.167582	0.132202	-0.023987	-0.059998	0.999901	0.008931	0.000397	0.010838	
26518	    0	20.086611	0.168882	-8.931652	2.107696	-0.065997	2.035786	0.200858	0.004674	-0.089211	0.999892	0.010538	-0.000330	0.010179	
26519	    0	28.646544	2.792204	-10.072513	1.957194	-0.059511	1.979129	0.286194	0.031738	-0.100342	0.999903	0.009786	-0.000298	0.009895	
26520	    0	33.499782	6.482764	-8.503073	1.136051	-0.145917	2.445867	0.334229	0.069399	-0.084401	0.999908	0.005680	-0.000730	0.012229	
26521	    0	28.353515	9.115890	-4.667005	0.006867	-0.543810	3.301393	0.282104	0.095825	-0.045898	0.999860	0.000034	-0.002719	0.016506	
26522	    0	24.107939	7.555566	-3.485771	-0.637286	-0.957741	3.752186	0.239771	0.079953	-0.033957	0.999807	-0.003186	-0.004788	0.018760	
26523	    0	26.901971	7.369149	-3.849523	-0.612495	-1.391705	3.937823	0.267761	0.078857	-0.036865	0.999777	-0.003062	-0.006958	0.019688	
26524	    0	29.340966	7.935066	-4.396732	-0.085647	-1.783892	3.949093	0.292144	0.085110	-0.041393	0.999764	-0.000428	-0.008919	0.019744	
26525	    0	29.811161	9.036591	-6.169363	0.263427	-1.960916	3.989740	0.296814	0.096375	-0.058655	0.999752	0.001317	-0.009804	0.019947	
26526	    0	29.316652	10.656823	-6.937671	0.404202	-2.078236	4.031720	0.291636	0.112594	-0.066117	0.999741	0.002021	-0.010390	0.020157	
26527	    0	26.644172	11.856765	-5.518202	0.741069	-2.148625	3.966105	0.264587	0.124023	-0.051880	0.999739	0.003705	-0.010742	0.019829	
26528	    0	23.461160	12.518710	-4.632291	1.417851	-1.862492	3.830659	0.232565	0.129969	-0.043241	0.999747	0.007089	-0.009312	0.019152	
26529	    0	20.015542	12.396507	-4.214094	1.975406	-1.470110	3.586861	0.198181	0.127930	-0.039429	0.999763	0.009876	-0.007350	0.017933	
26530	    0	16.256103	12.754214	-3.339958	2.252932	-1.048545	3.339436	0.160564	0.130593	-0.031095	0.999783	0.011264	-0.005242	0.016696	
26531	    0	13.331508	13.186728	-2.006924	2.319678	-0.690505	3.138175	0.131287	0.134155	-0.018066	0.999804	0.011598	-0.003452	0.015690	
26532	    0	10.232505	14.066935	-0.386367	2.353611	-0.397514	2.819794	0.100333	0.142124	-0.001996	0.999829	0.011767	-0.001987	0.014098	
26533	    0	5.284150	14.886582	2.316594	2.446291	-0.135810	2.332417	0.051086	0.149170	0.025024	0.999857	0.012231	-0.000679	0.011662	
26534	    0	1.023075	15.470319	3.213394	2.342504	0.050165	1.904178	0.008768	0.154401	0.033941	0.999886	0.011712	0.000251	0.009521	
26535	    0	-0.329112	15.083768	3.470161	2.295003	0.432793	1.731171	-0.004517	0.150391	0.036438	0.999894	0.011475	0.002164	0.008656	
26536	    0	-1.841868	12.330796	4.116880	2.384278	0.757056	1.727934	-0.019320	0.122641	0.042706	0.999884	0.011921	0.003785	0.008639	
26537	    0	-3.891059	13.084951	1.943238	1.892147	0.737212	1.750998	-0.039978	0.130310	0.020813	0.999909	0.009460	0.003686	0.008755	
26538	    0	-3.675010	14.927508	1.330359	1.501497	0.641646	1.556811	-0.037865	0.148877	0.014543	0.999936	0.007507	0.003208	0.007784	
26539	    0	-3.933744	16.754764	1.727767	0.693709	0.431065	1.248943	-0.040344	0.167236	0.017944	0.999971	0.003469	0.002155	0.006245	
26540	    0	-3.697916	14.200638	1.182692	-0.897796	0.277712	1.055345	-0.037712	0.141860	0.011242	0.999974	-0.004489	0.001389	0.005277	
26541	    0	-1.337496	11.698129	2.654353	-1.579879	0.234989	0.872052	-0.013855	0.117126	0.025635	0.999958	-0.007899	0.001175	0.004360	
26542	    0	0.392137	6.924675	4.308353	-0.816158	0.174905	0.445940	0.003804	0.069430	0.042797	0.999989	-0.004081	0.000875	0.002230	
26543	    0	0.550915	3.191374	3.880120	-0.698664	-0.250245	-0.202942	0.005493	0.032043	0.038696	0.999992	-0.003493	-0.001251	-0.001015	
26544	    0	1.477052	1.211838	5.621611	-0.712974	-1.254858	-0.671966	0.014459	0.012270	0.056264	0.999968	-0.003565	-0.006274	-0.003360	
26545	    0	4.158078	-2.965242	0.144457	-2.425321	-2.478157	-0.758402	0.041443	-0.029785	0.002319	0.999842	-0.012126	-0.012390	-0.003792	
26546	    0	9.064017	-7.668944	-3.432611	-4.381710	-3.028473	-0.814727	0.090814	-0.077766	-0.031256	0.999637	-0.021906	-0.015141	-0.004073	
26547	    0	9.180763	-11.031383	-1.243863	-3.838759	-3.195342	-0.860688	0.091492	-0.110901	-0.008850	0.999679	-0.019192	-0.015975	-0.004303	
26548	    0	5.168891	-12.000891	-4.627528	-1.444332	-3.529000	-0.245681	0.052337	-0.120399	-0.044487	0.999817	-0.007221	-0.017644	-0.001228	
26549	    0	8.907833	-13.261867	-20.636380	0.782793	-1.951451	0.888081	0.091675	-0.131409	-0.205994	0.999934	0.003914	-0.009757	0.004440	
26550	    0	13.046800	-22.963802	-21.363837	2.798406	1.720702	0.896116	0.129623	-0.226027	-0.217936	0.999855	0.013991	0.008603	0.004480	
26551	    0	7.451261	-19.068779	-7.201510	3.026853	3.469588	0.607354	0.073792	-0.189331	-0.076172	0.999730	0.015133	0.017346	0.003036	
26552	    0	0.071761	-6.160439	3.864207	2.467482	2.550457	0.803229	0.001452	-0.062070	0.037863	0.999834	0.012337	0.012752	0.004016	
26553	    0	0.978550	-0.601295	4.265736	1.825187	1.181822	1.080349	0.010071	-0.006348	0.042542	0.999926	0.009126	0.005909	0.005402	
26554	    0	6.129041	0.868088	5.181049	1.430913	0.494773	1.056114	0.061373	0.008635	0.051721	0.999957	0.007154	0.002474	0.005280	
26555	    0	5.142717	-3.522329	-0.033902	2.184544	-0.431072	1.184876	0.051636	-0.034912	-0.000610	0.999920	0.010922	-0.002155	0.005924	
26556	    0	9.158368	-12.615436	-2.926733	4.415336	-0.208683	1.418432	0.092505	-0.124815	-0.031937	0.999730	0.022075	-0.001043	0.007092	
26557	    0	22.901708	-9.813361	7.152215	2.607039	-0.280579	0.051118	0.228943	-0.098999	0.070557	0.999913	0.013035	-0.001403	0.000256	
26558	    0	21.123843	13.471695	-17.353686	2.595799	-1.001964	-0.662826	0.212548	0.136242	-0.170712	0.999897	0.012979	-0.005010	-0.003314	
26559	    0	8.063736	40.250690	-6.806144	1.201829	-0.524906	0.273134	0.080261	0.403015	-0.065430	0.999977	0.006009	-0.002625	0.001366	
26560	    0	8.822384	38.496661	-5.939309	0.304604	-0.545503	-0.518037	0.089381	0.384826	-0.058564	0.999991	0.001523	-0.002728	-0.002590	
26561	    0	11.033135	35.347962	-3.547131	-1.157981	-0.714892	-2.049307	0.114075	0.352112	-0.037109	0.999924	-0.005790	-0.003574	-0.010246	
26562	    0	12.543747	20.251209	-3.291101	-0.952000	-0.603321	-3.059523	0.128614	0.200402	-0.033484	0.999866	-0.004760	-0.003016	-0.015297	
26563	    0	23.315483	10.665338	-0.731094	0.067907	-0.478973	-4.340708	0.235413	0.101562	-0.006714	0.999761	0.000340	-0.002395	-0.021702	
26564	    0	26.232275	21.562913	-2.001297	0.400767	-0.383791	-4.440678	0.267061	0.209773	-0.019079	0.999749	0.002004	-0.001919	-0.022202	
26565	    0	20.867177	18.875837	0.513600	-0.167856	-0.197422	-3.685207	0.212097	0.184875	0.005188	0.999829	-0.000839	-0.000987	-0.018425	
26566	    0	22.797954	12.033121	-1.665963	-0.227368	-0.036623	-3.594784	0.230096	0.116189	-0.016751	0.999837	-0.001137	-0.000183	-0.017973	
26567	    0	27.430749	9.908531	-2.379218	-0.872869	-0.027277	-4.193436	0.276306	0.093201	-0.024170	0.999770	-0.004364	-0.000136	-0.020966	
26568	    0	30.031936	1.949442	-3.215961	-1.522210	0.071914	-4.551752	0.300644	0.012408	-0.032380	0.999712	-0.007610	0.000360	-0.022757	
26569	    0	28.591657	0.758545	-3.540610	-2.054635	0.189230	-4.750592	0.285950	0.000427	-0.035706	0.999664	-0.010272	0.000946	-0.023750	
26570	    0	25.724178	2.183298	-2.363776	-2.740824	0.368165	-4.753712	0.257614	0.015382	-0.024352	0.999621	-0.013702	0.001841	-0.023766	
26571	    0	25.311407	-0.852615	-0.437278	-2.823801	0.687494	-4.642304	0.252808	-0.014465	-0.005066	0.999624	-0.014117	0.003437	-0.023209	
26572	    0	23.033344	-2.787487	0.112817	-2.905253	0.846777	-4.547685	0.229624	-0.033091	0.000610	0.999626	-0.014524	0.004233	-0.022736	
26573	    0	20.311998	-2.115081	-0.389373	-3.223061	0.877681	-4.355405	0.202576	-0.025635	-0.004395	0.999623	-0.016113	0.004388	-0.021774	
26574	    0	18.126471	-1.670576	-2.049924	-3.658959	0.764374	-4.135095	0.180783	-0.020826	-0.020835	0.999611	-0.018292	0.003821	-0.020673	
26575	    0	17.194323	-3.203192	-4.538528	-3.957879	0.548815	-3.882338	0.171143	-0.036255	-0.045166	0.999612	-0.019787	0.002744	-0.019409	
26576	    0	16.469662	-7.015730	-6.450150	-3.763057	0.389525	-3.628383	0.163249	-0.074328	-0.063448	0.999656	-0.018813	0.001947	-0.018140	
26577	    0	12.883462	-14.766618	-7.601534	-3.124328	0.473828	-3.414462	0.126099	-0.151001	-0.073975	0.999729	-0.015620	0.002369	-0.017071	
26578	    0	7.195235	-20.051156	-8.904332	-2.355715	0.520737	-2.898960	0.068798	-0.202556	-0.086847	0.999822	-0.011778	0.002604	-0.014494	
26579	    0	3.731982	-19.813048	-10.612516	-2.154436	0.476093	-2.167597	0.034912	-0.199646	-0.104065	0.999880	-0.010772	0.002380	-0.010838	
26580	    0	3.897856	-17.978497	-6.566583	-2.305109	0.541324	-1.580292	0.037378	-0.180826	-0.063688	0.999898	-0.011525	0.002707	-0.007901	
26581	    0	4.845931	-18.294918	-0.721823	-1.942490	0.737971	-1.171903	0.047363	-0.183289	-0.005615	0.999928	-0.009712	0.003690	-0.005859	
26582	    0	5.762158	-15.863478	-1.222201	-0.686269	0.566868	-0.895888	0.056876	-0.158932	-0.011839	0.999980	-0.003431	0.002834	-0.004479	
26583	    0	5.512232	-11.910743	-3.767602	0.774579	0.480655	-0.883490	0.054504	-0.119202	-0.038269	0.999979	0.003873	0.002403	-0.004417	
26584	    0	2.741228	-12.053037	-3.856090	1.115810	0.397305	-0.941286	0.026768	-0.120440	-0.039287	0.999971	0.005579	0.001987	-0.004706	
26585	    0	-1.095902	-10.742093	1.166538	-0.098420	0.009346	-0.961307	-0.011475	-0.107361	0.011719	0.999988	-0.000492	0.000047	-0.004807	
26586	    0	-0.284534	-8.953763	6.282856	-1.404967	-0.425724	-0.445180	-0.003179	-0.089087	0.063449	0.999970	-0.007025	-0.002129	-0.002226	
26587	    0	4.325660	-10.450391	3.210662	-1.878197	-0.542459	0.321203	0.043335	-0.104126	0.033203	0.999950	-0.009391	-0.002712	0.001606	
26588	    0	5.562270	-12.077250	-1.202150	-1.196108	0.001526	0.650220	0.056015	-0.120660	-0.011300	0.999976	-0.005980	0.000008	0.003251	
26589	    0	3.806749	-12.504183	-1.243278	-0.703243	0.477603	0.759892	0.038513	-0.124939	-0.012085	0.999983	-0.003516	0.002388	0.003799	
26590	    0	2.475156	-10.168717	-0.710835	-0.486568	0.628857	0.925642	0.025200	-0.101588	-0.006940	0.999981	-0.002433	0.003144	0.004628	
26591	    0	2.054405	-7.477282	-2.123843	-0.008965	0.636297	1.228342	0.020935	-0.074646	-0.021301	0.999975	-0.000045	0.003181	0.006142	
26592	    0	2.256308	-6.503619	-3.447904	0.322346	0.563247	1.602384	0.022985	-0.064797	-0.034648	0.999962	0.001612	0.002816	0.008012	
26593	    0	4.085639	-6.851256	-3.637556	0.676930	0.367743	1.918064	0.041443	-0.067993	-0.036682	0.999947	0.003385	0.001839	0.009590	
26594	    0	7.535906	-6.580059	-3.738269	1.271279	0.169567	2.070287	0.076001	-0.064776	-0.037861	0.999926	0.006356	0.000848	0.010351	
26595	    0	11.493702	-3.570143	-5.000267	1.798308	0.070384	2.175976	0.115295	-0.033997	-0.050354	0.999900	0.008991	0.000352	0.010880	
26596	    0	16.585779	-0.553168	-6.967193	2.024921	-0.086788	2.308364	0.165932	-0.002912	-0.069638	0.999882	0.010124	-0.000434	0.011541	
26597	    0	24.409924	1.005181	-9.345025	1.826727	-0.362408	2.069159	0.244141	0.013428	-0.092896	0.999903	0.009133	-0.001812	0.010345	
26598	    0	31.830712	3.000998	-9.798054	1.431882	-0.393114	1.929331	0.318185	0.033777	-0.097122	0.999926	0.007159	-0.001966	0.009646	
26599	    0	32.589985	8.370425	-6.804601	0.563259	-0.557728	2.758121	0.324890	0.088379	-0.066895	0.999897	0.002816	-0.002789	0.013790	
26600	    0	27.513292	8.887895	-4.086352	-0.180635	-0.844237	3.458397	0.273711	0.093584	-0.039789	0.999841	-0.000903	-0.004221	0.017291	
26601	    0	26.710790	8.061711	-3.410768	-0.410297	-1.221545	3.727201	0.265747	0.085510	-0.032654	0.999805	-0.002051	-0.006107	0.018635	
26602	    0	28.374505	8.047838	-3.560697	-0.067525	-1.628611	3.805814	0.282423	0.085850	-0.033332	0.999785	-0.000338	-0.008142	0.019028	
26603	    0	28.225094	8.945974	-4.801375	0.173392	-1.923521	3.889008	0.280884	0.094971	-0.045227	0.999763	0.000867	-0.009617	0.019444	
26604	    0	27.811207	9.853413	-5.662878	0.037769	-2.144616	3.996047	0.276655	0.104082	-0.053638	0.999743	0.000189	-0.010722	0.019979	
26605	    0	26.368760	11.448763	-4.726362	0.085457	-2.257545	3.995865	0.261841	0.119751	-0.044250	0.999736	0.000427	-0.011287	0.019978	
26606	    0	23.380999	12.281946	-3.139619	0.670106	-2.037023	3.863649	0.231679	0.127408	-0.028607	0.999756	0.003350	-0.010184	0.019317	
26607	    0	20.304396	11.644815	-1.922888	1.450650	-1.628238	3.693673	0.200989	0.120300	-0.016724	0.999769	0.007253	-0.008141	0.018467	
26608	    0	17.685492	11.045768	-1.644561	1.982069	-1.266952	3.426417	0.175021	0.113615	-0.014217	0.999784	0.009910	-0.006334	0.017131	
26609	    0	15.007672	10.972173	-1.571363	2.308046	-0.851307	3.162596	0.148376	0.112244	-0.013794	0.999799	0.011539	-0.004256	0.015812	
26610	    0	11.860768	11.961359	-0.148313	2.541698	-0.370621	2.851089	0.116887	0.121292	0.000269	0.999815	0.012708	-0.001853	0.014255	
26611	    0	6.518444	13.733673	2.253377	2.906399	-0.007630	2.391956	0.063538	0.137756	0.024536	0.999823	0.014531	-0.000038	0.011959	
26612	    0	1.900333	16.176339	2.069904	2.892644	0.238431	1.999959	0.017413	0.161621	0.023016	0.999845	0.014462	0.001192	0.009999	
26613	    0	1.191583	14.829251	3.392828	2.853532	0.532748	1.795284	0.010681	0.147888	0.036011	0.999854	0.014267	0.002664	0.008976	
26614	    0	-1.220006	14.719857	0.413647	2.043407	0.625439	1.734025	-0.013459	0.147033	0.005680	0.999905	0.010217	0.003127	0.008670	
26615	    0	-2.884611	16.223834	-0.078217	1.351195	0.769251	1.686133	-0.030212	0.161987	0.000427	0.999934	0.006756	0.003846	0.008430	
26616	    0	-3.452659	18.822863	1.543489	0.908293	0.656710	1.535630	-0.035917	0.187883	0.016405	0.999954	0.004541	0.003284	0.007678	
26617	    0	-2.993260	18.096981	2.611064	-0.081444	0.561528	1.268016	-0.031006	0.180786	0.026123	0.999975	-0.000407	0.002808	0.006340	
26618	    0	-2.538066	15.836903	2.240673	-1.639393	0.362593	1.069850	-0.026189	0.158407	0.021155	0.999950	-0.008197	0.001813	0.005349	
26619	    0	-1.350931	12.250753	3.549539	-1.658654	0.097848	0.790416	-0.013977	0.122742	0.034485	0.999957	-0.008293	0.000489	0.003952	
26620	    0	-1.472709	6.557546	1.756087	-0.863842	-0.383379	0.173379	-0.014817	0.065638	0.017249	0.999988	-0.004319	-0.001917	0.000867	
26621	    0	-1.856372	1.137652	4.566888	-0.493626	-1.157197	-0.498203	-0.018799	0.011536	0.045532	0.999976	-0.002468	-0.005786	-0.002491	
26622	    0	0.452378	-2.416480	4.170379	-1.212155	-2.106346	-1.021415	0.003961	-0.023932	0.041893	0.999912	-0.006061	-0.010531	-0.005107	
26623	    0	5.831778	-6.004138	-0.568848	-2.870182	-2.523975	-1.301663	0.057983	-0.060486	-0.004089	0.999796	-0.014350	-0.012619	-0.006508	
26624	    0	10.765589	-7.512277	-1.665131	-3.096044	-2.401909	-1.485361	0.107273	-0.076153	-0.014188	0.999780	-0.015479	-0.012009	-0.007426	
26625	    0	9.425997	-8.689982	0.848031	-1.419691	-2.200397	-1.346637	0.093567	-0.087463	0.010132	0.999891	-0.007098	-0.011002	-0.006733	
26626	    0	5.684558	-9.617295	-2.582949	0.431072	-2.495642	-0.240905	0.057048	-0.096187	-0.025326	0.999919	0.002155	-0.012478	-0.001204	
26627	    0	10.993391	-17.442015	-20.581539	1.190206	-1.421953	0.834670	0.112122	-0.172729	-0.206055	0.999948	0.005951	-0.007110	0.004173	
26628	    0	12.755270	-22.893137	-21.239084	1.837403	1.664783	0.934628	0.126829	-0.226367	-0.215536	0.999911	0.009187	0.008324	0.004673	
26629	    0	4.549733	-15.036911	-3.543013	1.915272	2.942816	0.769084	0.045532	-0.149841	-0.037537	0.999838	0.009576	0.014713	0.003845	
26630	    0	0.692324	-7.822603	7.164040	1.744323	1.816042	0.965911	0.007949	-0.078810	0.070886	0.999908	0.008721	0.009080	0.004829	
26631	    0	4.257987	-6.121298	1.576533	1.147663	0.442509	0.960551	0.042908	-0.061096	0.015320	0.999969	0.005738	0.002213	0.004803	
26632	    0	5.890121	-6.316845	-4.469294	1.593805	-0.287060	1.061075	0.059299	-0.062496	-0.045108	0.999952	0.007969	-0.001435	0.005305	
26633	    0	10.191143	-4.463671	-1.723650	4.881058	0.605268	1.442876	0.102173	-0.043457	-0.018616	0.999671	0.024403	0.003026	0.007214	
26634	    0	12.201325	-3.266106	14.570613	4.020791	-0.020792	1.086695	0.122184	-0.034918	0.145032	0.999783	0.020103	-0.000104	0.005433	
26635	    0	12.311414	19.172131	-19.748478	3.012980	-0.968785	-0.720246	0.124756	0.194214	-0.193970	0.999867	0.015064	-0.004844	-0.003601	
26636	    0	11.537367	40.163336	-6.598826	-0.519374	-0.962453	-0.229646	0.116154	0.401328	-0.066473	0.999984	-0.002597	-0.004812	-0.001148	
26637	    0	12.317127	37.137308	-2.693971	-0.886543	-0.620847	-0.840766	0.124817	0.370728	-0.028198	0.999976	-0.004433	-0.003104	-0.004204	
26638	    0	15.086670	30.035897	-0.796228	-1.356169	-0.483719	-2.397615	0.154474	0.298460	-0.009620	0.999902	-0.006781	-0.002419	-0.011988	
26639	    0	17.044459	23.954316	-1.955101	-1.113951	-0.493458	-3.372373	0.174500	0.236511	-0.020447	0.999839	-0.005569	-0.002467	-0.016861	
26640	    0	22.433523	10.118236	-1.004690	0.171101	-0.201048	-4.014095	0.226315	0.096662	-0.009736	0.999797	0.000855	-0.001005	-0.020069	
26641	    0	25.269679	18.141901	-1.019103	0.262468	-0.198187	-3.952285	0.256226	0.176392	-0.009705	0.999803	0.001312	-0.000991	-0.019760	
26642	    0	21.351802	16.425114	-2.035158	-0.858926	-0.110823	-3.533749	0.216386	0.160356	-0.020926	0.999834	-0.004294	-0.000554	-0.017668	
26643	    0	23.679422	9.201285	-4.768781	-1.651114	-0.119599	-3.695931	0.238464	0.087219	-0.048279	0.999795	-0.008255	-0.000598	-0.018478	
26644	    0	28.309120	4.288765	-5.234023	-1.913813	0.029757	-4.210847	0.283895	0.036412	-0.052752	0.999732	-0.009568	0.000149	-0.021052	
26645	    0	28.121813	-0.241763	-4.346193	-1.831045	0.258662	-4.509418	0.281006	-0.009155	-0.043762	0.999702	-0.009154	0.001293	-0.022545	
26646	    0	26.954649	0.994383	-2.755817	-1.853754	0.456667	-4.615882	0.269612	0.003462	-0.028226	0.999688	-0.009268	0.002283	-0.023077	
26647	    0	25.756657	1.628971	-0.855032	-1.654220	0.769312	-4.576574	0.257812	0.010315	-0.009644	0.999696	-0.008270	0.003846	-0.022881	
26648	    0	24.269854	0.553609	-0.248634	-1.519929	0.955869	-4.583440	0.242724	-0.000051	-0.003660	0.999697	-0.007599	0.004779	-0.022915	
26649	    0	21.892642	1.841100	-0.482708	-1.966300	0.973803	-4.497234	0.219238	0.013428	-0.006042	0.999686	-0.009830	0.004869	-0.022484	
26650	    0	20.040124	0.570933	-1.928209	-2.789053	0.775807	-4.367374	0.200381	0.001057	-0.020096	0.999657	-0.013944	0.003879	-0.021834	
26651	    0	18.331616	-2.479963	-4.347948	-3.515307	0.511425	-4.216537	0.182617	-0.029419	-0.043457	0.999619	-0.017574	0.002557	-0.021080	
26652	    0	15.429339	-7.870042	-6.713797	-3.853715	0.354621	-3.933452	0.152572	-0.082990	-0.065838	0.999619	-0.019266	0.001773	-0.019665	
26653	    0	11.285714	-14.990947	-8.243763	-3.528205	0.366440	-3.579328	0.109985	-0.153320	-0.079956	0.999682	-0.017639	0.001832	-0.017895	
26654	    0	6.644380	-18.098728	-8.300004	-2.773869	0.618789	-3.078495	0.063384	-0.183108	-0.080669	0.999780	-0.013868	0.003094	-0.015391	
26655	    0	4.382205	-17.658265	-6.041095	-2.385642	0.836987	-2.403381	0.041443	-0.177795	-0.058472	0.999847	-0.011928	0.004185	-0.012016	
26656	    0	4.673883	-17.776154	-4.535332	-1.829584	0.812364	-1.803643	0.044950	-0.178578	-0.043907	0.999908	-0.009148	0.004062	-0.009018	
26657	    0	4.803821	-18.015997	-4.955356	-1.024450	0.586708	-1.332110	0.046692	-0.180725	-0.048767	0.999960	-0.005122	0.002934	-0.006660	
26658	    0	4.760731	-16.082459	-4.587594	-0.491527	0.424387	-0.971418	0.046728	-0.161165	-0.045580	0.999983	-0.002458	0.002122	-0.004857	
26659	    0	4.908235	-11.112377	-4.939513	0.324251	0.440409	-0.919346	0.048462	-0.111267	-0.049683	0.999986	0.001621	0.002202	-0.004597	
26660	    0	2.888534	-8.995379	-2.890675	0.350191	0.433161	-1.022345	0.028362	-0.090049	-0.029126	0.999983	0.001751	0.002166	-0.005112	
26661	    0	1.029799	-10.397757	0.635263	-0.584224	0.071717	-0.910954	0.009827	-0.104004	0.006653	0.999985	-0.002921	0.000359	-0.004555	
26662	    0	1.272019	-12.577342	2.635715	-1.458945	-0.248911	-0.432400	0.012415	-0.125604	0.027289	0.999969	-0.007295	-0.001245	-0.002162	
26663	    0	3.133380	-11.946040	0.759303	-1.547829	-0.177004	0.076295	0.031372	-0.119385	0.008545	0.999969	-0.007739	-0.000885	0.000381	
26664	    0	4.715182	-12.464782	-1.359459	-0.636293	0.196648	0.368119	0.047368	-0.124603	-0.013245	0.999992	-0.003181	0.000983	0.001841	
26665	    0	4.263833	-12.304008	-0.396407	-0.148011	0.439645	0.551606	0.042969	-0.122925	-0.003967	0.999993	-0.000740	0.002198	0.002758	
26666	    0	3.544202	-9.645522	0.096080	-0.001717	0.515176	0.698473	0.035781	-0.096331	0.000870	0.999990	-0.000009	0.002576	0.003492	
26667	    0	2.635310	-7.149193	-1.176309	0.197602	0.513652	0.979619	0.026672	-0.071350	-0.011902	0.999984	0.000988	0.002568	0.004898	
26668	    0	2.588915	-6.921786	-2.464003	0.489431	0.501829	1.396193	0.026309	-0.068974	-0.024875	0.999969	0.002447	0.002509	0.006981	
26669	    0	4.482876	-7.792932	-2.520382	1.015491	0.433548	1.799045	0.045471	-0.077393	-0.025696	0.999944	0.005077	0.002168	0.008995	
26670	    0	6.946728	-7.171359	-2.825076	1.829016	0.320636	2.073927	0.070158	-0.070725	-0.029013	0.999903	0.009145	0.001603	0.010369	
26671	    0	9.882121	-4.936132	-3.779514	2.280520	0.213060	2.166075	0.099304	-0.047852	-0.038452	0.999875	0.011402	0.001065	0.010830	
26672	    0	15.027816	-1.792780	-5.957911	2.211657	0.133520	2.110182	0.150412	-0.015680	-0.059861	0.999883	0.011058	0.000668	0.010550	
26673	    0	20.984000	0.677928	-8.699680	1.996678	-0.053980	1.961581	0.209778	0.009705	-0.086853	0.999902	0.009983	-0.000270	0.009808	
26674	    0	28.481577	1.635875	-9.660262	1.533736	-0.136379	1.844450	0.284710	0.019724	-0.096266	0.999928	0.007668	-0.000682	0.009222	
26675	    0	33.644232	6.913392	-7.229568	0.728055	-0.225073	2.471993	0.335632	0.073547	-0.071655	0.999916	0.003640	-0.001125	0.012360	
26676	    0	30.619523	8.352702	-4.426804	0.188264	-0.388354	3.264956	0.304862	0.088552	-0.043593	0.999864	0.000941	-0.001942	0.016324	
26677	    0	26.008663	7.010066	-3.325848	0.009347	-0.605045	3.646295	0.258850	0.074829	-0.032471	0.999828	0.000047	-0.003025	0.018230	
26678	    0	27.473666	7.832195	-3.423037	0.201429	-0.997988	3.778317	0.273357	0.083529	-0.032782	0.999808	0.001007	-0.004990	0.018890	
26679	    0	29.797011	8.681241	-5.224368	0.224319	-1.450256	3.769178	0.296631	0.092468	-0.049988	0.999795	0.001122	-0.007251	0.018845	
26680	    0	29.658736	10.426924	-6.758446	0.004959	-1.787131	3.887091	0.295074	0.110016	-0.064940	0.999771	0.000025	-0.008935	0.019434	
26681	    0	28.195911	13.344943	-6.253851	-0.006867	-1.945467	4.029419	0.279785	0.139099	-0.059814	0.999749	-0.000034	-0.009727	0.020145	
26682	    0	24.717670	14.297400	-4.572167	0.285364	-1.925059	4.065858	0.244625	0.148027	-0.043150	0.999745	0.001427	-0.009624	0.020328	
26683	    0	20.926175	13.300672	-3.537243	0.718938	-1.619089	4.046197	0.206787	0.137329	-0.033203	0.999756	0.003594	-0.008095	0.020229	
26684	    0	17.801766	12.127489	-2.326813	1.155557	-1.272105	3.852367	0.175776	0.124803	-0.021431	0.999777	0.005777	-0.006360	0.019260	
26685	    0	15.621285	11.155877	-1.957849	1.591597	-0.943628	3.530355	0.154297	0.114441	-0.017944	0.999801	0.007957	-0.004718	0.017651	
26686	    0	13.683901	10.885835	-1.625008	2.021907	-0.515014	3.094090	0.135171	0.111113	-0.014785	0.999825	0.010109	-0.002575	0.015470	
26687	    0	9.262305	11.671288	0.466049	2.436388	-0.025941	2.652121	0.091064	0.117859	0.006104	0.999838	0.012181	-0.000130	0.013260	
26688	    0	4.888765	12.807301	1.780697	2.756832	0.324266	2.139582	0.047546	0.128325	0.019497	0.999846	0.013783	0.001621	0.010697	
26689	    0	2.354482	15.041347	2.070267	2.679567	0.645667	1.860895	0.022217	0.150330	0.022644	0.999862	0.013397	0.003228	0.009304	
26690	    0	0.796582	14.431349	3.289695	2.552335	0.895539	1.791079	0.006828	0.143943	0.034703	0.999868	0.012761	0.004478	0.008955	
26691	    0	-2.170842	15.652904	-0.694053	1.496925	0.824949	1.788376	-0.023132	0.156372	-0.005676	0.999923	0.007484	0.004125	0.008942	
26692	    0	-2.842604	15.451494	0.583541	0.823036	0.847641	1.714547	-0.029722	0.154238	0.006595	0.999946	0.004115	0.004238	0.008573	
26693	    0	-3.414775	14.580550	2.231355	0.225261	0.605018	1.562519	-0.035217	0.145508	0.022583	0.999964	0.001126	0.003025	0.007812	
26694	    0	-4.027650	13.262385	1.604377	-0.932133	0.356106	1.412791	-0.041184	0.132408	0.015499	0.999962	-0.004661	0.001781	0.007064	
26695	    0	-4.026289	11.442066	1.511127	-1.535633	0.238804	1.347375	-0.041016	0.114258	0.014282	0.999947	-0.007678	0.001194	0.006737	
26696	    0	-2.606769	8.399965	2.291731	-0.841148	0.171854	1.100549	-0.026510	0.083950	0.022587	0.999975	-0.004206	0.000859	0.005503	
26697	    0	-1.254967	4.249979	3.209535	-0.458528	-0.243950	0.501252	-0.012695	0.042542	0.031982	0.999993	-0.002293	-0.001220	0.002506	
26698	    0	0.022339	0.962578	4.616241	-0.746923	-1.086052	-0.126840	-0.000021	0.009798	0.046126	0.999978	-0.003735	-0.005430	-0.000634	
26699	    0	3.186153	-1.316447	2.718970	-2.152332	-2.016333	-0.447862	0.031555	-0.012939	0.027649	0.999888	-0.010761	-0.010081	-0.002239	
26700	    0	7.914980	-4.267486	-2.632315	-4.078713	-2.789403	-0.540026	0.079382	-0.043399	-0.024337	0.999691	-0.020391	-0.013946	-0.002700	
26701	    0	10.264137	-8.173811	-2.853243	-4.307883	-3.138347	-0.656970	0.102783	-0.082642	-0.025146	0.999640	-0.021537	-0.015690	-0.003284	
26702	    0	6.267807	-10.941042	1.527427	-2.594599	-3.701338	-0.462190	0.062111	-0.109334	0.017846	0.999742	-0.012972	-0.018505	-0.002311	
26703	    0	4.204163	-8.593875	-11.198178	-0.324269	-3.759040	0.553928	0.044373	-0.085999	-0.111023	0.999818	-0.001621	-0.018794	0.002769	
26704	    0	9.332845	-14.685998	-24.938229	1.386091	-0.778973	1.016441	0.095040	-0.144649	-0.250022	0.999955	0.006930	-0.003895	0.005082	
26705	    0	9.130105	-19.196370	-14.485512	2.302864	2.664326	0.591309	0.089905	-0.190002	-0.148254	0.999840	0.011514	0.013321	0.002956	
26706	    0	3.141930	-11.427915	-0.083319	2.256327	2.809107	0.482204	0.031667	-0.114181	-0.002565	0.999834	0.011281	0.014045	0.002411	
26707	    0	1.057134	-2.825175	3.739075	1.899194	1.335177	0.743884	0.010925	-0.028564	0.037048	0.999926	0.009496	0.006676	0.003719	
26708	    0	4.349069	1.772517	0.001995	1.585031	0.506409	0.922789	0.043408	0.017925	0.000051	0.999954	0.007925	0.002532	0.004614	
26709	    0	5.143162	2.153878	-0.141710	2.309668	0.211340	0.918603	0.051331	0.021790	-0.001221	0.999922	0.011548	0.001057	0.004593	
26710	    0	4.089979	-1.916703	-0.588357	5.156741	0.653344	1.079495	0.040981	-0.018784	-0.006505	0.999647	0.025781	0.003266	0.005397	
26711	    0	4.040612	-8.052492	9.952840	2.801800	-0.000763	0.598928	0.040649	-0.081787	0.098389	0.999897	0.014009	-0.000004	0.002995	
26712	    0	16.661145	3.029543	-10.971370	1.890223	-0.935956	-0.827044	0.167248	0.030635	-0.108644	0.999935	0.009451	-0.004680	-0.004135	
26713	    0	26.289750	15.074877	-20.473679	1.692414	-0.665292	-0.048829	0.263611	0.152405	-0.202576	0.999958	0.008462	-0.003326	-0.000244	
26714	    0	12.016608	26.131589	-2.965904	0.176621	-0.962834	-0.418284	0.120852	0.261089	-0.028848	0.999986	0.000883	-0.004814	-0.002091	
26715	    0	12.026725	32.790470	-1.831774	0.054932	-0.666624	-1.251231	0.122375	0.327148	-0.017822	0.999974	0.000275	-0.003333	-0.006256	
26716	    0	14.536733	33.044399	0.229995	-0.708407	-0.657479	-2.239283	0.149049	0.328795	0.001619	0.999926	-0.003542	-0.003287	-0.011196	
26717	    0	15.448542	14.068812	-1.203000	-0.294315	-0.348677	-3.033566	0.156616	0.138306	-0.011963	0.999882	-0.001472	-0.001743	-0.015167	
26718	    0	22.453323	15.971954	-1.644546	-0.046924	-0.333810	-4.179116	0.227832	0.154978	-0.016104	0.999780	-0.000235	-0.001669	-0.020894	
26719	    0	21.074575	20.828319	-2.449706	-0.633090	-0.229660	-3.901927	0.214783	0.204041	-0.024902	0.999804	-0.003165	-0.001148	-0.019508	
26720	    0	20.411737	13.684856	-3.100976	-0.938465	-0.113493	-3.431120	0.206441	0.133173	-0.031524	0.999842	-0.004692	-0.000567	-0.017155	
26721	    0	25.151718	7.271616	-2.942846	-0.433947	0.066380	-3.740150	0.252808	0.067932	-0.029663	0.999823	-0.002170	0.000332	-0.018700	
26722	    0	27.129582	3.110286	-3.973218	-0.489463	0.070196	-4.237878	0.271858	0.025249	-0.039894	0.999772	-0.002447	0.000351	-0.021188	
26723	    0	27.332944	1.832758	-4.353325	-1.098730	0.110827	-4.478089	0.273621	0.011963	-0.043762	0.999734	-0.005493	0.000554	-0.022388	
26724	    0	26.719399	3.270284	-2.905439	-1.642015	0.305779	-4.679971	0.267813	0.026198	-0.029696	0.999691	-0.008209	0.001529	-0.023397	
26725	    0	25.499009	2.654293	-0.905902	-2.115104	0.510654	-4.694890	0.255493	0.020447	-0.009949	0.999665	-0.010574	0.002553	-0.023472	
26726	    0	24.259732	0.618222	0.319904	-2.322465	0.726974	-4.667439	0.242663	0.000549	0.002289	0.999653	-0.011611	0.003634	-0.023335	
26727	    0	21.992459	0.557729	-0.039204	-2.601745	0.838571	-4.614811	0.219971	0.000488	-0.001343	0.999640	-0.013007	0.004192	-0.023071	
26728	    0	19.991921	1.463281	-1.582833	-3.219442	0.790887	-4.423132	0.200109	0.009943	-0.016805	0.999618	-0.016095	0.003954	-0.022113	
26729	    0	18.990845	0.114302	-3.298386	-3.723642	0.654880	-4.215041	0.189758	-0.003479	-0.033569	0.999599	-0.018616	0.003274	-0.021072	
26730	    0	18.319818	-4.482980	-5.245599	-4.013214	0.470796	-3.949691	0.182129	-0.049479	-0.051924	0.999600	-0.020063	0.002354	-0.019746	
26731	    0	15.563563	-10.505940	-6.592690	-3.715192	0.448852	-3.798363	0.153442	-0.109192	-0.064270	0.999644	-0.018574	0.002244	-0.018990	
26732	    0	9.967989	-16.690048	-8.670467	-2.865658	0.579884	-3.495519	0.096481	-0.169827	-0.084568	0.999740	-0.014327	0.002899	-0.017476	
26733	    0	5.501650	-18.879168	-11.220975	-2.371926	0.577579	-2.833722	0.052002	-0.190857	-0.110107	0.999825	-0.011859	0.002888	-0.014168	
26734	    0	4.455212	-14.740950	-10.713523	-2.690072	0.676571	-2.144542	0.042600	-0.149298	-0.105282	0.999846	-0.013450	0.003383	-0.010722	
26735	    0	4.945116	-17.509677	-6.247105	-3.030359	0.796549	-1.542742	0.047852	-0.176392	-0.059998	0.999847	-0.015151	0.003983	-0.007713	
26736	    0	4.516028	-24.379844	-2.395851	-2.466664	0.815037	-1.062237	0.043774	-0.244306	-0.021128	0.999901	-0.012333	0.004075	-0.005311	
26737	    0	5.077812	-21.844363	-2.544075	-0.742156	0.605016	-1.100168	0.049500	-0.218811	-0.024780	0.999973	-0.003711	0.003025	-0.005501	
26738	    0	3.050115	-17.003638	-4.417043	1.227968	0.466163	-1.284808	0.029305	-0.169951	-0.045283	0.999957	0.006140	0.002331	-0.006424	
26739	    0	-1.849954	-12.332319	-1.665978	1.098074	0.022126	-1.275650	-0.019287	-0.123108	-0.017334	0.999964	0.005490	0.000111	-0.006378	
26740	    0	-1.455779	-10.874084	3.484899	0.097847	-0.489045	-0.615503	-0.014977	-0.108712	0.034760	0.999991	0.000489	-0.002445	-0.003078	
26741	    0	4.592193	-12.641141	3.854926	-0.703242	-0.566866	0.234223	0.045959	-0.126221	0.039124	0.999989	-0.003516	-0.002834	0.001171	
26742	    0	7.086257	-14.341014	-0.268701	-0.165558	0.010300	0.538254	0.071248	-0.143221	-0.002572	0.999995	-0.000828	0.000051	0.002691	
26743	    0	5.591026	-13.838373	-0.950077	0.319101	0.592043	0.656893	0.056335	-0.138184	-0.009888	0.999989	0.001595	0.002960	0.003284	
26744	    0	3.611366	-9.895914	-1.837979	0.572972	0.847823	0.845534	0.036452	-0.098752	-0.018817	0.999977	0.002865	0.004239	0.004228	
26745	    0	2.243478	-6.566890	-2.779614	0.752267	0.837145	1.183332	0.022705	-0.065430	-0.028137	0.999967	0.003761	0.004186	0.005917	
26746	    0	3.130292	-5.613555	-3.495674	0.703059	0.721370	1.602388	0.031624	-0.055759	-0.035267	0.999955	0.003515	0.003607	0.008012	
26747	    0	5.238702	-6.503922	-2.704145	0.728620	0.484666	1.845583	0.052917	-0.064453	-0.027405	0.999948	0.003643	0.002423	0.009228	
26748	    0	6.856480	-6.276970	-2.527479	1.182203	0.185208	2.077534	0.069187	-0.061902	-0.025706	0.999928	0.005911	0.000926	0.010387	
26749	    0	9.560098	-4.004601	-3.591000	1.586395	-0.054933	2.344591	0.096069	-0.038635	-0.036194	0.999899	0.007932	-0.000275	0.011723	
26750	    0	16.003817	-1.325784	-5.366772	1.615388	-0.201232	2.330096	0.160229	-0.010959	-0.053601	0.999899	0.008077	-0.001006	0.011650	
26751	    0	23.298664	0.897658	-7.815350	1.497885	-0.267800	2.167574	0.232971	0.012085	-0.077759	0.999912	0.007489	-0.001339	0.010838	
26752	    0	29.881831	2.501378	-8.727866	1.119260	-0.259215	2.169854	0.298633	0.028741	-0.086738	0.999924	0.005596	-0.001296	0.010849	
26753	    0	32.873267	6.250711	-6.803914	0.477616	-0.341617	2.761170	0.327942	0.067200	-0.067322	0.999900	0.002388	-0.001708	0.013805	
26754	    0	29.510223	6.654106	-5.260821	0.000191	-0.521305	3.449043	0.294032	0.071618	-0.051841	0.999847	0.000001	-0.002606	0.017244	
26755	    0	27.922455	6.690987	-4.254703	0.068860	-0.819447	3.748552	0.278076	0.072144	-0.041382	0.999815	0.000344	-0.004097	0.018742	
26756	    0	30.108820	7.613516	-4.729965	0.454172	-1.216211	3.908815	0.299802	0.082108	-0.045292	0.999787	0.002271	-0.006081	0.019543	
26757	    0	30.225948	8.733158	-6.744292	0.386268	-1.583221	3.972168	0.300964	0.093445	-0.064880	0.999769	0.001931	-0.007915	0.019859	
26758	    0	28.850936	11.090255	-7.034868	0.150121	-1.890534	4.102484	0.286800	0.116849	-0.067546	0.999744	0.000751	-0.009452	0.020511	
26759	    0	26.744524	13.302674	-5.683852	0.348885	-1.989161	4.173653	0.265137	0.138672	-0.053955	0.999731	0.001744	-0.009945	0.020866	
26760	    0	23.379878	13.975203	-4.453001	0.873834	-1.752628	4.194634	0.231172	0.144806	-0.041871	0.999732	0.004369	-0.008762	0.020971	
26761	    0	20.205035	13.387723	-3.056598	1.323816	-1.399163	4.169068	0.199402	0.138245	-0.028259	0.999736	0.006618	-0.006995	0.020844	
26762	    0	17.709035	12.697833	-2.024744	1.644842	-1.093573	3.970662	0.174624	0.130617	-0.018224	0.999754	0.008224	-0.005467	0.019852	
26763	    0	15.625263	12.086316	-1.544065	1.991420	-0.704818	3.663145	0.154053	0.123840	-0.013672	0.999776	0.009956	-0.003524	0.018314	
26764	    0	11.805015	12.850792	0.017738	2.276569	-0.268572	3.218860	0.115960	0.130371	0.001811	0.999804	0.011382	-0.001343	0.016093	
26765	    0	6.394521	13.582057	1.665334	2.372300	0.064090	2.756652	0.062073	0.136475	0.018250	0.999834	0.011861	0.000320	0.013783	
26766	    0	3.916115	14.810663	2.704512	2.574862	0.526264	2.321553	0.037516	0.148185	0.028852	0.999846	0.012874	0.002631	0.011607	
26767	    0	1.843576	15.064584	3.243044	2.591833	0.900504	2.071483	0.017029	0.150391	0.034302	0.999852	0.012959	0.004502	0.010357	
26768	    0	-1.980822	16.912942	-0.006761	1.329079	0.958089	2.080597	-0.021563	0.168906	0.001156	0.999912	0.006645	0.004790	0.010403	
26769	    0	-3.530334	17.409729	0.710652	0.487529	0.878353	2.045485	-0.037048	0.173706	0.007690	0.999934	0.002438	0.004392	0.010227	
26770	    0	-2.806659	16.100939	1.842354	-0.053025	0.659952	1.756122	-0.029418	0.160760	0.018476	0.999955	-0.000265	0.003300	0.008780	
26771	    0	-2.786376	14.163485	1.106155	-1.228163	0.430305	1.539638	-0.028931	0.141479	0.010254	0.999949	-0.006141	0.002151	0.007698	
26772	    0	-2.901634	12.809239	1.042345	-2.176536	0.246436	1.348914	-0.029868	0.127996	0.009067	0.999917	-0.010882	0.001232	0.006744	
26773	    0	-2.429205	11.430200	1.766282	-1.771577	0.100138	1.082631	-0.024902	0.114319	0.016663	0.999946	-0.008858	0.000501	0.005413	
26774	    0	-1.514195	6.401423	1.288593	-1.044089	-0.254442	0.475505	-0.015310	0.064044	0.012532	0.999982	-0.005220	-0.001272	0.002378	
26775	    0	-1.361165	0.746821	3.118663	-0.932894	-1.229108	-0.234225	-0.013794	0.007629	0.031067	0.999969	-0.004664	-0.006145	-0.001171	
26776	    0	0.925212	-0.668923	0.733938	-2.219108	-2.257447	-0.781475	0.009142	-0.006642	0.007517	0.999866	-0.011095	-0.011287	-0.003907	
26777	    0	6.158856	-3.325905	-2.508148	-4.024938	-2.925997	-1.020923	0.061768	-0.034058	-0.023499	0.999677	-0.020123	-0.014628	-0.005104	
26778	    0	9.758345	-8.859229	-1.131939	-3.974772	-2.971780	-1.142435	0.097211	-0.089331	-0.008102	0.999676	-0.019872	-0.014857	-0.005712	
26779	    0	8.306987	-13.969571	4.006772	-1.858632	-3.157805	-0.978910	0.081726	-0.139709	0.042664	0.999820	-0.009293	-0.015788	-0.004894	
26780	    0	4.764713	-10.918479	-5.811197	0.128181	-3.633890	0.011254	0.048699	-0.109145	-0.057303	0.999834	0.000641	-0.018168	0.000056	
26781	    0	9.153872	-12.036267	-27.055880	1.858562	-1.165607	0.758379	0.093567	-0.117493	-0.271118	0.999932	0.009293	-0.005828	0.003792	
26782	    0	11.036452	-17.313817	-20.747186	2.803428	2.970142	0.465044	0.107641	-0.169940	-0.211481	0.999788	0.014016	0.014850	0.002325	
26783	    0	4.082158	-12.182474	-2.070099	2.597260	3.587827	0.373108	0.040649	-0.121460	-0.023010	0.999753	0.012985	0.017938	0.001865	
26784	    0	0.337741	-4.383503	5.206677	2.276898	2.147383	0.527976	0.004049	-0.044414	0.051522	0.999873	0.011384	0.010736	0.002640	
26785	    0	4.147571	-0.537986	1.411743	1.706154	1.042957	0.614940	0.041565	-0.005371	0.013855	0.999945	0.008531	0.005215	0.003075	
26786	    0	4.990418	-0.970480	-0.740807	1.815062	0.295262	0.705730	0.049927	-0.009460	-0.007568	0.999951	0.009075	0.001476	0.003529	
26787	    0	6.811957	-5.169604	-7.480580	4.381932	0.470201	0.946316	0.068180	-0.049716	-0.076070	0.999745	0.021908	0.002351	0.004731	
26788	    0	13.326869	-11.743455	12.509200	2.734474	0.251588	1.071206	0.134057	-0.118412	0.123309	0.999891	0.013672	0.001258	0.005356	
26789	    0	16.731578	-0.073678	-11.161161	2.904060	-1.066634	-0.679807	0.167908	0.000305	-0.110718	0.999874	0.014520	-0.005333	-0.003399	
26790	    0	13.575082	20.058561	-19.507030	1.793129	-0.880256	0.238041	0.136362	0.202482	-0.192661	0.999949	0.008965	-0.004401	0.001190	
26791	    0	10.879321	31.266251	-1.967023	-0.149346	-0.907138	-0.159455	0.109131	0.312561	-0.019409	0.999989	-0.000747	-0.004536	-0.000797	
26792	    0	12.085412	35.810594	0.543887	-0.264933	-0.602346	-1.320851	0.123199	0.357305	0.005334	0.999972	-0.001325	-0.003012	-0.006604	
26793	    0	14.394214	29.686519	-0.501117	-0.982509	-0.740840	-2.614684	0.147827	0.294922	-0.005920	0.999895	-0.004912	-0.003704	-0.013073	
26794	    0	17.236229	12.202994	-2.696626	0.126083	-0.346584	-3.573038	0.174552	0.118941	-0.026589	0.999838	0.000630	-0.001733	-0.017864	
26795	    0	21.935559	17.403208	-1.165582	0.681360	-0.298906	-4.344529	0.223083	0.169250	-0.010742	0.999757	0.003407	-0.001494	-0.021721	
26796	    0	22.886199	21.746534	-1.731104	0.140199	-0.173961	-3.888185	0.233047	0.212974	-0.016959	0.999810	0.000701	-0.000870	-0.019440	
26797	    0	20.036147	13.262224	-1.408190	-0.771371	-0.118071	-3.385333	0.202576	0.129150	-0.014465	0.999848	-0.003857	-0.000590	-0.016926	
26798	    0	25.493874	4.163359	-2.382625	-0.744101	0.007821	-3.705054	0.255650	0.036813	-0.023979	0.999821	-0.003720	0.000039	-0.018524	
26799	    0	27.047493	2.353794	-2.897988	-0.983313	0.072485	-4.161389	0.270874	0.017761	-0.029175	0.999771	-0.004916	0.000362	-0.020805	
26800	    0	26.229599	3.270539	-3.711591	-1.432924	0.185983	-4.313459	0.262881	0.026772	-0.037566	0.999741	-0.007164	0.000930	-0.021565	
26801	    0	24.692743	5.909417	-2.679753	-2.144651	0.357092	-4.452970	0.248108	0.053284	-0.027832	0.999693	-0.010722	0.001785	-0.022263	
26802	    0	24.652082	4.544766	-1.782486	-2.711423	0.607752	-4.514651	0.247402	0.039616	-0.019139	0.999648	-0.013556	0.003038	-0.022571	
26803	    0	23.847731	0.616878	-1.595888	-2.997957	0.815110	-4.452298	0.238464	0.000610	-0.016968	0.999631	-0.014988	0.004075	-0.022259	
26804	    0	22.353796	0.420319	-2.180724	-2.912307	0.979353	-4.478051	0.223442	-0.001129	-0.022911	0.999631	-0.014560	0.004896	-0.022388	
26805	    0	20.262296	0.648950	-3.771333	-3.096199	0.922507	-4.374471	0.202515	0.001465	-0.038696	0.999630	-0.015479	0.004612	-0.021870	
26806	    0	18.539399	-2.397183	-5.503374	-3.408085	0.608900	-4.161961	0.184661	-0.028759	-0.055134	0.999633	-0.017038	0.003044	-0.020807	
26807	    0	16.777891	-10.000168	-7.148253	-3.474635	0.304448	-3.926538	0.165649	-0.104492	-0.069946	0.999655	-0.017371	0.001522	-0.019630	
26808	    0	12.822797	-17.940732	-7.481469	-3.015606	0.310927	-3.605985	0.124839	-0.182781	-0.072271	0.999722	-0.015077	0.001554	-0.018028	
26809	    0	7.116045	-18.261035	-6.784025	-2.060634	0.624122	-3.153420	0.068054	-0.184387	-0.066162	0.999817	-0.010303	0.003120	-0.015766	
26810	    0	5.074690	-14.718203	-6.476598	-1.773912	0.806081	-2.596206	0.048568	-0.148390	-0.063652	0.999867	-0.008869	0.004030	-0.012980	
26811	    0	6.043086	-12.008202	-6.292617	-1.891965	0.770596	-2.036356	0.058960	-0.121277	-0.062012	0.999895	-0.009459	0.003853	-0.010181	
26812	    0	6.827243	-16.658385	-4.407952	-2.238155	0.642606	-1.523639	0.066860	-0.167578	-0.042424	0.999903	-0.011190	0.003213	-0.007618	
26813	    0	6.973364	-19.645971	-1.780058	-1.689944	0.638784	-1.217675	0.068481	-0.197021	-0.016357	0.999940	-0.008450	0.003194	-0.006088	
26814	    0	5.577341	-16.198074	-2.463314	-0.146295	0.633054	-1.247226	0.054684	-0.162342	-0.024689	0.999975	-0.000731	0.003165	-0.006236	
26815	    0	2.265650	-12.367965	-1.874530	0.502972	0.430302	-1.335156	0.021790	-0.123779	-0.019104	0.999971	0.002515	0.002151	-0.006676	
26816	    0	0.980214	-13.235575	-0.155278	-0.267793	-0.027275	-1.061063	0.009100	-0.132407	-0.001374	0.999985	-0.001339	-0.000136	-0.005305	
26817	    0	1.924953	-13.975180	1.315264	-1.245699	-0.159456	-0.454715	0.018921	-0.139709	0.014038	0.999977	-0.006228	-0.000797	-0.002274	
26818	    0	3.772677	-13.185733	0.713710	-1.635951	0.158121	0.076867	0.037784	-0.131779	0.008185	0.999966	-0.008180	0.000791	0.000384	
26819	    0	4.276000	-13.841969	1.044829	-1.444259	0.439648	0.443272	0.043091	-0.138245	0.011353	0.999969	-0.007221	0.002198	0.002216	
26820	    0	3.412992	-13.000207	0.328005	-0.826650	0.616650	0.739484	0.034621	-0.129860	0.003711	0.999979	-0.004133	0.003083	0.003697	
26821	    0	2.367131	-11.420199	-1.638547	0.114442	0.747876	0.981909	0.024170	-0.114075	-0.016541	0.999980	0.000572	0.003739	0.004910	
26822	    0	2.199801	-9.447044	-3.005398	0.855648	0.786982	1.316469	0.022499	-0.094193	-0.030545	0.999961	0.004278	0.003935	0.006582	
26823	    0	3.699265	-8.674637	-3.652458	1.329260	0.710312	1.705206	0.037598	-0.086182	-0.037231	0.999935	0.006646	0.003551	0.008526	
26824	    0	5.802823	-8.529585	-4.074919	1.832066	0.535219	1.971497	0.058752	-0.084340	-0.041681	0.999906	0.009160	0.002676	0.009857	
26825	    0	7.436533	-7.451584	-4.559045	2.305127	0.349441	2.142423	0.075073	-0.073181	-0.046570	0.999874	0.011525	0.001747	0.010712	
26826	    0	10.301441	-5.002036	-5.464345	2.384484	0.201234	2.257640	0.103510	-0.048197	-0.055329	0.999865	0.011922	0.001006	0.011288	
26827	    0	15.614849	-2.359771	-7.162831	2.025109	0.062563	2.242364	0.156372	-0.021118	-0.071899	0.999886	0.010125	0.000313	0.011211	
26828	    0	21.975095	0.162108	-8.680424	1.625111	-0.015069	2.189895	0.219717	0.004732	-0.086758	0.999907	0.008125	-0.000075	0.010949	
26829	    0	29.712316	2.738350	-7.621785	0.964381	-0.098231	2.316345	0.296814	0.031189	-0.075928	0.999921	0.004822	-0.000491	0.011581	
26830	    0	32.738334	6.576069	-6.021374	0.418489	-0.339140	3.011821	0.326444	0.070807	-0.059515	0.999883	0.002092	-0.001696	0.015059	
26831	    0	29.836808	5.794549	-4.696993	0.129707	-0.610957	3.531073	0.297424	0.063232	-0.046021	0.999839	0.000648	-0.003055	0.017654	
26832	    0	28.257060	6.058745	-4.362096	0.277537	-0.893458	3.776979	0.281549	0.065970	-0.042273	0.999810	0.001388	-0.004467	0.018884	
26833	    0	30.879235	7.463143	-5.108267	0.695851	-1.206866	3.900425	0.307556	0.080811	-0.048950	0.999785	0.003479	-0.006034	0.019501	
26834	    0	31.734742	8.979048	-6.468446	0.587700	-1.557852	3.978847	0.315965	0.096271	-0.061943	0.999767	0.002938	-0.007789	0.019893	
26835	    0	29.742688	12.079435	-6.755894	0.282503	-1.813665	4.179745	0.295410	0.127075	-0.064697	0.999739	0.001412	-0.009068	0.020897	
26836	    0	27.008677	14.186457	-5.680287	0.370251	-1.885782	4.336954	0.267443	0.147785	-0.054003	0.999719	0.001851	-0.009428	0.021683	
26837	    0	23.773750	13.389779	-4.561800	0.871358	-1.634178	4.349160	0.235107	0.139221	-0.043091	0.999721	0.004356	-0.008170	0.021744	
26838	    0	21.074419	11.308142	-3.310333	1.295204	-1.363111	4.194820	0.208524	0.117676	-0.030925	0.999736	0.006475	-0.006815	0.020972	
26839	    0	18.706309	10.883229	-3.458232	1.727623	-0.974351	3.889011	0.185059	0.112732	-0.032715	0.999762	0.008637	-0.004871	0.019444	
26840	    0	15.506431	11.764989	-2.007513	2.195134	-0.429375	3.495276	0.153015	0.120544	-0.018433	0.999784	0.010975	-0.002147	0.017475	
26841	    0	9.988761	12.787764	0.481091	2.622403	0.102813	3.093741	0.097898	0.129325	0.006450	0.999793	0.013111	0.000514	0.015468	
26842	    0	4.897677	15.544486	0.403095	2.361049	0.397132	2.782596	0.046819	0.156045	0.005776	0.999831	0.011805	0.001986	0.013912	
26843	    0	3.135719	16.951835	1.684486	1.837428	0.621822	2.565876	0.029236	0.169739	0.018311	0.999870	0.009187	0.003109	0.012829	
26844	    0	1.211459	14.212546	0.902244	1.274912	0.675414	2.350500	0.010476	0.142194	0.009892	0.999905	0.006374	0.003377	0.011752	
26845	    0	-1.881914	14.907578	-0.698557	0.365456	0.607505	2.240042	-0.020508	0.148865	-0.006653	0.999930	0.001827	0.003037	0.011200	
26846	    0	-3.137783	13.186644	0.041386	0.091173	0.366219	2.215432	-0.032835	0.131508	0.000533	0.999936	0.000456	0.001831	0.011077	
26847	    0	-2.027668	12.414376	1.373059	-0.244144	0.300794	1.882201	-0.021423	0.123962	0.013611	0.999953	-0.001221	0.001504	0.009411	
26848	    0	-1.924889	12.181135	2.072406	-0.902760	0.168993	1.544592	-0.020172	0.121750	0.020191	0.999959	-0.004514	0.000845	0.007723	
26849	    0	-2.433758	13.293897	1.255558	-1.415082	-0.149538	1.203936	-0.025146	0.132874	0.011597	0.999956	-0.007075	-0.000748	0.006020	
26850	    0	-2.387573	12.221222	0.454852	-1.579306	-0.408941	0.755892	-0.024345	0.122151	0.003534	0.999959	-0.007896	-0.002045	0.003779	
26851	    0	-2.060865	7.092809	1.962840	-1.417367	-0.794229	0.188448	-0.020752	0.071045	0.019043	0.999966	-0.007087	-0.003971	0.000942	
26852	    0	-0.686758	4.489374	2.159464	-1.476511	-1.685751	-0.422678	-0.006952	0.045066	0.021204	0.999934	-0.007382	-0.008429	-0.002113	
26853	    0	1.658515	2.441424	-0.773082	-2.876272	-2.472079	-0.846153	0.016785	0.024231	-0.007874	0.999811	-0.014380	-0.012360	-0.004230	
26854	    0	3.832547	-0.801010	-1.791882	-4.202007	-3.094087	-1.146834	0.038547	-0.008596	-0.017147	0.999642	-0.021008	-0.015469	-0.005733	
26855	    0	6.613005	-5.467972	-0.741547	-3.834005	-3.184100	-1.339870	0.065857	-0.055237	-0.005310	0.999666	-0.019168	-0.015919	-0.006699	
26856	    0	7.308686	-8.977748	0.941692	-1.835935	-3.206449	-0.999702	0.072465	-0.090042	0.011408	0.999816	-0.009179	-0.016031	-0.004998	
26857	    0	7.510737	-10.724665	-8.502985	0.461018	-2.446047	-0.171666	0.076050	-0.107117	-0.084351	0.999922	0.002305	-0.012230	-0.000858	
26858	    0	10.023764	-16.001552	-17.924938	2.009426	0.138667	0.156596	0.100237	-0.158125	-0.180914	0.999949	0.010047	0.000693	0.000783	
26859	    0	8.816788	-17.498269	-12.980945	2.781830	2.324995	0.113684	0.086731	-0.173096	-0.133240	0.999835	0.013908	0.011624	0.000568	
26860	    0	4.690879	-12.734422	-2.526288	2.825329	2.441739	0.177394	0.046694	-0.126924	-0.027629	0.999825	0.014126	0.012208	0.000887	
26861	    0	2.513741	-6.296279	1.100651	2.549267	1.531277	0.358595	0.025330	-0.063049	0.010010	0.999887	0.012746	0.007656	0.001793	
26862	    0	4.137629	-0.790809	-1.938886	2.439764	1.020653	0.538270	0.041297	-0.007558	-0.019693	0.999908	0.012198	0.005103	0.002691	
26863	    0	4.410734	0.411121	-2.561424	3.130479	0.687630	0.570704	0.044006	0.004639	-0.025696	0.999867	0.015652	0.003438	0.002853	
26864	    0	4.511125	-5.479122	0.262656	5.439893	0.965244	0.822556	0.045343	-0.054646	0.000920	0.999610	0.027196	0.004826	0.004112	
26865	    0	6.136506	-7.139673	11.847494	2.477328	0.081827	0.135807	0.061462	-0.072815	0.117554	0.999923	0.012386	0.000409	0.000679	
26866	    0	13.820791	8.936349	-8.631765	0.987829	-1.161781	-0.901615	0.139107	0.089160	-0.085071	0.999960	0.004939	-0.005809	-0.004508	
26867	    0	22.600075	16.166541	-15.540621	0.883489	-0.778775	-0.102234	0.226685	0.162231	-0.153809	0.999982	0.004417	-0.003894	-0.000511	
26868	    0	12.878906	24.894603	-5.706495	-0.683407	-0.877386	-0.418475	0.129560	0.248480	-0.057347	0.999982	-0.003417	-0.004387	-0.002092	
26869	    0	10.460296	30.651163	-2.301918	-0.752268	-0.690278	-1.430530	0.106873	0.305664	-0.023804	0.999961	-0.003761	-0.003451	-0.007153	
26870	    0	14.116724	27.304140	-2.022231	-0.844028	-0.749039	-2.476006	0.144609	0.271178	-0.020832	0.999907	-0.004220	-0.003745	-0.012380	
26871	    0	15.790748	9.842373	-1.662188	0.538661	-0.388927	-3.323523	0.159546	0.095825	-0.016052	0.999856	0.002693	-0.001945	-0.016617	
26872	    0	20.195429	17.261093	-2.619883	1.410992	-0.403631	-4.388247	0.205729	0.168302	-0.024589	0.999732	0.007054	-0.002018	-0.021939	
26873	    0	20.482548	24.552252	-3.356516	0.630235	-0.375204	-4.181222	0.209961	0.241272	-0.032410	0.999774	0.003151	-0.001876	-0.020905	
26874	    0	19.418300	16.748781	-3.802409	-0.388166	-0.396940	-3.505509	0.197153	0.163976	-0.037955	0.999842	-0.001941	-0.001985	-0.017527	
26875	    0	25.287281	8.068439	-2.179346	-0.517306	-0.305004	-3.846984	0.254395	0.075745	-0.021606	0.999810	-0.002586	-0.001525	-0.019234	
26876	    0	28.446407	2.759644	-3.070476	-0.406679	-0.210397	-4.358450	0.285007	0.021327	-0.030453	0.999760	-0.002033	-0.001052	-0.021791	
26877	    0	27.810467	2.666708	-2.333668	-0.919425	-0.089081	-4.565843	0.278625	0.020203	-0.023315	0.999728	-0.004597	-0.000445	-0.022827	
26878	    0	27.322848	5.622043	-1.352316	-1.731098	0.070388	-4.674442	0.274436	0.049695	-0.014069	0.999689	-0.008655	0.000352	-0.023370	
26879	    0	27.568664	5.237834	-0.160125	-2.546989	0.341264	-4.622426	0.276794	0.045959	-0.002686	0.999650	-0.012733	0.001706	-0.023109	
26880	    0	27.854429	1.801633	0.299139	-3.026204	0.605661	-4.597488	0.278868	0.011642	0.001939	0.999617	-0.015129	0.003028	-0.022985	
26881	    0	25.664988	0.946838	0.036736	-3.375700	0.783072	-4.517975	0.256775	0.003662	-0.000732	0.999595	-0.016876	0.003915	-0.022587	
26882	    0	22.507703	0.551009	-0.802444	-3.879913	0.901352	-4.310464	0.225084	0.000489	-0.009081	0.999569	-0.019397	0.004506	-0.021549	
26883	    0	19.706991	-0.819417	-2.863619	-4.179974	0.908980	-3.955638	0.196716	-0.012695	-0.029297	0.999576	-0.020897	0.004544	-0.019775	
26884	    0	17.531556	-5.494888	-6.237447	-4.156641	0.766279	-3.554033	0.174049	-0.059339	-0.061840	0.999619	-0.020781	0.003831	-0.017768	
26885	    0	13.927284	-11.171663	-7.092407	-3.787445	0.742419	-3.273360	0.137146	-0.115295	-0.069275	0.999680	-0.018935	0.003712	-0.016365	
26886	    0	8.594554	-15.126760	-6.977288	-2.876880	0.858753	-3.008497	0.083353	-0.153521	-0.067937	0.999774	-0.014383	0.004293	-0.015041	
26887	    0	4.496940	-16.142570	-8.354287	-2.402626	0.903560	-2.530807	0.042542	-0.162964	-0.081787	0.999837	-0.012012	0.004518	-0.012653	
26888	    0	3.865504	-17.436187	-9.664007	-2.133829	0.677515	-1.933168	0.036637	-0.175741	-0.094896	0.999890	-0.010669	0.003387	-0.009665	
26889	    0	4.651558	-18.150922	-8.803545	-1.766056	0.535596	-1.493108	0.044922	-0.182617	-0.086548	0.999929	-0.008830	0.002678	-0.007465	
26890	    0	4.759288	-20.301025	-4.438713	-1.301212	0.690470	-1.121537	0.046302	-0.203556	-0.043225	0.999957	-0.006506	0.003452	-0.005608	
26891	    0	4.841575	-20.172430	-3.364517	-0.079155	0.528720	-0.954442	0.047363	-0.201965	-0.033691	0.999985	-0.000396	0.002644	-0.004772	
26892	    0	3.300492	-15.200250	-2.755363	1.041041	0.324443	-1.024256	0.032181	-0.152022	-0.028398	0.999971	0.005205	0.001622	-0.005121	
26893	    0	0.466469	-11.867756	-1.245008	0.721173	0.021362	-0.967413	0.004089	-0.118652	-0.012878	0.999981	0.003606	0.000107	-0.004837	
26894	    0	0.618031	-10.087630	0.167843	-0.286484	-0.143051	-0.514603	0.005919	-0.100889	0.001827	0.999995	-0.001432	-0.000715	-0.002573	
26895	    0	3.645557	-10.100393	0.628843	-1.062780	-0.060082	0.090027	0.036499	-0.100952	0.006836	0.999986	-0.005314	-0.000300	0.000450	
26896	    0	6.024092	-11.580428	-0.413479	-0.987058	0.275423	0.458720	0.060501	-0.115685	-0.003647	0.999984	-0.004935	0.001377	0.002294	
26897	    0	5.702511	-12.537471	0.119966	-0.857549	0.522807	0.646977	0.057434	-0.125183	0.001587	0.999982	-0.004288	0.002614	0.003235	
26898	    0	4.027975	-10.634374	0.203996	-0.696758	0.565151	0.745205	0.040682	-0.106185	0.002295	0.999983	-0.003484	0.002826	0.003726	
26899	    0	2.454064	-8.097936	-1.490895	-0.204278	0.534823	0.992590	0.024902	-0.080872	-0.014893	0.999983	-0.001021	0.002674	0.004963	
26900	    0	2.626521	-7.123072	-2.710476	0.307086	0.525861	1.322758	0.026664	-0.071013	-0.027284	0.999973	0.001535	0.002629	0.006614	
26901	    0	4.092782	-7.135710	-2.878262	0.670061	0.450903	1.633476	0.041443	-0.070923	-0.029114	0.999958	0.003350	0.002254	0.008167	
26902	    0	5.917470	-6.485375	-2.877129	1.092743	0.295836	1.964611	0.059764	-0.064110	-0.029211	0.999935	0.005464	0.001479	0.009823	
26903	    0	8.639182	-5.100001	-3.368568	1.484914	0.138859	2.174440	0.086914	-0.049805	-0.034119	0.999912	0.007424	0.000694	0.010872	
26904	    0	12.777958	-2.816576	-5.164374	1.723348	0.018693	2.265053	0.128079	-0.026270	-0.051888	0.999898	0.008616	0.000093	0.011325	
26905	    0	18.252002	-1.213842	-7.996414	1.799072	-0.110439	2.211837	0.182678	-0.009399	-0.079956	0.999898	0.008995	-0.000552	0.011059	
26906	    0	25.529238	0.146573	-10.058709	1.775988	-0.155835	2.071445	0.255331	0.005002	-0.100354	0.999907	0.008880	-0.000779	0.010357	
26907	    0	32.565775	3.549423	-9.105216	1.331559	-0.210577	2.272100	0.325317	0.039795	-0.090454	0.999912	0.006658	-0.001053	0.011360	
26908	    0	33.636213	8.184970	-7.395919	0.754198	-0.397699	3.103009	0.335181	0.087333	-0.072969	0.999870	0.003771	-0.001988	0.015514	
26909	    0	30.507872	7.916348	-5.510815	0.478390	-0.627743	3.565414	0.303772	0.084717	-0.053955	0.999833	0.002392	-0.003139	0.017826	
26910	    0	29.475628	8.969912	-5.036211	0.560416	-0.994558	3.825251	0.293212	0.095455	-0.048639	0.999801	0.002802	-0.004972	0.019125	
26911	    0	30.550341	10.130839	-5.970488	0.487555	-1.443399	3.963768	0.303833	0.107483	-0.057251	0.999774	0.002438	-0.007216	0.019817	
26912	    0	29.249606	12.273515	-7.408680	0.158133	-1.811372	4.123083	0.290537	0.128796	-0.071349	0.999745	0.000791	-0.009056	0.020614	
26913	    0	26.770155	14.097775	-6.906375	0.202198	-1.933275	4.271327	0.265259	0.146729	-0.066345	0.999724	0.001011	-0.009665	0.021355	
26914	    0	22.880222	14.400470	-5.353202	0.631391	-1.700369	4.360795	0.226029	0.149117	-0.051137	0.999721	0.003157	-0.008501	0.021802	
26915	    0	19.946894	13.439741	-3.430198	1.084235	-1.346519	4.330074	0.196716	0.138855	-0.032227	0.999728	0.005421	-0.006732	0.021648	
26916	    0	18.246656	12.324205	-2.073104	1.443223	-1.240454	4.099432	0.180008	0.127089	-0.018702	0.999744	0.007215	-0.006202	0.020495	
26917	    0	17.118760	11.878257	-2.166900	1.825289	-1.001057	3.871466	0.168945	0.122253	-0.019714	0.999758	0.009126	-0.005005	0.019356	
26918	    0	13.894014	11.390398	-2.068132	2.244339	-0.516545	3.322446	0.137071	0.116411	-0.019029	0.999795	0.011221	-0.002583	0.016611	
26919	    0	7.073100	12.739726	-0.397894	2.397474	-0.007630	2.655934	0.069031	0.128357	-0.002441	0.999840	0.011987	-0.000038	0.013279	
26920	    0	4.334597	12.061990	4.898398	3.344186	0.509868	2.123211	0.042196	0.120232	0.050888	0.999800	0.016720	0.002549	0.010615	
26921	    0	2.286274	13.250179	1.208675	2.866504	0.632699	1.775447	0.021729	0.132507	0.013916	0.999852	0.014332	0.003163	0.008877	
26922	    0	-0.638600	17.654914	-0.525297	1.702355	0.972202	1.630637	-0.007846	0.176525	-0.003715	0.999918	0.008512	0.004861	0.008153	
26923	    0	-2.925520	17.639289	1.696141	1.270324	1.121738	1.685373	-0.030640	0.176025	0.018250	0.999928	0.006351	0.005609	0.008427	
26924	    0	-3.050172	14.809973	2.367078	0.569734	1.018541	1.589038	-0.031554	0.147783	0.024251	0.999951	0.002849	0.005093	0.007945	
26925	    0	-3.235966	14.191668	2.508238	-0.463683	0.901044	1.520559	-0.033325	0.141724	0.024902	0.999958	-0.002318	0.004505	0.007603	
26926	    0	-3.191465	12.210339	2.581235	-1.250097	0.716412	1.394486	-0.032675	0.122036	0.025166	0.999949	-0.006250	0.003582	0.006972	
26927	    0	-2.961403	11.116163	3.302453	-1.059546	0.640115	1.264970	-0.030212	0.111145	0.032532	0.999960	-0.005298	0.003201	0.006325	
26928	    0	-1.654095	7.645285	4.801490	-0.465205	0.552371	0.841336	-0.016730	0.076494	0.047883	0.999984	-0.002326	0.002762	0.004207	
26929	    0	-0.024416	3.318359	5.184914	-0.547791	-0.128746	0.166321	-0.000305	0.033325	0.051758	0.999995	-0.002739	-0.000644	0.000832	
26930	    0	1.690734	1.585461	2.988515	-1.460667	-0.980772	-0.345235	0.016788	0.016044	0.029851	0.999959	-0.007303	-0.004904	-0.001726	
26931	    0	4.013216	-0.667300	-1.689585	-3.389779	-2.091359	-0.630231	0.040283	-0.007080	-0.016357	0.999796	-0.016948	-0.010456	-0.003151	
26932	    0	6.280591	-3.554352	-5.500553	-5.003139	-3.099135	-0.823333	0.063488	-0.037148	-0.053109	0.999558	-0.025012	-0.015493	-0.004116	
26933	    0	7.517011	-8.166557	-4.857512	-4.782841	-3.634250	-0.943138	0.075623	-0.083130	-0.045227	0.999537	-0.023911	-0.018168	-0.004715	
26934	    0	4.781465	-9.693946	-1.353638	-2.602820	-3.897649	-0.630247	0.047744	-0.097247	-0.011341	0.999720	-0.013013	-0.019486	-0.003151	
26935	    0	4.749825	-9.820470	-13.332741	-0.382820	-3.080111	0.286114	0.049683	-0.098389	-0.132385	0.999878	-0.001914	-0.015400	0.001431	
26936	    0	8.811220	-16.498518	-21.941353	1.253329	-0.115968	0.539784	0.088682	-0.163367	-0.220389	0.999976	0.006267	-0.000580	0.002699	
26937	    0	8.742699	-16.645895	-13.879597	1.921920	2.387523	0.301373	0.085999	-0.164978	-0.141418	0.999881	0.009609	0.011937	0.001507	
26938	    0	3.521857	-7.762162	-1.518595	1.840670	2.600591	0.379960	0.035158	-0.077408	-0.016356	0.999871	0.009203	0.013002	0.001900	
26939	    0	0.747622	-2.296428	3.681406	1.717415	1.432260	0.637832	0.007812	-0.023254	0.036560	0.999932	0.008587	0.007161	0.003189	
26940	    0	3.776574	-0.515733	0.508098	1.484129	0.763332	0.784504	0.037805	-0.005046	0.004899	0.999957	0.007421	0.003817	0.003922	
26941	    0	5.087736	-0.191452	0.710905	2.065322	0.519764	0.852222	0.050903	-0.001770	0.006958	0.999934	0.010326	0.002599	0.004261	
26942	    0	5.950821	-5.534381	-5.587144	5.057913	0.870804	1.049734	0.059545	-0.053591	-0.057501	0.999657	0.025287	0.004354	0.005248	
26943	    0	9.041280	-12.653517	9.848725	3.578393	0.571665	0.875905	0.091248	-0.127869	0.095947	0.999825	0.017891	0.002858	0.004379	
26944	    0	17.021794	-1.751345	-7.969845	3.340320	-0.716628	-0.804752	0.170434	-0.016871	-0.079373	0.999846	0.016701	-0.003583	-0.004024	
26945	    0	20.118944	16.677985	-17.876703	2.304899	-0.858901	-0.237280	0.202148	0.168579	-0.175964	0.999923	0.011524	-0.004294	-0.001186	
26946	    0	10.460255	35.114665	-2.642928	0.941093	-0.860603	-0.520710	0.105624	0.350990	-0.024324	0.999976	0.004705	-0.004303	-0.002604	
26947	    0	9.606409	36.880407	-0.687794	-0.285915	-0.788125	-1.412980	0.098694	0.368103	-0.007019	0.999966	-0.001430	-0.003941	-0.007065	
26948	    0	12.344125	34.783559	0.260938	-1.466040	-0.705172	-2.418031	0.127630	0.346318	0.000512	0.999893	-0.007330	-0.003526	-0.012090	
26949	    0	17.833198	11.549418	-0.785136	-0.957540	-0.375959	-3.440279	0.180298	0.112366	-0.008057	0.999839	-0.004787	-0.001880	-0.017200	
26950	    0	25.647709	11.129123	-0.811949	-0.007439	-0.325230	-4.458417	0.258885	0.105537	-0.007704	0.999750	-0.000037	-0.001626	-0.022290	
26951	    0	24.275221	18.514734	-1.289385	0.312829	-0.228709	-4.267447	0.246643	0.179932	-0.012329	0.999770	0.001564	-0.001143	-0.021336	
26952	    0	20.357364	16.287385	-2.034064	0.032236	-0.061802	-3.787649	0.206615	0.158983	-0.020251	0.999820	0.000161	-0.000309	-0.018937	
26953	    0	24.279699	9.867819	-2.557453	0.345634	0.034525	-3.974415	0.244690	0.093872	-0.025452	0.999801	0.001728	0.000173	-0.019871	
26954	    0	27.782176	7.217753	-3.898192	0.148786	0.000382	-4.488368	0.279348	0.065948	-0.038932	0.999747	0.000744	0.000002	-0.022440	
26955	    0	28.572772	4.672986	-4.919987	-0.949762	-0.057989	-4.764262	0.286743	0.039673	-0.049316	0.999704	-0.004748	-0.000290	-0.023819	
26956	    0	28.452428	4.166614	-2.885627	-1.856256	0.088893	-4.936027	0.285419	0.034358	-0.029325	0.999652	-0.009280	0.000444	-0.024677	
26957	    0	27.243765	3.861665	-1.387810	-2.639926	0.325055	-4.943734	0.273254	0.031677	-0.014771	0.999605	-0.013198	0.001625	-0.024715	
26958	    0	26.164907	0.697335	-0.089935	-3.276726	0.567137	-4.854903	0.261711	0.000597	-0.001686	0.999567	-0.016381	0.002835	-0.024271	
26959	    0	23.624226	0.029814	-0.351160	-3.564989	0.645735	-4.791980	0.236145	-0.005432	-0.004211	0.999549	-0.017822	0.003228	-0.023956	
26960	    0	21.054557	-1.552165	-2.563688	-4.057947	0.495797	-4.562519	0.210047	-0.020840	-0.025771	0.999531	-0.020287	0.002479	-0.022809	
26961	    0	18.824116	-6.329437	-4.142700	-4.496529	0.311329	-4.238042	0.186768	-0.068176	-0.040222	0.999521	-0.022479	0.001556	-0.021187	
26962	    0	15.468528	-12.449329	-5.504511	-4.176123	0.232727	-3.798799	0.152207	-0.128515	-0.052567	0.999600	-0.020878	0.001163	-0.018991	
26963	    0	10.282730	-17.006478	-7.159525	-3.258044	0.468678	-3.268726	0.099854	-0.172852	-0.069031	0.999730	-0.016289	0.002343	-0.016342	
26964	    0	6.146348	-18.024884	-9.522189	-2.753620	0.658267	-2.630207	0.058766	-0.182323	-0.092917	0.999813	-0.013767	0.003291	-0.013150	
26965	    0	5.106636	-18.457678	-10.897759	-2.794027	0.508334	-2.048597	0.048889	-0.186584	-0.106506	0.999846	-0.013969	0.002542	-0.010242	
26966	    0	5.606669	-16.622610	-8.086768	-2.727244	0.573374	-1.581069	0.054517	-0.167745	-0.078745	0.999871	-0.013636	0.002867	-0.007905	
26967	    0	5.728485	-18.702808	-4.379844	-2.587222	0.686861	-1.247451	0.055969	-0.187927	-0.041565	0.999890	-0.012936	0.003434	-0.006237	
26968	    0	5.583295	-21.333212	-3.153935	-1.659040	0.720418	-0.916687	0.054744	-0.213838	-0.029965	0.999949	-0.008295	0.003602	-0.004583	
26969	    0	4.795811	-16.985977	-3.987871	0.141145	0.686077	-0.897222	0.047058	-0.170044	-0.040161	0.999984	0.000706	0.003430	-0.004486	
26970	    0	2.084732	-15.587448	-2.321762	0.873191	0.412753	-0.950439	0.020058	-0.155868	-0.023940	0.999976	0.004366	0.002064	-0.004752	
26971	    0	-0.190859	-15.379103	1.528410	0.348855	-0.102234	-0.762179	-0.002502	-0.153809	0.015015	0.999990	0.001744	-0.000511	-0.003811	
26972	    0	0.839143	-12.743462	2.808782	-0.251580	-0.478364	-0.192070	0.008202	-0.127407	0.028268	0.999995	-0.001258	-0.002392	-0.000960	
26973	    0	4.859104	-10.559190	-0.789097	-0.383759	-0.242424	0.315857	0.048767	-0.105530	-0.007629	0.999995	-0.001919	-0.001212	0.001579	
26974	    0	6.199757	-10.218827	-1.584373	-0.364305	0.268555	0.678446	0.062323	-0.102006	-0.015741	0.999991	-0.001822	0.001343	0.003392	
26975	    0	4.790874	-10.307467	-0.028976	-0.461581	0.542644	0.957495	0.048401	-0.102844	-0.000183	0.999982	-0.002308	0.002713	0.004787	
26976	    0	3.071742	-9.140677	-0.584892	-0.170900	0.599866	1.234637	0.031263	-0.091220	-0.005864	0.999975	-0.000854	0.002999	0.006173	
26977	    0	2.458003	-7.797879	-1.888576	0.228312	0.547797	1.589222	0.025146	-0.077759	-0.019043	0.999964	0.001142	0.002739	0.007946	
26978	    0	4.179856	-7.112942	-2.749729	0.624096	0.403602	1.946866	0.042432	-0.070632	-0.027803	0.999946	0.003120	0.002018	0.009734	
26979	    0	6.637721	-6.333854	-3.453185	1.317633	0.267227	2.188170	0.067017	-0.062378	-0.035034	0.999917	0.006588	0.001336	0.010941	
26980	    0	9.292987	-5.086124	-3.996837	1.857826	0.141340	2.308358	0.093477	-0.049410	-0.040498	0.999889	0.009289	0.000707	0.011541	
26981	    0	13.351717	-2.611604	-5.190076	2.030452	0.049593	2.302642	0.133789	-0.024048	-0.052185	0.999882	0.010152	0.000248	0.011513	
26982	    0	19.471113	-0.398803	-7.842637	2.116858	-0.137334	2.206507	0.194787	-0.001010	-0.078314	0.999883	0.010584	-0.000687	0.011032	
26983	    0	27.606504	1.368709	-9.743140	1.928012	-0.210388	2.052375	0.276001	0.017456	-0.096985	0.999900	0.009640	-0.001052	0.010262	
26984	    0	33.802549	6.590946	-7.867358	1.152074	-0.190169	2.469903	0.337248	0.070528	-0.077955	0.999907	0.005760	-0.000951	0.012349	
26985	    0	30.251911	9.494840	-4.742662	0.215159	-0.376719	3.341833	0.300964	0.100037	-0.046753	0.999858	0.001076	-0.001884	0.016708	
26986	    0	24.488728	7.695954	-2.844873	-0.348303	-0.720641	3.770871	0.243480	0.081511	-0.027709	0.999814	-0.001741	-0.003603	0.018853	
26987	    0	25.699488	7.157300	-3.031202	-0.333238	-1.128468	3.962990	0.255676	0.076599	-0.028992	0.999786	-0.001666	-0.005642	0.019814	
26988	    0	28.745328	7.136753	-4.134970	0.038722	-1.535528	3.902340	0.286294	0.076969	-0.039134	0.999780	0.000194	-0.007677	0.019510	
26989	    0	29.086337	8.726618	-5.858113	0.247974	-1.807351	3.875266	0.289612	0.092957	-0.055847	0.999770	0.001240	-0.009036	0.019375	
26990	    0	28.482321	11.491899	-6.117458	0.308062	-1.974458	3.954448	0.283060	0.120619	-0.058191	0.999754	0.001540	-0.009871	0.019771	
26991	    0	25.836930	13.158928	-5.347776	0.590756	-1.978470	4.017218	0.256165	0.136902	-0.050537	0.999744	0.002954	-0.009892	0.020084	
26992	    0	22.499083	12.635640	-4.564882	1.048556	-1.702640	3.983255	0.222786	0.131039	-0.043067	0.999751	0.005242	-0.008512	0.019915	
26993	    0	19.828546	11.533195	-4.189355	1.481168	-1.367291	3.748604	0.196350	0.119324	-0.039673	0.999773	0.007405	-0.006836	0.018742	
26994	    0	17.340066	11.219946	-3.920467	1.936855	-0.870574	3.470088	0.171580	0.115555	-0.037347	0.999793	0.009684	-0.004353	0.017349	
26995	    0	14.593079	12.199413	-2.316919	2.383773	-0.290699	3.202271	0.143982	0.124573	-0.021484	0.999800	0.011918	-0.001453	0.016010	
26996	    0	10.310711	13.723167	0.583169	2.740278	0.237481	2.872275	0.101131	0.138597	0.007604	0.999802	0.013700	0.001187	0.014360	
26997	    0	5.483070	14.938985	1.914898	2.638581	0.474575	2.458326	0.053040	0.149780	0.020996	0.999834	0.013192	0.002373	0.012291	
26998	    0	3.226796	15.501477	2.953960	2.535559	0.736844	2.107339	0.030748	0.154954	0.031389	0.999857	0.012677	0.003684	0.010536	
26999	    0	0.995943	14.233746	2.826159	2.288912	0.931015	1.924212	0.008728	0.142090	0.029846	0.999877	0.011444	0.004655	0.009621	
27000	    0	-1.836349	14.782961	-0.346387	1.216536	0.939010	1.844641	-0.019739	0.147669	-0.002475	0.999928	0.006083	0.004695	0.009223	
27001	    0	-3.047482	14.616221	0.322731	0.754561	0.818839	1.751740	-0.031738	0.145874	0.003906	0.999946	0.003773	0.004094	0.008759	
27002	    0	-2.511338	14.876627	0.363599	0.192262	0.506978	1.375211	-0.026126	0.148585	0.003844	0.999972	0.000961	0.002535	0.006876	
