// Start Time: Unknown
// Update Rate: 75.0Hz
// Filter Profile: human (34.3)
// Firmware Version: 2.1.4
PacketCounter	SampleTimeFine	Acc_X	Acc_Y	Acc_Z	Gyr_X	Gyr_Y	Gyr_Z	VelInc_X	VelInc_Y	VelInc_Z	OriInc_q0	OriInc_q1	OriInc_q2	OriInc_q3	
14240	    0	20.203828	-9.944447	-0.191498	-3.514705	0.254658	-1.304620	0.268216	-0.134947	0.000134	0.999686	-0.023429	0.001698	-0.008697	
14241	    0	16.060707	-14.975898	-2.438812	-2.921171	0.317024	-1.023175	0.212708	-0.201721	-0.029053	0.999784	-0.019473	0.002113	-0.006821	
14242	    0	10.293293	-15.359929	-5.808618	-1.289058	0.272517	-0.860039	0.135925	-0.206238	-0.075928	0.999945	-0.008594	0.001817	-0.005733	
14243	    0	9.908461	-6.052090	-3.033743	0.370940	0.066949	-1.709214	0.131165	-0.082092	-0.040710	0.999931	0.002473	0.000446	-0.011395	
14244	    0	4.975000	6.970759	-6.122028	0.368666	0.181400	-2.860055	0.067993	0.091858	-0.081482	0.999814	0.002458	0.001209	-0.019066	
14245	    0	13.678785	1.332710	-10.199620	0.377681	0.880255	-2.905284	0.181885	0.014587	-0.137024	0.999791	0.002518	0.005868	-0.019367	
14246	    0	10.181118	-9.177246	-7.670196	0.798852	0.905861	-2.770230	0.132841	-0.124285	-0.103736	0.999797	0.005325	0.006039	-0.018467	
14247	    0	11.694252	-11.541848	-5.021796	0.629623	0.730769	-3.300765	0.152161	-0.156982	-0.068359	0.999737	0.004197	0.004871	-0.022003	
14248	    0	14.542463	-10.253010	-5.466158	-0.216175	0.546804	-3.891867	0.189998	-0.141776	-0.073378	0.999656	-0.001441	0.003645	-0.025943	
14249	    0	15.716588	-10.678413	-5.153898	-0.961430	0.420196	-4.076348	0.205383	-0.148438	-0.068359	0.999606	-0.006409	0.002801	-0.027172	
14250	    0	16.680049	-11.292925	-4.315628	-1.110226	0.417766	-4.091240	0.218018	-0.156982	-0.057007	0.999597	-0.007401	0.002785	-0.027271	
14251	    0	18.397190	-10.965751	-3.486639	-0.814350	0.556396	-4.015096	0.241089	-0.152954	-0.046570	0.999619	-0.005428	0.003709	-0.026764	
14252	    0	21.509521	-11.030965	-2.715154	-0.460104	0.757254	-3.782695	0.282776	-0.154358	-0.037170	0.999664	-0.003067	0.005048	-0.025215	
14253	    0	27.313630	-10.900381	-2.094739	0.117885	1.049094	-3.420391	0.360535	-0.153564	-0.030579	0.999715	0.000786	0.006993	-0.022800	
14254	    0	26.602322	-11.115709	-2.014066	1.032050	0.881548	-2.909024	0.351567	-0.154849	-0.029977	0.999770	0.006880	0.005877	-0.019392	
14255	    0	20.541221	-8.585095	-1.953352	1.204692	0.735318	-2.121264	0.272095	-0.118103	-0.028320	0.999855	0.008031	0.004902	-0.014141	
14256	    0	14.282861	-2.758066	-1.944539	1.040287	0.670779	-0.972766	0.190076	-0.037823	-0.027038	0.999945	0.006935	0.004472	-0.006485	
14257	    0	7.843401	0.371105	-3.050134	0.535158	0.700956	0.485233	0.104370	0.005432	-0.041138	0.999977	0.003568	0.004673	0.003235	
14258	    0	4.029327	-0.091828	-4.173841	0.172240	0.717570	2.053142	0.053467	-0.000427	-0.055908	0.999894	0.001148	0.004784	0.013687	
14259	    0	3.860803	-0.107589	-4.416638	0.087556	0.564391	3.555449	0.051270	-0.000183	-0.059082	0.999711	0.000584	0.003762	0.023701	
14260	    0	3.943658	-0.108939	-3.543817	0.189576	0.319918	4.848567	0.052490	0.000305	-0.047363	0.999475	0.001264	0.002132	0.032318	
14261	    0	4.757950	0.954241	-2.918641	0.389773	0.004150	5.935317	0.062866	0.015320	-0.038879	0.999213	0.002598	0.000028	0.039558	
14262	    0	7.115784	1.377927	-2.935021	0.391671	-0.297510	6.939896	0.093966	0.022837	-0.038891	0.998924	0.002610	-0.001983	0.046249	
14263	    0	9.364213	0.935182	-2.834638	0.433925	-0.620976	7.721338	0.124146	0.018982	-0.037231	0.998662	0.002892	-0.004138	0.051453	
14264	    0	10.929335	0.206976	-2.616044	0.681850	-0.972251	8.288252	0.145492	0.010962	-0.033899	0.998442	0.004543	-0.006478	0.055226	
14265	    0	13.087751	-0.164791	-2.365685	0.803974	-1.279030	8.617709	0.174500	0.007996	-0.030029	0.998299	0.005357	-0.008522	0.057419	
14266	    0	15.245578	0.936892	-2.602567	0.643687	-1.494207	8.849300	0.202393	0.024597	-0.032593	0.998201	0.004289	-0.009955	0.058960	
14267	    0	16.832366	1.392097	-2.360642	0.325788	-1.584709	9.040758	0.223083	0.032104	-0.029053	0.998126	0.002171	-0.010558	0.060234	
14268	    0	18.777909	2.419230	-2.075884	0.006441	-1.561404	9.176038	0.248047	0.047485	-0.025085	0.998075	0.000043	-0.010403	0.061134	
14269	    0	20.780342	4.832222	-2.691449	-0.300028	-1.449610	9.194940	0.272766	0.081177	-0.033386	0.998073	-0.001999	-0.009658	0.061260	
14270	    0	22.430627	10.372730	-2.726889	-0.967624	-1.218978	9.006923	0.290359	0.155691	-0.034942	0.998143	-0.006447	-0.008121	0.060009	
14271	    0	23.835268	13.586675	0.127113	-1.746247	-1.034437	8.658522	0.306641	0.199097	0.001587	0.998242	-0.011635	-0.006892	0.057690	
14272	    0	25.953460	16.657719	2.874951	-1.571320	-0.978086	7.875636	0.333497	0.240238	0.038081	0.998546	-0.010470	-0.006517	0.052479	
14273	    0	25.131819	20.728073	1.265149	-0.260867	-0.974208	6.538413	0.322510	0.290649	0.018494	0.999027	-0.001739	-0.006493	0.043575	
14274	    0	20.642954	30.506720	0.390537	1.260792	-1.061057	4.630536	0.262451	0.414917	0.010559	0.999463	0.008404	-0.007072	0.030865	
14275	    0	14.404629	38.790956	3.825140	1.912610	-1.033487	2.547667	0.182861	0.519653	0.058899	0.999750	0.012750	-0.006889	0.016983	
14276	    0	9.685179	40.940285	3.525517	2.388069	-0.754202	0.526454	0.126953	0.545471	0.056335	0.999854	0.015920	-0.005028	0.003510	
14277	    0	8.331995	38.816110	0.228910	2.558629	-0.446347	-1.280673	0.115479	0.516418	0.012207	0.999813	0.017056	-0.002975	-0.008537	
14278	    0	11.219941	32.988861	-2.291652	2.637318	-0.461252	-2.972812	0.158360	0.437212	-0.022374	0.999644	0.017580	-0.003075	-0.019816	
14279	    0	14.896898	31.842073	-11.143819	2.915057	-0.967822	-4.677713	0.212708	0.420837	-0.139038	0.999304	0.019429	-0.006451	-0.031178	
14280	    0	28.953075	38.001149	-10.114165	0.166423	-0.481381	-6.610973	0.408291	0.489159	-0.133019	0.999022	0.001109	-0.003208	-0.044059	
14281	    0	46.617666	-15.830029	-3.244758	-1.420149	0.146680	-6.811106	0.611084	-0.239380	-0.041687	0.998923	-0.009464	0.000978	-0.045391	
14282	    0	34.227285	22.628261	-9.212820	2.083660	-1.090569	-8.742298	0.473816	0.276062	-0.115479	0.998178	0.013883	-0.007266	-0.058247	
14283	    0	25.858863	23.614016	12.908142	-2.115543	-0.102764	-8.120529	0.361111	0.297982	0.168069	0.998434	-0.014096	-0.000685	-0.054109	
14284	    0	0.193707	6.034896	8.104131	-0.090440	-0.834420	-6.780107	0.005615	0.080322	0.108032	0.998962	-0.000603	-0.005561	-0.045185	
14285	    0	1.602968	12.779471	-2.418034	-0.271147	-0.802422	-5.608942	0.027893	0.169373	-0.032410	0.999285	-0.001807	-0.005348	-0.037384	
14286	    0	11.914354	6.185137	-2.430276	-0.243084	-0.593331	-4.678832	0.161452	0.077407	-0.031897	0.999504	-0.001620	-0.003955	-0.031187	
14287	    0	14.752782	12.339609	-6.691249	-0.400451	-0.309602	-4.111813	0.201294	0.158813	-0.089233	0.999619	-0.002669	-0.002064	-0.027409	
14288	    0	14.764538	8.074450	-6.124424	-0.999025	-0.140776	-3.508962	0.199375	0.102468	-0.082167	0.999703	-0.006660	-0.000938	-0.023391	
14289	    0	21.589109	7.695296	-1.722097	-0.846213	-0.041202	-3.130775	0.289917	0.096436	-0.023438	0.999765	-0.005641	-0.000275	-0.020870	
14290	    0	25.091844	5.788971	1.114854	-0.840055	0.105293	-2.945342	0.335999	0.070679	0.014221	0.999791	-0.005600	0.000702	-0.019634	
14291	    0	24.837533	2.884941	3.145007	-0.807287	0.165377	-2.757623	0.331848	0.032593	0.041382	0.999815	-0.005382	0.001102	-0.018383	
14292	    0	23.882537	3.103598	2.216236	-1.384817	0.183259	-2.451469	0.319092	0.036438	0.028809	0.999823	-0.009232	0.001222	-0.016342	
14293	    0	22.674651	0.710391	1.342390	-2.311721	0.074964	-1.957645	0.302429	0.005798	0.017639	0.999796	-0.015410	0.000500	-0.013050	
14294	    0	20.904647	-3.605792	1.273558	-3.349016	-0.033620	-1.466992	0.278239	-0.050404	0.018151	0.999702	-0.022325	-0.000224	-0.009779	
14295	    0	20.453271	-6.325907	0.322566	-3.574365	0.031045	-1.186305	0.272034	-0.086365	0.006287	0.999684	-0.023827	0.000207	-0.007908	
14296	    0	19.259512	-13.099162	-1.633059	-2.950923	0.212017	-0.853360	0.255765	-0.176500	-0.018676	0.999789	-0.019671	0.001413	-0.005689	
14297	    0	13.522095	-16.937822	-4.874788	-1.542695	0.269657	-0.568211	0.179321	-0.227173	-0.062988	0.999938	-0.010284	0.001798	-0.003788	
14298	    0	10.074478	-13.534237	-5.433698	0.288536	0.156928	-0.938995	0.133118	-0.181152	-0.072937	0.999977	0.001924	0.001046	-0.006260	
14299	    0	8.523610	4.037573	-4.609805	0.630168	0.611141	-2.269463	0.114197	0.052368	-0.061707	0.999868	0.004201	0.004074	-0.015129	
14300	    0	7.396502	6.271735	-14.762948	0.240913	0.941477	-2.712417	0.098877	0.082153	-0.197327	0.999815	0.001606	0.006276	-0.018082	
14301	    0	10.218659	-6.991293	-12.942960	0.118024	0.771946	-2.582499	0.133728	-0.095398	-0.173340	0.999838	0.000787	0.005146	-0.017216	
14302	    0	14.211978	-10.983334	-4.398958	-0.735339	0.691848	-3.034917	0.186204	-0.150522	-0.058785	0.999772	-0.004902	0.004612	-0.020231	
14303	    0	16.702638	-13.191381	-3.803577	-2.139184	0.505467	-3.613951	0.218201	-0.181885	-0.048889	0.999602	-0.014259	0.003369	-0.024090	
14304	    0	18.523713	-15.793829	-4.485681	-2.915043	0.288872	-3.929599	0.241224	-0.218069	-0.056087	0.999466	-0.019430	0.001925	-0.026193	
14305	    0	18.906663	-15.637385	-3.131570	-2.618306	0.294309	-4.156095	0.246094	-0.216064	-0.038513	0.999461	-0.017452	0.001962	-0.027702	
14306	    0	19.660003	-15.019761	-2.177853	-1.284782	0.355962	-4.179406	0.256348	-0.207703	-0.027893	0.999572	-0.008564	0.002373	-0.027859	
14307	    0	21.018821	-12.787675	-2.566255	0.254660	0.446514	-3.913187	0.275574	-0.177673	-0.035339	0.999654	0.001698	0.002976	-0.026085	
14308	    0	25.051218	-9.113174	-3.143494	1.007751	0.700018	-3.419257	0.330933	-0.128784	-0.044312	0.999706	0.006718	0.004666	-0.022793	
14309	    0	25.555141	-8.351167	-2.802755	1.265811	0.749787	-2.809162	0.338379	-0.117371	-0.040039	0.999776	0.008438	0.004998	-0.018726	
14310	    0	20.152659	-8.171406	-2.803112	1.161768	0.577808	-2.014818	0.267060	-0.112247	-0.039267	0.999872	0.007745	0.003852	-0.013432	
14311	    0	14.027956	-4.527748	-2.315085	0.999084	0.520285	-0.850309	0.186584	-0.061218	-0.031921	0.999955	0.006660	0.003469	-0.005669	
14312	    0	7.429766	-0.685400	-3.121853	0.747735	0.477795	0.592094	0.098965	-0.008539	-0.041984	0.999974	0.004985	0.003185	0.003947	
14313	    0	4.681761	-0.303579	-3.334272	0.355494	0.511567	1.994770	0.062317	-0.003113	-0.044678	0.999903	0.002370	0.003410	0.013298	
14314	    0	3.900600	-0.842693	-3.545242	0.402294	0.364525	3.340814	0.052124	-0.009949	-0.047424	0.999745	0.002682	0.002430	0.022270	
14315	    0	3.735461	0.383955	-3.567579	0.404613	0.170687	4.613847	0.049561	0.006775	-0.047607	0.999522	0.002697	0.001138	0.030754	
14316	    0	4.079731	-0.035053	-3.472321	0.457878	-0.082275	5.780134	0.054382	0.001770	-0.046265	0.999252	0.003052	-0.000548	0.038525	
14317	    0	5.901164	0.422965	-3.605835	0.622917	-0.367483	6.801291	0.078430	0.009399	-0.047852	0.998960	0.004151	-0.002449	0.045326	
14318	    0	8.639685	0.997274	-3.455160	0.613388	-0.649739	7.673079	0.114507	0.019355	-0.045501	0.998673	0.004087	-0.004330	0.051131	
14319	    0	11.586549	0.748610	-3.165797	0.503946	-0.933180	8.326488	0.153870	0.018677	-0.041199	0.998434	0.003358	-0.006218	0.055481	
14320	    0	13.093741	-0.261599	-2.595846	0.473349	-1.286501	8.811991	0.174670	0.006882	-0.033102	0.998233	0.003154	-0.008572	0.058712	
14321	    0	15.761989	-0.334046	-1.748154	0.351557	-1.599611	9.107261	0.210144	0.008362	-0.021057	0.998097	0.002342	-0.010657	0.060677	
14322	    0	18.029147	0.441258	-0.714800	0.201550	-1.824255	9.290189	0.239502	0.020752	-0.006592	0.998008	0.001343	-0.012154	0.061893	
14323	    0	20.521629	1.059724	0.488779	0.291451	-1.894572	9.396277	0.271912	0.031189	0.010010	0.997956	0.001942	-0.012622	0.062599	
14324	    0	23.364983	4.215370	0.644830	0.470092	-1.707878	9.302787	0.307129	0.075317	0.012329	0.998007	0.003132	-0.011378	0.061977	
14325	    0	25.848187	11.240871	1.060617	0.176490	-1.303705	8.980508	0.334717	0.170105	0.017273	0.998169	0.001176	-0.008686	0.059834	
14326	    0	27.347902	16.929686	1.913249	-0.072137	-0.984154	8.501707	0.350901	0.245897	0.027728	0.998372	-0.000481	-0.006557	0.056647	
14327	    0	28.672471	21.430540	0.908348	0.309841	-0.773958	7.621650	0.367065	0.304626	0.014648	0.998693	0.002065	-0.005157	0.050789	
14328	    0	26.313484	28.369813	-2.307775	1.606920	-0.810614	5.916698	0.335707	0.391994	-0.024777	0.999149	0.010710	-0.005403	0.039433	
14329	    0	18.940556	42.464074	-1.216869	2.102708	-0.897339	3.621975	0.238831	0.572205	-0.006775	0.999592	0.014016	-0.005981	0.024143	
14330	    0	12.141184	47.437843	3.304197	1.884926	-0.687248	1.410547	0.155701	0.633362	0.052734	0.999866	0.012566	-0.004581	0.009403	
14331	    0	9.761761	45.637551	2.852956	1.915370	-0.250633	-0.597972	0.132507	0.607422	0.046021	0.999908	0.012769	-0.001671	-0.003986	
14332	    0	13.633785	38.259304	-3.889187	2.381877	-0.259232	-2.580880	0.190613	0.507629	-0.043457	0.999724	0.015878	-0.001728	-0.017204	
14333	    0	17.756987	49.052302	-16.937386	2.917847	-0.887574	-5.031541	0.259888	0.649780	-0.211670	0.999230	0.019447	-0.005916	-0.033535	
14334	    0	31.192480	33.942027	-10.278950	-1.516021	-0.070979	-6.747252	0.435706	0.431840	-0.141285	0.998937	-0.010103	-0.000473	-0.044966	
14335	    0	40.518409	-27.656861	-3.911671	-1.695348	0.222097	-6.824325	0.522644	-0.393372	-0.048584	0.998899	-0.011298	0.001480	-0.045479	
14336	    0	26.035933	21.711885	-15.791494	2.377291	-1.209758	-8.357234	0.364319	0.272766	-0.203247	0.998290	0.015840	-0.008060	-0.055683	
14337	    0	22.738266	29.096628	12.671235	-2.676293	0.095607	-7.901641	0.323242	0.374207	0.161987	0.998453	-0.017833	0.000637	-0.052650	
14338	    0	-2.573687	6.925936	7.341870	-0.274168	-0.590120	-6.326473	-0.030762	0.093872	0.097595	0.999101	-0.001827	-0.003933	-0.042164	
14339	    0	5.418156	9.987371	-1.416982	-0.515666	-0.600228	-5.306612	0.076965	0.130432	-0.019043	0.999360	-0.003437	-0.004001	-0.035370	
14340	    0	11.044419	6.828921	-2.736327	-0.286146	-0.461125	-4.522828	0.150024	0.086487	-0.036194	0.999538	-0.001907	-0.003074	-0.030148	
14341	    0	13.191620	11.317686	-2.238111	-0.335779	-0.274117	-3.862241	0.179749	0.146240	-0.029846	0.999664	-0.002238	-0.001827	-0.025745	
14342	    0	14.596092	10.498809	-5.125684	-0.943788	-0.014736	-3.243959	0.197581	0.135299	-0.069184	0.999746	-0.006291	-0.000098	-0.021625	
14343	    0	17.462527	7.320442	-4.468649	-0.962937	-0.005150	-2.733591	0.234558	0.092957	-0.060181	0.999813	-0.006419	-0.000034	-0.018223	
14344	    0	21.949375	6.417034	-0.857057	-0.913854	0.156362	-2.357452	0.293941	0.080874	-0.012236	0.999857	-0.006092	0.001042	-0.015716	
14345	    0	25.540138	5.424951	2.075916	-0.912134	0.311436	-2.220822	0.341614	0.067444	0.026550	0.999869	-0.006081	0.002076	-0.014805	
14346	    0	27.623622	4.352181	3.512912	-1.110698	0.341621	-2.142428	0.369202	0.053101	0.045593	0.999867	-0.007404	0.002277	-0.014282	
14347	    0	26.571449	0.214037	3.047310	-2.042744	0.300425	-1.852904	0.354370	-0.000977	0.039917	0.999828	-0.013618	0.002003	-0.012352	
14348	    0	24.241059	-3.830866	1.669496	-2.983573	0.224322	-1.403731	0.322754	-0.053650	0.022827	0.999757	-0.019889	0.001495	-0.009357	
14349	    0	22.879965	-7.160700	-0.430913	-3.669808	0.234057	-1.139957	0.304321	-0.097900	-0.003845	0.999670	-0.024463	0.001560	-0.007599	
14350	    0	20.677768	-12.770010	-2.606514	-3.496797	0.363958	-0.891725	0.274603	-0.172660	-0.031414	0.999707	-0.023310	0.002426	-0.005944	
14351	    0	15.762285	-16.394636	-5.182335	-2.716986	0.401282	-0.599133	0.209106	-0.220642	-0.065674	0.999824	-0.018112	0.002675	-0.003994	
14352	    0	11.470620	-12.757114	-5.369975	-0.878773	0.295547	-0.849305	0.151834	-0.171373	-0.070898	0.999965	-0.005858	0.001970	-0.005662	
14353	    0	8.313595	0.979835	-2.966371	-0.417725	0.449341	-2.165876	0.110901	0.011353	-0.039917	0.999887	-0.002785	0.002995	-0.014439	
14354	    0	6.799314	8.057837	-10.363530	-1.198306	1.126774	-3.108500	0.091797	0.104431	-0.139709	0.999724	-0.007988	0.007511	-0.020721	
14355	    0	13.865048	-3.942602	-15.086899	-0.732484	1.184135	-3.079293	0.182129	-0.057312	-0.202332	0.999745	-0.004883	0.007894	-0.020527	
14356	    0	11.968536	-13.443977	-7.260235	-0.624760	1.250952	-3.188038	0.154907	-0.182983	-0.097351	0.999730	-0.004165	0.008339	-0.021252	
14357	    0	16.370953	-12.771968	-3.668749	-0.420486	0.961437	-4.204000	0.213074	-0.176453	-0.049805	0.999582	-0.002803	0.006409	-0.028023	
14358	    0	19.223403	-12.384519	-4.811831	-1.256489	0.663298	-4.581278	0.250817	-0.173380	-0.063846	0.999488	-0.008375	0.004421	-0.030537	
14359	    0	18.588307	-14.322456	-6.062975	-1.867882	0.625536	-4.619126	0.241455	-0.199463	-0.079407	0.999439	-0.012450	0.004169	-0.030788	
14360	    0	18.951549	-15.420838	-5.554086	-1.489137	0.667737	-4.581443	0.245911	-0.213921	-0.073063	0.999474	-0.009926	0.004451	-0.030538	
14361	    0	20.460120	-13.877025	-3.935917	-0.794913	0.739543	-4.389474	0.266968	-0.193176	-0.052795	0.999545	-0.005299	0.004930	-0.029259	
14362	    0	23.388171	-11.617141	-2.778423	-0.050217	0.857413	-4.031116	0.307312	-0.163208	-0.038757	0.999622	-0.000335	0.005715	-0.026871	
14363	    0	24.532601	-11.353276	-2.886067	0.671262	0.932929	-3.463896	0.323242	-0.158691	-0.041199	0.999703	0.004475	0.006219	-0.023090	
14364	    0	20.361674	-10.456799	-2.803895	1.099994	0.861226	-2.660929	0.268738	-0.143921	-0.039978	0.999799	0.007333	0.005741	-0.017738	
14365	    0	15.981889	-6.597394	-1.716997	1.393513	0.746754	-1.571332	0.212036	-0.089966	-0.024780	0.999889	0.009290	0.004978	-0.010475	
14366	    0	10.965535	-2.132562	-2.819339	1.372315	0.697673	-0.311714	0.145970	-0.028388	-0.038530	0.999945	0.009149	0.004651	-0.002078	
14367	    0	5.681241	-0.883812	-4.140809	1.088358	0.738876	1.146724	0.075562	-0.010803	-0.055664	0.999932	0.007256	0.004926	0.007645	
14368	    0	3.299800	-0.333930	-5.166583	1.028604	0.704859	2.677232	0.043737	-0.003197	-0.069118	0.999805	0.006857	0.004699	0.017847	
14369	    0	2.538370	0.930408	-5.715437	1.029538	0.533511	4.157640	0.033203	0.013855	-0.076233	0.999585	0.006863	0.003556	0.027714	
14370	    0	2.668891	0.838738	-6.066291	0.995435	0.298330	5.459509	0.034973	0.013000	-0.080872	0.999313	0.006635	0.001988	0.036388	
14371	    0	4.011039	0.533186	-5.713574	0.978936	-0.032054	6.600268	0.053101	0.009949	-0.076111	0.999010	0.006524	-0.000214	0.043987	
14372	    0	6.706256	0.640652	-5.020740	0.875993	-0.376673	7.563795	0.088989	0.013428	-0.066650	0.998708	0.005837	-0.002510	0.050404	
14373	    0	9.681484	0.379688	-4.022515	0.733946	-0.705178	8.293244	0.128784	0.012451	-0.052979	0.998448	0.004890	-0.004699	0.055260	
14374	    0	12.256652	-0.404355	-3.509512	0.827457	-1.074220	8.732888	0.163686	0.004391	-0.045615	0.998264	0.005513	-0.007157	0.058186	
14375	    0	14.385769	0.072188	-3.063591	0.995699	-1.445596	9.114168	0.191650	0.012878	-0.038940	0.998086	0.006634	-0.009631	0.060722	
14376	    0	16.857662	1.268526	-3.069049	0.727476	-1.701596	9.357129	0.223568	0.031081	-0.038251	0.997978	0.004847	-0.011336	0.062339	
14377	    0	18.733040	1.616175	-3.148362	0.414567	-1.887738	9.533315	0.248230	0.037476	-0.038757	0.997897	0.002762	-0.012576	0.063511	
14378	    0	21.142909	2.712260	-2.856508	0.277716	-1.977798	9.583790	0.279297	0.054138	-0.034302	0.997870	0.001850	-0.013176	0.063847	
14379	    0	24.090128	5.976937	-2.698039	0.107791	-1.881543	9.391108	0.315796	0.099609	-0.031921	0.997961	0.000718	-0.012535	0.062565	
14380	    0	26.470238	14.080922	-0.099442	-0.729869	-1.586560	8.966838	0.340881	0.208374	0.001343	0.998145	-0.004863	-0.010571	0.059742	
14381	    0	27.879532	19.271949	2.787229	-1.226187	-1.351711	8.379350	0.356262	0.277466	0.038208	0.998365	-0.008170	-0.009007	0.055832	
14382	    0	28.501733	21.458793	3.882457	-0.526925	-1.050130	7.260466	0.365216	0.304224	0.053310	0.998797	-0.003511	-0.006998	0.048384	
14383	    0	24.734324	28.078403	0.379310	1.353007	-1.018619	5.351934	0.316101	0.385742	0.010681	0.999299	0.009018	-0.006789	0.035671	
14384	    0	17.190343	42.503439	0.953024	2.225263	-1.063131	2.972931	0.217780	0.570817	0.022726	0.999668	0.014833	-0.007087	0.019817	
14385	    0	11.796114	46.565951	5.034072	2.314824	-0.848621	0.723302	0.153870	0.620483	0.077576	0.999853	0.015431	-0.005657	0.004822	
14386	    0	10.189747	44.186587	4.305245	2.407539	-0.391838	-1.179950	0.140320	0.587036	0.067200	0.999836	0.016049	-0.002612	-0.007866	
14387	    0	13.724242	35.820499	-4.519018	2.632602	-0.405742	-3.030761	0.192749	0.474731	-0.051392	0.999638	0.017549	-0.002705	-0.020203	
14388	    0	20.912707	47.885536	-14.171160	3.216946	-0.930698	-5.595635	0.303589	0.631287	-0.173523	0.999055	0.021440	-0.006203	-0.037292	
14389	    0	34.914579	20.442556	-3.539359	-0.730252	0.024041	-6.919290	0.477417	0.250488	-0.048523	0.998924	-0.004867	0.000160	-0.046112	
14390	    0	41.893417	-19.408035	1.296329	-0.160855	0.046940	-7.394879	0.544933	-0.285851	0.017409	0.998784	-0.001072	0.000313	-0.049279	
14391	    0	25.866777	31.108939	-14.432696	2.221445	-1.192452	-8.493593	0.369202	0.397095	-0.183594	0.998256	0.014801	-0.007945	-0.056591	
14392	    0	17.551958	22.400571	12.343152	-2.793436	-0.156718	-7.621051	0.248719	0.289284	0.159383	0.998535	-0.018614	-0.001044	-0.050782	
14393	    0	-0.989555	8.158396	3.473075	-0.332408	-0.661668	-6.332778	-0.008789	0.109314	0.046021	0.999096	-0.002215	-0.004410	-0.042206	
14394	    0	4.241285	8.747365	-1.124978	-0.521818	-0.821717	-5.253949	0.060669	0.114502	-0.015076	0.999365	-0.003478	-0.005477	-0.035019	
14395	    0	11.551215	9.835585	-1.794481	-0.505194	-0.646695	-4.574936	0.158020	0.126282	-0.023682	0.999519	-0.003367	-0.004311	-0.030495	
14396	    0	14.160894	11.152760	-4.860940	-0.668988	-0.406171	-3.949830	0.192810	0.143372	-0.064941	0.999640	-0.004459	-0.002707	-0.026329	
14397	    0	14.218572	8.470771	-5.232487	-1.137499	-0.129330	-3.243540	0.192017	0.108276	-0.070435	0.999737	-0.007583	-0.000862	-0.021622	
14398	    0	18.911408	6.785987	-3.239769	-0.914441	-0.108726	-2.785383	0.253802	0.085512	-0.043545	0.999808	-0.006096	-0.000725	-0.018568	
14399	    0	23.338611	7.474982	0.605962	-0.890824	0.117308	-2.423979	0.312744	0.094666	0.007263	0.999851	-0.005939	0.000782	-0.016159	
14400	    0	26.573058	5.557171	2.744884	-0.819005	0.177391	-2.327548	0.355445	0.068783	0.035793	0.999864	-0.005460	0.001183	-0.015516	
14401	    0	27.438665	4.736554	3.209664	-1.278222	0.169953	-2.163607	0.366760	0.058228	0.041870	0.999859	-0.008521	0.001133	-0.014423	
14402	    0	26.047846	-0.462411	3.078760	-2.281522	0.097281	-1.797979	0.347229	-0.009705	0.040955	0.999812	-0.015209	0.000648	-0.011986	
14403	    0	25.399462	-3.374961	1.649303	-3.279465	0.054364	-1.320771	0.338257	-0.047485	0.022888	0.999722	-0.021861	0.000362	-0.008804	
14404	    0	23.331243	-8.565067	-0.709795	-3.869568	0.115027	-1.082168	0.310242	-0.116638	-0.006714	0.999640	-0.025794	0.000767	-0.007214	
14405	    0	20.031395	-14.343824	-2.493328	-3.621279	0.190134	-0.774272	0.266052	-0.193359	-0.028931	0.999694	-0.024139	0.001267	-0.005161	
14406	    0	13.982646	-17.201045	-5.558797	-2.572765	0.284686	-0.519732	0.185500	-0.231221	-0.070515	0.999845	-0.017151	0.001898	-0.003465	
14407	    0	11.156378	-10.980202	-5.134608	-0.553327	0.137473	-0.940713	0.147766	-0.147583	-0.068054	0.999972	-0.003689	0.000916	-0.006271	
14408	    0	7.729359	4.073898	-3.450034	-0.451345	0.383107	-2.269313	0.103745	0.052613	-0.046425	0.999877	-0.003009	0.002554	-0.015128	
14409	    0	7.276486	7.111706	-13.659195	-0.920744	0.917453	-2.835478	0.097656	0.091858	-0.183289	0.999784	-0.006138	0.006116	-0.018902	
14410	    0	12.410110	-6.440879	-13.601135	-0.659651	1.015871	-2.678661	0.162659	-0.089600	-0.182068	0.999807	-0.004397	0.006772	-0.017857	
14411	    0	11.038419	-12.740302	-6.229771	-0.522317	0.943061	-2.917880	0.143311	-0.172974	-0.083374	0.999784	-0.003482	0.006287	-0.019451	
14412	    0	15.022870	-12.465444	-5.435174	-0.742236	0.670273	-3.853678	0.195618	-0.171631	-0.072510	0.999647	-0.004948	0.004468	-0.025688	
14413	    0	17.745942	-12.892249	-5.484709	-1.565212	0.395023	-4.171990	0.231506	-0.179138	-0.071899	0.999555	-0.010433	0.002633	-0.027809	
14414	    0	17.407970	-13.944502	-4.860326	-2.050407	0.335225	-4.262203	0.226542	-0.193284	-0.062706	0.999500	-0.013667	0.002234	-0.028410	
14415	    0	18.195329	-14.224354	-3.969260	-1.707011	0.428649	-4.253292	0.236938	-0.197021	-0.051392	0.999529	-0.011378	0.002857	-0.028351	
14416	    0	19.817483	-13.636951	-2.790177	-1.013657	0.523067	-4.154920	0.258929	-0.189298	-0.036849	0.999587	-0.006757	0.003487	-0.027696	
14417	    0	23.109342	-12.537642	-1.857706	-0.332918	0.673561	-3.846225	0.303589	-0.175049	-0.025757	0.999659	-0.002219	0.004490	-0.025639	
14418	    0	24.947630	-11.790772	-2.028155	0.517889	0.825761	-3.240669	0.328979	-0.164246	-0.029419	0.999745	0.003452	0.005505	-0.021603	
14419	    0	21.065126	-9.735617	-2.410797	1.113573	0.793836	-2.403395	0.278564	-0.134033	-0.034607	0.999829	0.007423	0.005292	-0.016022	
14420	    0	16.471468	-5.248059	-1.956021	1.494790	0.630590	-1.336141	0.218872	-0.071655	-0.027710	0.999902	0.009965	0.004204	-0.008907	
14421	    0	10.773698	-1.450630	-2.782147	1.351569	0.599823	-0.041772	0.143494	-0.019043	-0.037842	0.999951	0.009010	0.003999	-0.000278	
14422	    0	5.321262	-0.240493	-4.047420	1.051739	0.621144	1.399934	0.070749	-0.002166	-0.054276	0.999923	0.007011	0.004141	0.009333	
14423	    0	3.858011	-0.379052	-4.954889	0.947636	0.563803	2.845197	0.051270	-0.003662	-0.066284	0.999793	0.006317	0.003758	0.018967	
14424	    0	3.393587	0.972748	-5.371672	0.972454	0.394018	4.208865	0.044663	0.014693	-0.071649	0.999581	0.006482	0.002626	0.028055	
14425	    0	3.499668	1.664167	-5.421603	0.911297	0.195166	5.422282	0.045715	0.024292	-0.072205	0.999327	0.006074	0.001301	0.036140	
14426	    0	4.697561	0.655719	-4.959922	0.857439	-0.073266	6.543554	0.062195	0.011841	-0.066040	0.999032	0.005714	-0.000488	0.043610	
14427	    0	7.214027	0.685103	-4.170792	0.843354	-0.378958	7.469259	0.095703	0.014221	-0.055298	0.998741	0.005620	-0.002525	0.049774	
14428	    0	9.942174	0.827224	-3.410434	0.741518	-0.673821	8.149401	0.131897	0.018433	-0.044800	0.998502	0.004941	-0.004490	0.054302	
14429	    0	11.706382	-0.011509	-2.966015	0.848485	-1.019527	8.617102	0.156006	0.009033	-0.038452	0.998311	0.005653	-0.006793	0.057415	
14430	    0	14.170908	-0.010117	-2.391649	1.008279	-1.338360	9.004513	0.188766	0.011412	-0.030152	0.998136	0.006718	-0.008917	0.059993	
14431	    0	16.634323	1.307071	-2.373209	0.910405	-1.565296	9.258078	0.220459	0.031250	-0.029175	0.998023	0.006065	-0.010428	0.061680	
14432	    0	18.704750	2.351625	-2.078195	0.722046	-1.695605	9.450439	0.247049	0.047100	-0.024705	0.997940	0.004810	-0.011296	0.062960	
14433	    0	20.855987	4.169500	-2.323192	0.663066	-1.682144	9.436956	0.274170	0.073059	-0.027588	0.997949	0.004417	-0.011207	0.062870	
14434	    0	23.570487	9.339075	-2.083249	0.600056	-1.543654	9.161154	0.306152	0.143494	-0.024048	0.998075	0.003998	-0.010284	0.061035	
14435	    0	26.260195	16.858391	0.170269	-0.141846	-1.301945	8.730014	0.336243	0.244629	0.005005	0.998268	-0.000945	-0.008675	0.058167	
14436	    0	27.624152	20.330943	1.423011	-0.522537	-1.082572	8.064617	0.352905	0.290405	0.020569	0.998523	-0.003482	-0.007214	0.053738	
14437	    0	27.074214	22.984716	0.971097	0.290781	-0.932303	6.782984	0.346558	0.322327	0.015747	0.998956	0.001938	-0.006213	0.045204	
14438	    0	22.379702	31.994508	-0.983572	1.641546	-0.945610	4.770829	0.284684	0.435890	-0.006554	0.999414	0.010942	-0.006303	0.031799	
14439	    0	15.069522	41.557599	1.859188	2.143095	-0.926910	2.533372	0.191345	0.556946	0.033936	0.999736	0.014286	-0.006179	0.016888	
14440	    0	10.828212	43.597579	4.695246	2.444005	-0.649055	0.426027	0.142426	0.580578	0.072686	0.999853	0.016293	-0.004327	0.002840	
14441	    0	11.194151	41.072212	2.134058	2.546043	-0.292987	-1.419730	0.154358	0.545593	0.038025	0.999809	0.016973	-0.001953	-0.009464	
14442	    0	13.042786	36.852137	-9.301928	2.744247	-0.560696	-3.316388	0.185181	0.489502	-0.114380	0.999580	0.018292	-0.003737	-0.022106	
14443	    0	26.075442	62.398188	-20.678235	1.294712	-0.881887	-6.145019	0.382996	0.819092	-0.266418	0.999106	0.008629	-0.005877	-0.040955	
14444	    0	43.731695	-1.252969	-3.561096	-3.749599	0.493602	-6.740119	0.581360	-0.044067	-0.048523	0.998672	-0.024986	0.003289	-0.044914	
14445	    0	40.808501	-15.369315	-6.850563	0.566774	-0.587814	-8.299525	0.532043	-0.234253	-0.090088	0.998454	0.003777	-0.003917	-0.055302	
14446	    0	17.688107	24.980526	-9.036262	0.741993	-0.733978	-8.634827	0.255075	0.319341	-0.117663	0.998319	0.004944	-0.004890	-0.057533	
14447	    0	-2.394969	18.079834	9.986765	-0.846047	-0.464095	-7.171933	-0.020752	0.242981	0.131714	0.998836	-0.005638	-0.003093	-0.047794	
14448	    0	1.226711	18.378766	4.384841	0.057234	-0.290035	-5.733173	0.025588	0.244167	0.058601	0.999268	0.000381	-0.001933	-0.038212	
14449	    0	14.179653	6.046146	-0.176226	-0.102871	-0.497328	-4.694570	0.191467	0.074646	-0.001770	0.999504	-0.000686	-0.003315	-0.031292	
14450	    0	13.153638	9.027741	-1.036712	-0.226480	-0.431357	-4.216566	0.178711	0.115356	-0.013489	0.999599	-0.001510	-0.002875	-0.028107	
14451	    0	15.562975	11.953998	-2.543181	-0.604310	-0.211594	-3.666491	0.211365	0.154114	-0.034241	0.999692	-0.004028	-0.001410	-0.024441	
14452	    0	16.879251	6.007643	-4.137897	-0.910871	-0.145350	-2.951068	0.226624	0.075317	-0.055420	0.999787	-0.006072	-0.000969	-0.019672	
14453	    0	22.524230	8.793677	-2.393367	-0.739185	-0.091558	-2.592226	0.302307	0.111877	-0.032288	0.999838	-0.004928	-0.000610	-0.017281	
14454	    0	27.049411	4.801448	1.256257	-0.930592	0.104289	-2.352731	0.361616	0.058454	0.016125	0.999857	-0.006204	0.000695	-0.015684	
14455	    0	28.063748	4.130591	3.169169	-1.022004	0.160368	-2.247722	0.375000	0.049744	0.041504	0.999864	-0.006813	0.001069	-0.014984	
14456	    0	27.508495	1.993499	2.012455	-1.888234	0.177679	-1.926574	0.367115	0.022198	0.026100	0.999837	-0.012588	0.001184	-0.012843	
14457	    0	24.497859	-4.938609	1.478928	-3.016907	0.121460	-1.343645	0.326050	-0.068359	0.020813	0.999757	-0.020111	0.000810	-0.008957	
14458	    0	22.859701	-5.800114	-0.303149	-3.755657	0.152939	-1.014633	0.304260	-0.079468	-0.002380	0.999662	-0.025035	0.001019	-0.006763	
14459	    0	20.730897	-12.496041	-2.322874	-3.574200	0.302726	-0.697014	0.275574	-0.168579	-0.027527	0.999702	-0.023826	0.002018	-0.004646	
14460	    0	15.795118	-17.598685	-4.252474	-2.617975	0.410436	-0.390837	0.209839	-0.236145	-0.053162	0.999840	-0.017452	0.002736	-0.002605	
14461	    0	11.994512	-13.761932	-5.132199	-0.897226	0.339464	-0.632292	0.158997	-0.184570	-0.067688	0.999970	-0.005981	0.002263	-0.004215	
14462	    0	10.047802	4.428470	-3.029694	-0.226600	0.455775	-1.952135	0.134600	0.057236	-0.040892	0.999909	-0.001511	0.003038	-0.013014	
14463	    0	4.445651	11.985417	-10.968839	-1.052217	1.000286	-2.770243	0.061218	0.157654	-0.147766	0.999783	-0.007014	0.006668	-0.018467	
14464	    0	12.644650	-3.580850	-14.230713	-1.247070	1.061805	-2.718604	0.166327	-0.052355	-0.190503	0.999776	-0.008313	0.007078	-0.018123	
14465	    0	9.698587	-12.002847	-5.854651	-1.063670	1.144500	-2.878418	0.125610	-0.163025	-0.077881	0.999762	-0.007091	0.007629	-0.019188	
14466	    0	13.640597	-11.140159	-3.301575	-1.058140	1.038110	-3.849133	0.177673	-0.153442	-0.044189	0.999621	-0.007053	0.006920	-0.025658	
14467	    0	17.405062	-10.764006	-4.307642	-1.704867	0.742982	-4.233268	0.227600	-0.150635	-0.056885	0.999524	-0.011364	0.004952	-0.028217	
14468	    0	17.266633	-14.261683	-4.897876	-2.078624	0.581608	-4.449124	0.224182	-0.197754	-0.063477	0.999456	-0.013855	0.003877	-0.029655	
14469	    0	17.014711	-16.571318	-4.347187	-1.551520	0.602781	-4.586456	0.219727	-0.228333	-0.056519	0.999471	-0.010342	0.004018	-0.030571	
14470	    0	17.816906	-15.955807	-4.112905	-0.714083	0.635965	-4.557626	0.230713	-0.220085	-0.054790	0.999517	-0.004760	0.004239	-0.030379	
14471	    0	19.323208	-13.963970	-3.926315	0.073825	0.676013	-4.326481	0.251892	-0.193481	-0.053589	0.999574	0.000492	0.004506	-0.028839	
14472	    0	22.593375	-10.906609	-3.501588	0.589011	0.786302	-3.866127	0.297115	-0.152926	-0.048843	0.999646	0.003926	0.005241	-0.025771	
14473	    0	24.150134	-9.597444	-3.350876	0.936784	0.871118	-3.267014	0.318848	-0.134644	-0.047363	0.999726	0.006245	0.005807	-0.021778	
14474	    0	20.387954	-8.310213	-3.065181	1.212574	0.757072	-2.444603	0.269775	-0.114868	-0.043152	0.999822	0.008083	0.005047	-0.016296	
14475	    0	15.810616	-4.748920	-2.360947	1.330416	0.647898	-1.362460	0.210083	-0.064941	-0.032959	0.999909	0.008869	0.004319	-0.009083	
14476	    0	10.788000	-1.245380	-2.675778	1.094784	0.668915	-0.017166	0.143677	-0.016357	-0.036438	0.999963	0.007298	0.004459	-0.000114	
14477	    0	5.665727	-0.594526	-3.461943	0.629582	0.755327	1.417954	0.075378	-0.007019	-0.046570	0.999933	0.004197	0.005035	0.009453	
14478	    0	3.646866	-0.198371	-4.556359	0.538767	0.662372	2.913006	0.048392	-0.001485	-0.060972	0.999795	0.003592	0.004416	0.019419	
14479	    0	2.849113	0.838849	-5.130030	0.504901	0.485300	4.375713	0.037415	0.012512	-0.068481	0.999563	0.003366	0.003235	0.029167	
14480	    0	2.881266	0.609111	-5.301283	0.618273	0.194310	5.659319	0.037975	0.009851	-0.070695	0.999278	0.004121	0.001295	0.037720	
14481	    0	4.347715	1.080100	-5.160909	0.751561	-0.171005	6.746880	0.057312	0.017334	-0.068665	0.998975	0.005009	-0.001140	0.044964	
14482	    0	6.857219	1.537127	-5.049995	0.729309	-0.533529	7.649159	0.090454	0.025452	-0.066895	0.998681	0.004860	-0.003555	0.050972	
14483	    0	9.802316	1.171675	-4.312451	0.680137	-0.881516	8.354577	0.129883	0.023132	-0.056641	0.998422	0.004532	-0.005874	0.055668	
14484	    0	11.696563	0.177367	-3.478670	0.835341	-1.241131	8.813161	0.155823	0.011780	-0.045044	0.998224	0.005566	-0.008269	0.058720	
14485	    0	14.453875	0.406494	-3.042680	0.937296	-1.584156	9.091257	0.192322	0.017334	-0.038452	0.998088	0.006245	-0.010554	0.060570	
14486	    0	16.853699	1.830769	-2.748314	0.711578	-1.792042	9.250511	0.223051	0.038371	-0.033812	0.998016	0.004741	-0.011939	0.061629	
14487	    0	18.726051	1.876177	-2.414899	0.656331	-1.915314	9.317759	0.247864	0.040588	-0.028870	0.997980	0.004373	-0.012760	0.062077	
14488	    0	21.228010	3.854709	-2.878645	0.790601	-1.921892	9.280078	0.279593	0.068961	-0.034451	0.997991	0.005267	-0.012804	0.061826	
14489	    0	23.857874	7.921436	-3.731188	0.666039	-1.793280	9.046561	0.311523	0.124756	-0.045471	0.998100	0.004437	-0.011948	0.060272	
14490	    0	25.868146	16.310563	-3.359617	0.006298	-1.680387	8.648695	0.332092	0.236877	-0.041016	0.998275	0.000042	-0.011196	0.057625	
14491	    0	27.378518	21.182133	-0.394986	-0.896386	-1.502803	8.110558	0.349121	0.301575	-0.003479	0.998470	-0.005973	-0.010014	0.054043	
14492	    0	27.041470	22.474696	3.032749	-0.520328	-1.282647	6.967478	0.345764	0.316101	0.042358	0.998878	-0.003468	-0.008548	0.046432	
14493	    0	23.131216	27.617502	2.651753	1.111598	-1.136065	5.086825	0.295410	0.378113	0.040405	0.999369	0.007409	-0.007572	0.033905	
14494	    0	16.242392	38.927459	1.729592	2.079745	-1.070560	2.858451	0.206422	0.522631	0.031789	0.999697	0.013864	-0.007136	0.019054	
14495	    0	10.726538	43.132740	4.194664	2.205381	-0.920578	0.811997	0.139526	0.574951	0.065247	0.999858	0.014702	-0.006137	0.005413	
14496	    0	9.792708	40.197281	5.954320	2.303665	-0.531032	-0.988388	0.133790	0.533781	0.088070	0.999854	0.015357	-0.003540	-0.006589	
14497	    0	13.990466	32.996166	-2.212367	2.490488	-0.485136	-2.706231	0.194519	0.436890	-0.021606	0.999694	0.016602	-0.003234	-0.018040	
14498	    0	18.747315	52.113788	-18.749933	2.602476	-1.076018	-5.139705	0.275391	0.689880	-0.236084	0.999236	0.017345	-0.007172	-0.034256	
14499	    0	38.853565	31.041814	-8.377753	-2.541594	0.116919	-6.852573	0.536072	0.387695	-0.118835	0.998813	-0.016937	0.000779	-0.045666	
14500	    0	50.973352	-21.832896	1.641785	-1.694361	0.119646	-7.688811	0.663574	-0.325134	0.024902	0.998622	-0.011291	0.000797	-0.051235	
14501	    0	21.697210	15.101411	-12.828302	2.069224	-1.080846	-8.822543	0.301758	0.186157	-0.166260	0.998149	0.013786	-0.007201	-0.058781	
14502	    0	8.869648	22.797233	11.062841	-1.631124	-0.223981	-7.813854	0.133706	0.298846	0.144427	0.998583	-0.010869	-0.001493	-0.052068	
14503	    0	-7.124607	17.161555	2.653754	0.013308	-0.522578	-6.308139	-0.085388	0.232544	0.035095	0.999109	0.000089	-0.003483	-0.042042	
14504	    0	9.160310	9.714270	-0.068648	-0.528107	-0.653874	-5.108656	0.126456	0.125262	-0.000816	0.999404	-0.003520	-0.004358	-0.034051	
14505	    0	12.979964	6.961541	-1.637246	-0.586602	-0.595615	-4.521124	0.175842	0.087463	-0.021484	0.999530	-0.003910	-0.003970	-0.030136	
14506	    0	13.802467	11.002421	-1.130936	-0.445657	-0.443368	-3.963562	0.187866	0.141724	-0.014954	0.999641	-0.002971	-0.002955	-0.026421	
14507	    0	14.520276	9.618643	-5.739018	-1.027769	-0.175539	-3.258988	0.196411	0.123474	-0.077148	0.999740	-0.006851	-0.001170	-0.021725	
14508	    0	18.930688	6.924390	-3.750577	-0.753641	-0.240198	-2.799400	0.254150	0.087341	-0.050049	0.999811	-0.005024	-0.001601	-0.018661	
14509	    0	23.348669	8.010282	-0.160606	-0.829162	-0.013590	-2.334129	0.312927	0.101929	-0.002686	0.999864	-0.005527	-0.000091	-0.015560	
14510	    0	26.224445	5.199018	1.864375	-0.651051	0.104002	-2.209941	0.350648	0.064265	0.024329	0.999882	-0.004340	0.000693	-0.014732	
14511	    0	28.199226	6.354265	1.975220	-1.159907	0.198706	-2.049722	0.377136	0.079773	0.025208	0.999875	-0.007732	0.001325	-0.013664	
14512	    0	26.791101	-0.219961	1.636082	-2.186373	0.206577	-1.653907	0.357185	-0.006557	0.021400	0.999831	-0.014575	0.001377	-0.011025	
14513	    0	25.776635	-2.424536	0.736593	-3.442145	0.150648	-1.123347	0.343445	-0.034668	0.010254	0.999707	-0.022945	0.001004	-0.007488	
14514	    0	23.247106	-7.806697	-1.069860	-4.180516	0.189997	-0.794327	0.309387	-0.106079	-0.011719	0.999597	-0.027866	0.001266	-0.005295	
14515	    0	21.205144	-15.014857	-3.219257	-3.939948	0.338785	-0.448089	0.282043	-0.202087	-0.038269	0.999647	-0.026263	0.002258	-0.002987	
14516	    0	15.245911	-18.755513	-6.000787	-2.596657	0.512722	-0.261511	0.202576	-0.251770	-0.076355	0.999843	-0.017310	0.003418	-0.001743	
14517	    0	12.818329	-9.269748	-5.566409	-0.665481	0.378946	-0.892648	0.169983	-0.124939	-0.074097	0.999969	-0.004436	0.002526	-0.005951	
14518	    0	7.860522	9.166525	-3.664054	-0.889540	0.658929	-2.449310	0.106563	0.120195	-0.050036	0.999839	-0.005930	0.004393	-0.016328	
14519	    0	9.235817	9.919197	-14.757474	-1.666280	1.158828	-3.014096	0.124207	0.127563	-0.199158	0.999706	-0.011107	0.007725	-0.020092	
14520	    0	12.483799	-7.347782	-13.695710	-1.477710	1.200594	-2.941828	0.163000	-0.102991	-0.182925	0.999726	-0.009851	0.008003	-0.019610	
14521	    0	12.590848	-13.962789	-5.836727	-1.127795	1.181731	-3.460497	0.162903	-0.190552	-0.077698	0.999674	-0.007518	0.007877	-0.023067	
14522	    0	16.894343	-12.452622	-4.684023	-1.103247	0.922687	-4.467358	0.219788	-0.173096	-0.062561	0.999510	-0.007354	0.006150	-0.029778	
14523	    0	18.952709	-11.791360	-5.165452	-1.616202	0.563868	-4.668900	0.247375	-0.165710	-0.068054	0.999450	-0.010773	0.003758	-0.031120	
14524	    0	18.358518	-13.556146	-5.398684	-1.853594	0.471590	-4.802319	0.238586	-0.189331	-0.070435	0.999406	-0.012355	0.003143	-0.032009	
14525	    0	18.880095	-14.594953	-4.939605	-1.344361	0.567877	-4.816005	0.245056	-0.203125	-0.065002	0.999436	-0.008961	0.003785	-0.032101	
14526	    0	21.053500	-14.385144	-3.823983	-0.472718	0.669302	-4.617012	0.274402	-0.200476	-0.051598	0.999511	-0.003151	0.004461	-0.030775	
14527	    0	24.469281	-11.942544	-2.539552	0.228341	0.824803	-4.222306	0.321411	-0.168274	-0.035889	0.999587	0.001522	0.005498	-0.028145	
14528	    0	25.947925	-10.859002	-2.632477	0.981583	0.905042	-3.641487	0.342102	-0.152881	-0.038155	0.999665	0.006543	0.006033	-0.024274	
14529	    0	20.098027	-10.276706	-3.054453	1.352365	0.793136	-2.797149	0.265137	-0.141602	-0.043396	0.999771	0.009015	0.005287	-0.018646	
14530	    0	14.919111	-6.160625	-1.822450	1.435289	0.683382	-1.670903	0.197876	-0.084106	-0.026001	0.999882	0.009568	0.004556	-0.011139	
14531	    0	9.165011	-1.343014	-2.630102	1.144425	0.615271	-0.378805	0.122009	-0.017944	-0.035706	0.999959	0.007629	0.004102	-0.002525	
14532	    0	4.066761	-0.182204	-4.590471	0.522573	0.691233	1.067176	0.053955	-0.001831	-0.061462	0.999957	0.003484	0.004608	0.007114	
14533	    0	2.518990	-1.440552	-5.589015	0.311438	0.660929	2.496081	0.033569	-0.018494	-0.074707	0.999849	0.002076	0.004406	0.016640	
14534	    0	1.874812	-0.802393	-5.466015	0.516617	0.417614	3.883856	0.025056	-0.009799	-0.072985	0.999655	0.003444	0.002784	0.025889	
14535	    0	2.226136	0.034145	-4.945680	0.683492	0.216337	5.140567	0.029541	0.001770	-0.065979	0.999401	0.004556	0.001442	0.034264	
14536	    0	3.792725	0.100923	-4.906963	0.857275	-0.026329	6.287972	0.050455	0.003837	-0.065400	0.999104	0.005713	-0.000175	0.041907	
14537	    0	6.382692	-0.404107	-4.327676	1.000616	-0.284930	7.298547	0.085327	-0.000854	-0.057556	0.998792	0.006668	-0.001899	0.048637	
14538	    0	9.196717	-1.322738	-3.297778	1.187336	-0.527260	8.044575	0.123474	-0.010681	-0.043640	0.998525	0.007912	-0.003513	0.053604	
14539	    0	11.826173	-1.855682	-2.891345	1.463522	-0.783790	8.560997	0.158936	-0.015320	-0.037903	0.998310	0.009751	-0.005222	0.057041	
14540	    0	13.445000	-1.310728	-2.775610	1.626213	-1.024310	8.950830	0.180115	-0.006348	-0.035889	0.998137	0.010835	-0.006824	0.059635	
14541	    0	15.511322	-0.938074	-2.776973	1.525510	-1.204147	9.273591	0.207336	0.000671	-0.035400	0.998005	0.010163	-0.008022	0.061783	
14542	    0	17.547751	-0.385177	-3.147238	1.385716	-1.294385	9.591360	0.233994	0.010208	-0.039896	0.997876	0.009232	-0.008623	0.063897	
14543	    0	20.193787	0.811880	-2.735526	1.274818	-1.343390	9.844084	0.268066	0.028748	-0.033875	0.997770	0.008492	-0.008949	0.065578	
14544	    0	23.719256	3.632314	-2.936275	1.279551	-1.267096	9.901990	0.312445	0.069467	-0.035966	0.997749	0.008524	-0.008441	0.065964	
14545	    0	27.427781	12.189121	-3.749689	0.514775	-0.948096	9.695401	0.354492	0.185852	-0.047119	0.997886	0.003429	-0.006316	0.064590	
14546	    0	29.243412	19.291517	-4.016715	-0.505009	-0.833666	9.265944	0.373352	0.280457	-0.052368	0.998071	-0.003365	-0.005554	0.061733	
14547	    0	31.771243	24.307639	-2.317460	-1.246933	-0.812253	8.397621	0.404785	0.346863	-0.031494	0.998384	-0.008308	-0.005412	0.055954	
14548	    0	28.222463	28.641321	-2.086153	-0.510579	-0.919128	6.667862	0.359009	0.398010	-0.026917	0.998987	-0.003403	-0.006125	0.044437	
14549	    0	20.886038	41.834476	0.494784	0.549536	-0.995203	4.190840	0.262695	0.565247	0.010437	0.999580	0.003663	-0.006634	0.027935	
14550	    0	12.853910	48.453378	4.203070	1.324418	-0.850329	1.637712	0.163980	0.647328	0.062696	0.999885	0.008829	-0.005669	0.010918	
14551	    0	10.371992	48.988302	3.885130	1.934260	-0.488107	-0.747897	0.141357	0.651733	0.060669	0.999899	0.012895	-0.003254	-0.004986	
14552	    0	14.507494	39.656597	-3.094449	2.476203	-0.403878	-2.936306	0.203835	0.525412	-0.032027	0.999668	0.016506	-0.002692	-0.019573	
14553	    0	23.420348	52.162252	-12.192042	3.600450	-0.837291	-5.869478	0.340088	0.686157	-0.144165	0.998931	0.023994	-0.005580	-0.039116	
14554	    0	40.719869	10.784988	-1.804324	-0.623938	0.187754	-7.101445	0.548889	0.117798	-0.025269	0.998870	-0.004158	0.001251	-0.047325	
14555	    0	44.844792	-15.104115	6.622501	0.451108	0.011593	-7.927591	0.586182	-0.232849	0.087585	0.998599	0.003006	0.000077	-0.052826	
14556	    0	28.594223	38.753355	-15.017825	2.365877	-0.949758	-8.983119	0.412598	0.495667	-0.189758	0.998062	0.015762	-0.006328	-0.059849	
14557	    0	7.758198	15.199309	9.362306	-2.554355	-0.308417	-7.459265	0.113159	0.199280	0.121643	0.998616	-0.017021	-0.002055	-0.049706	
14558	    0	-1.257807	11.015279	-0.327103	-0.460471	-0.425556	-6.193174	-0.010678	0.147381	-0.004849	0.999139	-0.003069	-0.002836	-0.041276	
14559	    0	8.105585	5.416333	0.022577	-0.562442	-0.614094	-5.030075	0.110413	0.068542	0.000488	0.999422	-0.003749	-0.004093	-0.033527	
14560	    0	13.600430	10.108322	-0.748915	-0.443810	-0.430504	-4.398607	0.185214	0.129354	-0.009846	0.999561	-0.002958	-0.002870	-0.029320	
14561	    0	14.373177	11.472815	-4.137422	-0.727352	-0.269395	-3.764946	0.195496	0.147827	-0.055542	0.999671	-0.004848	-0.001796	-0.025097	
14562	    0	14.759920	9.547248	-3.760076	-0.932768	-0.141346	-3.157107	0.199463	0.122803	-0.050720	0.999759	-0.006218	-0.000942	-0.021046	
14563	    0	18.543065	7.211519	-4.665063	-1.134179	-0.059370	-2.640314	0.248901	0.091309	-0.062805	0.999816	-0.007561	-0.000396	-0.017601	
14564	    0	22.762278	5.407579	0.897074	-1.068786	0.087551	-2.306667	0.304565	0.067505	0.011292	0.999856	-0.007125	0.000584	-0.015377	
14565	    0	25.540660	5.400946	3.227445	-1.268638	0.227891	-2.192221	0.341614	0.067383	0.041931	0.999856	-0.008457	0.001519	-0.014614	
14566	    0	26.059348	2.977609	4.295921	-1.575359	0.216304	-2.071056	0.348049	0.035494	0.056390	0.999848	-0.010502	0.001442	-0.013806	
14567	    0	23.922998	-0.622095	3.785001	-2.367934	0.157509	-1.725879	0.318909	-0.011169	0.050293	0.999808	-0.015785	0.001050	-0.011505	
14568	    0	22.197414	-3.561203	2.256867	-3.175583	0.118743	-1.290434	0.295570	-0.049378	0.030890	0.999738	-0.021169	0.000792	-0.008602	
14569	    0	21.794115	-7.467927	-0.383997	-3.423113	0.248933	-1.077565	0.289856	-0.101746	-0.003296	0.999712	-0.022819	0.001659	-0.007183	
14570	    0	19.097945	-13.008199	-2.880335	-3.040919	0.354793	-0.764522	0.253662	-0.175476	-0.035461	0.999778	-0.020271	0.002365	-0.005096	
14571	    0	14.027050	-14.256237	-5.413332	-1.779459	0.273521	-0.485814	0.186279	-0.191528	-0.070251	0.999922	-0.011863	0.001823	-0.003239	
14572	    0	12.482352	-8.703549	-5.447094	0.199272	0.084115	-0.952727	0.165649	-0.117004	-0.072876	0.999978	0.001328	0.000561	-0.006351	
14573	    0	9.238110	5.384483	-4.931481	-0.326743	0.309719	-2.358728	0.124146	0.069702	-0.066162	0.999871	-0.002178	0.002065	-0.015724	
14574	    0	9.237855	6.364888	-14.606453	-0.810299	0.725893	-2.881109	0.123812	0.081435	-0.195797	0.999789	-0.005402	0.004839	-0.019206	
14575	    0	12.057313	-4.028586	-13.291031	-0.713588	0.856792	-2.820016	0.158691	-0.057556	-0.177856	0.999795	-0.004757	0.005712	-0.018799	
14576	    0	12.203467	-10.539373	-6.755076	-1.070115	0.795862	-3.139099	0.159239	-0.144524	-0.089897	0.999741	-0.007133	0.005305	-0.020926	
14577	    0	15.277670	-12.971564	-5.869366	-1.475343	0.563841	-3.965913	0.198730	-0.179016	-0.077271	0.999595	-0.009834	0.003758	-0.026436	
14578	    0	17.281402	-14.123932	-5.139485	-2.118101	0.404047	-4.366116	0.224609	-0.195862	-0.066406	0.999473	-0.014118	0.002693	-0.029102	
14579	    0	17.550453	-15.021855	-4.806102	-2.290404	0.459140	-4.534451	0.227600	-0.208191	-0.061646	0.999421	-0.015266	0.003060	-0.030224	
14580	    0	18.294315	-15.403802	-4.181234	-1.743825	0.563295	-4.608803	0.237244	-0.213379	-0.054199	0.999453	-0.011623	0.003755	-0.030720	
14581	    0	19.388403	-14.551229	-2.942439	-0.969472	0.623375	-4.537747	0.252319	-0.201965	-0.039001	0.999513	-0.006462	0.004155	-0.030247	
14582	    0	21.885635	-12.717846	-1.966506	-0.248085	0.774586	-4.241194	0.286719	-0.177772	-0.027420	0.999585	-0.001654	0.005163	-0.028271	
14583	    0	23.791785	-11.888680	-2.121594	0.514467	0.941521	-3.655636	0.313049	-0.166077	-0.030823	0.999677	0.003429	0.006276	-0.024368	
14584	    0	21.250441	-10.782601	-2.285212	1.161520	0.937342	-2.827477	0.280363	-0.148821	-0.033367	0.999772	0.007743	0.006248	-0.018848	
14585	    0	16.971213	-6.888016	-1.860805	1.684796	0.743330	-1.791660	0.225037	-0.094238	-0.026978	0.999853	0.011231	0.004955	-0.011944	
14586	    0	13.162414	-2.886645	-2.663661	1.549138	0.655905	-0.655190	0.175171	-0.038879	-0.036682	0.999928	0.010327	0.004373	-0.004368	
14587	    0	7.032475	-1.320570	-3.965969	1.112384	0.640451	0.783361	0.093628	-0.016724	-0.053406	0.999949	0.007416	0.004270	0.005222	
14588	    0	3.683924	-0.650520	-5.149102	0.911136	0.630600	2.290073	0.048950	-0.007507	-0.068909	0.999856	0.006074	0.004204	0.015266	
14589	    0	3.056724	0.291132	-5.623532	0.969994	0.460247	3.716309	0.040405	0.005371	-0.075073	0.999667	0.006466	0.003068	0.024773	
14590	    0	3.180141	0.569406	-5.287263	1.034030	0.246811	4.992447	0.041991	0.009480	-0.070505	0.999420	0.006892	0.001645	0.033277	
14591	    0	4.376896	0.902367	-4.710206	1.168779	-0.028475	6.135234	0.057800	0.014893	-0.062683	0.999133	0.007790	-0.000190	0.040890	
14592	    0	6.806844	1.162836	-4.105345	1.083459	-0.289647	7.132280	0.089977	0.020190	-0.054429	0.998841	0.007220	-0.001930	0.047530	
14593	    0	9.405448	0.199190	-3.278563	0.984224	-0.543277	7.878375	0.125183	0.009521	-0.043213	0.998592	0.006558	-0.003620	0.052498	
14594	    0	11.975539	-0.914351	-2.769826	1.142872	-0.848316	8.360930	0.160217	-0.002991	-0.036072	0.998402	0.007615	-0.005652	0.055710	
14595	    0	13.541053	-0.767860	-2.485950	1.313548	-1.138780	8.710610	0.180969	0.000549	-0.031799	0.998247	0.008752	-0.007587	0.058037	
14596	    0	15.412521	-0.182823	-2.632279	1.182343	-1.347671	9.022454	0.205444	0.010193	-0.033203	0.998119	0.007877	-0.008979	0.060112	
14597	    0	17.304832	0.613358	-2.894669	0.894521	-1.454939	9.316531	0.229980	0.022705	-0.036255	0.998007	0.005960	-0.009693	0.062069	
14598	    0	19.648295	1.554044	-2.839837	0.678244	-1.495058	9.512456	0.260315	0.037435	-0.035119	0.997930	0.004519	-0.009960	0.063373	
14599	    0	22.283942	3.806172	-2.916907	0.659060	-1.417608	9.498821	0.293457	0.069580	-0.035828	0.997941	0.004391	-0.009444	0.063282	
14600	    0	25.649418	12.218313	-2.934586	0.217291	-1.191094	9.233015	0.331407	0.183590	-0.036211	0.998074	0.001448	-0.007936	0.061514	
14601	    0	27.806724	19.282089	-2.079237	-0.624643	-1.085396	8.830313	0.354980	0.278198	-0.026245	0.998233	-0.004162	-0.007232	0.058834	
14602	    0	29.940174	22.874387	-0.710631	-0.985103	-1.027466	7.998180	0.382263	0.325623	-0.008911	0.998533	-0.006564	-0.006846	0.053295	
14603	    0	26.884563	25.984889	-0.668117	0.144955	-1.058903	6.341397	0.343445	0.361206	-0.006104	0.999081	0.000966	-0.007057	0.042263	
14604	    0	20.030937	38.713065	1.107897	1.469202	-1.115958	3.981968	0.253113	0.522827	0.021790	0.999572	0.009793	-0.007439	0.026543	
14605	    0	12.115946	45.507299	4.490634	1.872924	-0.919438	1.645746	0.154480	0.607666	0.068420	0.999843	0.012486	-0.006129	0.010971	
14606	    0	9.589864	44.790838	4.289634	2.042841	-0.510138	-0.458209	0.129473	0.595961	0.065756	0.999896	0.013618	-0.003401	-0.003055	
14607	    0	12.717974	37.313534	-0.644977	2.333790	-0.342207	-2.412046	0.177551	0.494751	-0.000488	0.999746	0.015557	-0.002281	-0.016079	
14608	    0	17.175333	40.845303	-13.364444	3.256523	-0.863675	-4.768240	0.247211	0.540616	-0.165036	0.999242	0.021705	-0.005756	-0.031780	
14609	    0	32.624798	39.300701	-8.619753	-0.016028	-0.221380	-6.985712	0.458923	0.502991	-0.114319	0.998914	-0.000107	-0.001475	-0.046555	
14610	    0	47.095795	-20.120818	0.295846	-1.496338	0.306251	-7.164560	0.614197	-0.297791	0.005554	0.998807	-0.009972	0.002041	-0.047745	
14611	    0	29.452792	23.171553	-12.494240	2.569106	-1.008147	-8.817525	0.411133	0.287903	-0.158813	0.998103	0.017117	-0.006717	-0.058746	
14612	    0	22.430946	27.363129	9.610717	-2.475386	0.043511	-8.103292	0.318298	0.350037	0.122192	0.998405	-0.016494	0.000290	-0.053993	
14613	    0	-5.312661	6.420236	4.983428	-0.420560	-0.617031	-6.473670	-0.067322	0.088745	0.065918	0.999056	-0.002803	-0.004112	-0.043144	
14614	    0	3.352726	10.077325	-1.337764	-0.561880	-0.563311	-5.277269	0.049458	0.132612	-0.018156	0.999367	-0.003745	-0.003755	-0.035174	
14615	    0	13.770387	9.528591	-1.253108	-0.318767	-0.493746	-4.523975	0.187378	0.121399	-0.016357	0.999537	-0.002125	-0.003291	-0.030155	
14616	    0	13.615409	10.755698	-3.153099	-0.545230	-0.345651	-3.878847	0.185260	0.138497	-0.042127	0.999656	-0.003634	-0.002304	-0.025856	
14617	    0	15.154514	8.798834	-4.468935	-0.966966	-0.103578	-3.271004	0.204590	0.112488	-0.060181	0.999741	-0.006446	-0.000690	-0.021805	
14618	    0	19.246127	7.702262	-4.184405	-0.956073	-0.051931	-2.794828	0.258484	0.097534	-0.056335	0.999805	-0.006373	-0.000346	-0.018631	
14619	    0	24.462231	6.741389	-0.451709	-0.925732	0.100713	-2.463467	0.327576	0.084473	-0.006775	0.999846	-0.006171	0.000671	-0.016422	
14620	    0	26.607512	4.008386	2.020477	-1.115713	0.214015	-2.366759	0.355591	0.048035	0.026062	0.999846	-0.007438	0.001427	-0.015778	
14621	    0	27.261249	3.222246	3.852387	-1.571788	0.219738	-2.179072	0.364136	0.038208	0.050415	0.999838	-0.010478	0.001465	-0.014526	
14622	    0	24.925873	-0.277672	3.033312	-2.525748	0.116595	-1.791557	0.332306	-0.006992	0.040285	0.999786	-0.016837	0.000777	-0.011943	
14623	    0	23.145651	-4.884858	2.149482	-3.430709	0.073393	-1.305901	0.308044	-0.067139	0.030029	0.999700	-0.022869	0.000489	-0.008705	
14624	    0	22.833385	-7.811597	-0.417093	-3.688122	0.194571	-1.107195	0.303659	-0.106499	-0.003356	0.999669	-0.024585	0.001297	-0.007380	
14625	    0	19.689688	-13.551688	-2.685222	-3.364721	0.291850	-0.814892	0.261475	-0.182861	-0.032227	0.999731	-0.022429	0.001945	-0.005432	
14626	    0	13.483004	-16.604336	-5.851837	-2.124530	0.321734	-0.564787	0.178772	-0.223145	-0.075256	0.999889	-0.014163	0.002145	-0.003765	
14627	    0	11.220330	-8.324864	-4.852337	-0.177242	0.070954	-1.115237	0.148743	-0.112183	-0.064636	0.999971	-0.001182	0.000473	-0.007435	
14628	    0	7.375531	7.469716	-4.606497	-0.620731	0.371380	-2.542437	0.099854	0.097656	-0.062073	0.999845	-0.004138	0.002476	-0.016949	
14629	    0	10.518136	7.257209	-14.364658	-1.273688	0.972255	-2.900741	0.140808	0.092407	-0.193237	0.999756	-0.008491	0.006481	-0.019337	
14630	    0	11.088003	-7.476710	-12.059567	-1.052072	1.138481	-2.670811	0.144798	-0.103415	-0.161184	0.999787	-0.007013	0.007589	-0.017804	
14631	    0	11.401382	-11.898698	-5.671755	-0.809739	1.055378	-3.123932	0.148132	-0.162170	-0.075806	0.999743	-0.005398	0.007035	-0.020824	
14632	    0	14.872092	-12.067074	-5.623550	-0.960571	0.815355	-4.009533	0.193484	-0.166590	-0.074986	0.999607	-0.006403	0.005435	-0.026727	
14633	    0	17.296895	-11.955897	-5.708362	-1.713883	0.594043	-4.271616	0.225647	-0.166748	-0.075134	0.999521	-0.011424	0.003960	-0.028473	
14634	    0	17.285801	-13.683842	-5.150133	-2.031546	0.587902	-4.432516	0.224670	-0.190063	-0.067017	0.999464	-0.013541	0.003919	-0.029545	
14635	    0	18.132691	-14.705594	-4.653050	-1.634932	0.673603	-4.530938	0.235413	-0.203918	-0.060913	0.999474	-0.010898	0.004490	-0.030201	
14636	    0	19.680132	-15.178575	-3.306945	-0.761581	0.704495	-4.486789	0.255981	-0.210327	-0.044250	0.999528	-0.005076	0.004696	-0.029907	
14637	    0	22.270286	-13.291168	-2.264138	0.098575	0.793182	-4.175364	0.291687	-0.185364	-0.031860	0.999598	0.000657	0.005287	-0.027832	
14638	    0	23.988651	-11.273968	-2.369907	0.763829	0.918627	-3.544603	0.315976	-0.157647	-0.034332	0.999689	0.005092	0.006124	-0.023628	
14639	    0	20.712698	-9.373223	-2.729840	1.270526	0.863517	-2.657504	0.273682	-0.129517	-0.039062	0.999790	0.008470	0.005756	-0.017715	
14640	    0	16.604526	-6.000461	-2.389536	1.642441	0.680380	-1.622127	0.220364	-0.082030	-0.033752	0.999871	0.010949	0.004536	-0.010814	
14641	    0	12.223039	-2.659944	-2.815444	1.401927	0.591241	-0.437172	0.162720	-0.035583	-0.038513	0.999944	0.009346	0.003942	-0.002914	
14642	    0	6.589059	-1.500316	-3.896347	0.988786	0.597964	0.949303	0.087769	-0.019104	-0.052429	0.999949	0.006592	0.003986	0.006329	
14643	    0	4.265764	-1.170954	-4.720699	0.868650	0.538614	2.383351	0.056885	-0.014343	-0.063232	0.999850	0.005791	0.003591	0.015888	
14644	    0	3.472057	-0.106768	-4.944407	0.999327	0.364536	3.789001	0.046143	0.000183	-0.066040	0.999656	0.006661	0.002430	0.025257	
14645	    0	3.706820	0.388725	-4.701029	1.165955	0.164828	5.038688	0.049133	0.007324	-0.062683	0.999405	0.007771	0.001099	0.033585	
14646	    0	5.234734	0.743852	-4.366233	1.262800	-0.067969	6.193945	0.069321	0.013277	-0.058083	0.999111	0.008416	-0.000453	0.041281	
14647	    0	7.607218	1.319205	-3.855064	1.171193	-0.313549	7.196022	0.100525	0.022827	-0.051025	0.998816	0.007805	-0.002090	0.047955	
14648	    0	10.035216	0.288628	-3.277860	1.004989	-0.574913	7.975648	0.133502	0.011245	-0.043134	0.998556	0.006697	-0.003831	0.053145	
14649	    0	12.411107	-1.077175	-2.758716	1.130152	-0.862070	8.485869	0.166138	-0.004700	-0.035889	0.998355	0.007530	-0.005744	0.056541	
14650	    0	14.350003	-1.235733	-2.318988	1.286090	-1.136369	8.860784	0.192078	-0.004883	-0.029541	0.998190	0.008569	-0.007571	0.059036	
14651	    0	16.319800	-0.569530	-2.377173	1.208134	-1.307619	9.180101	0.217773	0.005981	-0.029785	0.998057	0.008049	-0.008712	0.061161	
14652	    0	18.413016	0.445256	-2.304053	0.947787	-1.405720	9.439222	0.244751	0.021545	-0.028320	0.997956	0.006314	-0.009365	0.062885	
14653	    0	20.802394	1.159557	-2.225151	0.846887	-1.442256	9.606068	0.275879	0.033325	-0.026855	0.997888	0.005642	-0.009608	0.063995	
14654	    0	23.804846	4.653338	-3.288003	0.865777	-1.320998	9.576660	0.312937	0.082369	-0.040633	0.997907	0.005768	-0.008801	0.063800	
14655	    0	26.308407	12.865403	-3.406471	0.158173	-1.038076	9.269394	0.339600	0.192810	-0.042847	0.998066	0.001054	-0.006916	0.061756	
14656	    0	27.648216	18.738645	-2.384801	-0.610327	-0.952277	8.818400	0.353324	0.270802	-0.030595	0.998243	-0.004066	-0.006345	0.058755	
14657	    0	29.174346	22.717094	-0.302557	-0.899785	-0.875884	7.864068	0.372437	0.322693	-0.003723	0.998590	-0.005996	-0.005836	0.052402	
14658	    0	25.761675	27.863934	-0.903249	0.166702	-0.917364	6.150674	0.327942	0.385193	-0.009583	0.999140	0.001111	-0.006114	0.040993	
14659	    0	19.502307	40.283538	1.035154	1.192199	-0.963145	3.880620	0.245911	0.543457	0.019714	0.999613	0.007947	-0.006420	0.025867	
14660	    0	12.572087	46.015590	4.303276	1.798664	-0.800551	1.519273	0.161072	0.614441	0.065613	0.999862	0.011991	-0.005337	0.010128	
14661	    0	10.126930	46.056546	4.174049	2.177324	-0.425594	-0.636317	0.137451	0.612610	0.064941	0.999881	0.014515	-0.002837	-0.004242	
14662	    0	12.751589	39.068089	-0.046886	2.565734	-0.268677	-2.598067	0.178998	0.517765	0.008565	0.999701	0.017103	-0.001791	-0.017319	
14663	    0	16.310041	38.838144	-13.765031	3.281280	-0.887571	-4.759087	0.234863	0.514404	-0.170898	0.999240	0.021870	-0.005916	-0.031719	
14664	    0	29.543816	38.800549	-12.523109	0.045792	-0.483245	-6.693164	0.417000	0.499124	-0.165502	0.998999	0.000305	-0.003221	-0.044606	
14665	    0	45.476703	-21.217658	-1.605773	-1.815558	0.305670	-6.804873	0.592651	-0.310242	-0.018982	0.998896	-0.012099	0.002037	-0.045349	
14666	    0	29.833715	18.276737	-15.262496	2.373148	-1.220640	-8.381879	0.412292	0.224060	-0.196533	0.998281	0.015812	-0.008133	-0.055847	
14667	    0	30.292624	33.096452	11.691229	-2.467996	0.037214	-8.282093	0.427551	0.420593	0.148743	0.998341	-0.016444	0.000248	-0.055183	
14668	    0	-3.297286	2.854827	7.900785	-0.398954	-0.685578	-6.529230	-0.042725	0.040222	0.105042	0.999039	-0.002659	-0.004569	-0.043514	
14669	    0	2.355958	12.724108	-2.669538	-0.335960	-0.607103	-5.477235	0.037720	0.168274	-0.035828	0.999322	-0.002239	-0.004046	-0.036507	
14670	    0	10.587731	9.125666	-2.515559	-0.260680	-0.466420	-4.568625	0.144890	0.117242	-0.033300	0.999530	-0.001738	-0.003109	-0.030453	
14671	    0	13.931663	9.566150	-2.083996	-0.434352	-0.348369	-3.869686	0.189026	0.122620	-0.027710	0.999660	-0.002895	-0.002322	-0.025795	
14672	    0	15.484989	10.119751	-5.103553	-1.010457	-0.044350	-3.240671	0.209331	0.129966	-0.068872	0.999743	-0.006736	-0.000296	-0.021603	
14673	    0	18.814059	7.801041	-3.772117	-0.984685	-0.067525	-2.785672	0.252747	0.098999	-0.050842	0.999805	-0.006564	-0.000450	-0.018570	
14674	    0	23.456393	6.985616	0.265121	-0.985387	0.065807	-2.432566	0.314209	0.088074	0.002808	0.999846	-0.006569	0.000439	-0.016216	
14675	    0	24.606978	3.854235	2.197053	-1.221001	0.209437	-2.251163	0.328857	0.046692	0.028442	0.999853	-0.008140	0.001396	-0.015007	
14676	    0	24.954206	3.362273	3.669465	-1.526144	0.235903	-2.048592	0.333374	0.040771	0.047974	0.999853	-0.010174	0.001573	-0.013657	
14677	    0	23.862752	1.467569	3.111720	-2.515582	0.198711	-1.664084	0.318420	0.016724	0.040771	0.999797	-0.016769	0.001325	-0.011093	
14678	    0	22.480845	-3.543246	2.426076	-3.433278	0.169103	-1.195167	0.299397	-0.048878	0.033116	0.999705	-0.022886	0.001127	-0.007967	
14679	    0	22.242555	-6.940679	0.073906	-3.698561	0.279409	-0.978577	0.295959	-0.094421	0.002747	0.999673	-0.024654	0.001863	-0.006523	
14680	    0	19.945412	-11.854315	-2.679947	-3.184859	0.385840	-0.699719	0.265108	-0.160016	-0.033031	0.999760	-0.021231	0.002572	-0.004664	
14681	    0	15.214448	-15.087653	-5.320049	-1.393769	0.296407	-0.334745	0.202271	-0.202271	-0.069458	0.999952	-0.009292	0.001976	-0.002232	
14682	    0	11.944846	-7.549857	-5.131738	0.385669	0.155069	-1.015100	0.158508	-0.101562	-0.068848	0.999972	0.002571	0.001034	-0.006767	
14683	    0	7.798868	4.248709	-5.924339	-0.321451	0.601987	-2.399937	0.104553	0.054810	-0.079529	0.999861	-0.002143	0.004013	-0.015999	
14684	    0	10.114851	1.945294	-16.201106	-0.889264	0.785831	-2.719294	0.134155	0.022217	-0.216858	0.999804	-0.005928	0.005239	-0.018127	
14685	    0	8.308510	-7.450183	-11.944509	-1.110011	0.923030	-2.704999	0.107971	-0.102478	-0.159180	0.999790	-0.007400	0.006153	-0.018032	
14686	    0	11.530202	-12.170319	-5.481224	-1.219478	0.733346	-3.189900	0.149876	-0.166077	-0.072482	0.999728	-0.008129	0.004889	-0.021264	
14687	    0	14.902286	-13.466422	-5.469959	-1.847179	0.472131	-3.780486	0.193848	-0.185364	-0.071289	0.999601	-0.012313	0.003147	-0.025200	
14688	    0	17.093518	-14.823289	-4.967227	-2.679247	0.407911	-4.051635	0.222270	-0.204846	-0.063223	0.999472	-0.017859	0.002719	-0.027006	
14689	    0	16.964198	-16.746794	-4.578154	-2.622322	0.504920	-4.199035	0.219604	-0.230530	-0.057800	0.999450	-0.017479	0.003366	-0.027988	
14690	    0	17.511593	-16.602976	-4.091591	-1.869715	0.615798	-4.404446	0.226624	-0.228760	-0.052673	0.999482	-0.012463	0.004105	-0.029358	
14691	    0	18.692894	-15.939481	-3.031734	-0.781030	0.682167	-4.317342	0.242798	-0.219788	-0.040405	0.999561	-0.005206	0.004547	-0.028778	
14692	    0	21.105745	-12.678838	-1.939871	-0.012447	0.837809	-3.955557	0.276672	-0.176392	-0.027405	0.999637	-0.000083	0.005585	-0.026367	
14693	    0	24.444602	-11.090220	-1.945075	0.558095	1.097591	-3.339127	0.322327	-0.154968	-0.028870	0.999718	0.003720	0.007317	-0.022259	
14694	    0	22.256946	-10.428472	-3.180264	1.293699	1.032756	-2.520588	0.294065	-0.143619	-0.045660	0.999798	0.008624	0.006885	-0.016803	
14695	    0	18.038467	-6.907175	-2.691554	1.725276	0.855628	-1.572490	0.239319	-0.094177	-0.038330	0.999862	0.011501	0.005704	-0.010483	
14696	    0	13.363093	-2.941607	-3.574002	1.656289	0.762053	-0.430452	0.177815	-0.039196	-0.048990	0.999922	0.011042	0.005080	-0.002870	
14697	    0	8.315587	-0.619703	-4.727551	1.130700	0.771491	0.954457	0.110596	-0.007080	-0.063660	0.999938	0.007538	0.005143	0.006363	
14698	    0	5.747331	-0.957968	-5.829994	0.751342	0.652918	2.377055	0.076477	-0.011169	-0.078125	0.999852	0.005009	0.004353	0.015846	
14699	    0	4.605956	0.226464	-6.119269	0.710899	0.382847	3.767237	0.061096	0.004944	-0.081726	0.999670	0.004739	0.002552	0.025112	
14700	    0	4.410098	1.190284	-5.578902	0.732705	0.104161	5.022054	0.058167	0.018188	-0.074341	0.999427	0.004884	0.000694	0.033474	
14701	    0	5.380461	1.403598	-4.978265	0.763109	-0.228375	6.149517	0.070984	0.021973	-0.066162	0.999146	0.005086	-0.001522	0.040985	
14702	    0	7.601451	1.486933	-4.525000	0.774634	-0.606341	7.137134	0.100490	0.024932	-0.059806	0.998846	0.005162	-0.004041	0.047563	
14703	    0	10.016331	1.268406	-4.126800	0.765969	-0.942148	7.868646	0.132751	0.024170	-0.054077	0.998591	0.005104	-0.006278	0.052433	
14704	    0	12.385607	0.520985	-3.789089	0.870074	-1.302749	8.357804	0.164832	0.016427	-0.049011	0.998393	0.005797	-0.008680	0.055689	
14705	    0	13.608205	0.582358	-3.262525	0.938968	-1.625302	8.711789	0.181030	0.018555	-0.041443	0.998235	0.006256	-0.010829	0.058044	
14706	    0	15.729446	1.093224	-2.843570	0.847537	-1.884163	8.964626	0.208801	0.027283	-0.035156	0.998119	0.005647	-0.012553	0.059727	
14707	    0	17.680042	1.938700	-2.224230	0.546953	-2.020049	9.124001	0.233948	0.040222	-0.026367	0.998053	0.003644	-0.013458	0.060787	
14708	    0	19.709712	2.766909	-1.861735	0.450191	-2.045826	9.165279	0.260193	0.052917	-0.021118	0.998036	0.002999	-0.013630	0.061062	
14709	    0	22.698380	6.361617	-2.117630	0.547376	-1.922544	9.053463	0.297119	0.102966	-0.024048	0.998090	0.003647	-0.012809	0.060318	
14710	    0	26.189237	14.326116	-1.350836	0.191515	-1.718483	8.743567	0.337451	0.210940	-0.013838	0.998235	0.001276	-0.011450	0.058256	
14711	    0	28.682563	19.267711	0.516096	-0.544452	-1.458599	8.266394	0.367432	0.277466	0.009521	0.998427	-0.003628	-0.009719	0.055080	
14712	    0	29.042864	21.324939	1.786487	-0.234698	-1.274094	7.230406	0.372725	0.302577	0.026564	0.998800	-0.001564	-0.008491	0.048183	
14713	    0	24.920936	27.832984	1.289626	1.233392	-1.225236	5.371981	0.318542	0.382507	0.022949	0.999291	0.008221	-0.008166	0.035805	
14714	    0	17.200032	38.749789	2.437467	2.190660	-1.165147	3.145783	0.218140	0.520752	0.041809	0.999642	0.014603	-0.007767	0.020969	
14715	    0	11.307231	42.937665	5.077028	2.568218	-0.950922	1.060935	0.146240	0.572266	0.078430	0.999808	0.017120	-0.006339	0.007072	
14716	    0	9.413597	41.264721	4.963283	2.674215	-0.533899	-0.797701	0.128174	0.548218	0.076416	0.999820	0.017827	-0.003559	-0.005318	
14717	    0	12.010762	35.055791	0.133315	2.800095	-0.360384	-2.527697	0.167969	0.464478	0.010864	0.999681	0.018665	-0.002402	-0.016850	
14718	    0	15.228518	37.523049	-14.029130	2.928887	-0.872514	-4.438544	0.218843	0.497497	-0.176079	0.999354	0.019522	-0.005816	-0.029584	
14719	    0	30.082318	49.572462	-15.053553	-0.448045	-0.504855	-6.728544	0.430847	0.641479	-0.201233	0.998983	-0.002986	-0.003365	-0.044842	
14720	    0	44.922133	-15.877159	-4.115525	-2.887287	0.455669	-6.998326	0.588030	-0.240331	-0.052228	0.998721	-0.019240	0.003036	-0.046636	
14721	    0	30.152740	0.419159	-12.980939	2.189999	-1.061935	-8.674687	0.402771	-0.015198	-0.170349	0.998197	0.014591	-0.007075	-0.057796	
14722	    0	18.295013	33.832337	5.615426	-1.117527	-0.184346	-8.324206	0.268372	0.437195	0.071899	0.998431	-0.007446	-0.001228	-0.055466	
14723	    0	-4.966627	12.458785	10.380782	-0.471649	-0.453189	-6.573895	-0.059265	0.169250	0.137695	0.999030	-0.003143	-0.003020	-0.043812	
14724	    0	4.432929	14.345526	-0.113608	-0.306197	-0.454860	-5.429130	0.065979	0.188965	-0.001709	0.999338	-0.002041	-0.003032	-0.036186	
14725	    0	13.623552	5.944294	-2.083735	-0.405759	-0.626522	-4.612143	0.184082	0.073547	-0.027222	0.999515	-0.002705	-0.004176	-0.030743	
14726	    0	13.712381	9.361454	-0.205382	-0.340362	-0.569273	-4.088206	0.186152	0.119770	-0.002312	0.999619	-0.002269	-0.003795	-0.027251	
14727	    0	16.066933	10.970379	-4.506312	-0.855960	-0.285558	-3.545731	0.217712	0.140808	-0.060486	0.999702	-0.005706	-0.001904	-0.023636	
14728	    0	18.197181	6.830453	-4.748193	-1.004005	-0.277110	-2.942775	0.244465	0.085864	-0.063445	0.999783	-0.006693	-0.001847	-0.019617	
14729	    0	23.893107	8.899348	-1.015881	-0.924734	-0.158366	-2.567052	0.320557	0.113098	-0.013916	0.999833	-0.006165	-0.001056	-0.017113	
14730	    0	26.539571	4.097515	2.031665	-1.097544	0.018311	-2.385071	0.354675	0.049194	0.026672	0.999846	-0.007317	0.000122	-0.015900	
14731	    0	28.785265	5.795463	3.398015	-1.422004	0.115735	-2.260900	0.384949	0.071899	0.044312	0.999841	-0.009480	0.000772	-0.015072	
14732	    0	27.703463	0.398629	2.367919	-2.496135	0.162661	-1.848926	0.369446	0.001282	0.031128	0.999784	-0.016640	0.001084	-0.012325	
14733	    0	25.462581	-4.579936	1.410686	-3.549616	0.147644	-1.271000	0.338989	-0.063477	0.019958	0.999683	-0.023662	0.000984	-0.008472	
14734	    0	22.426171	-7.856110	-1.416254	-4.127722	0.256525	-0.995769	0.298280	-0.107205	-0.016466	0.999598	-0.027514	0.001710	-0.006638	
14735	    0	19.759816	-13.187058	-3.610856	-3.799147	0.377125	-0.707896	0.262512	-0.178223	-0.044312	0.999664	-0.025325	0.002514	-0.004719	
14736	    0	14.653795	-18.351167	-6.307844	-2.615404	0.544053	-0.468089	0.194320	-0.246715	-0.080521	0.999836	-0.017435	0.003627	-0.003120	
14737	    0	11.550836	-11.143740	-5.377376	-0.421719	0.309136	-0.974473	0.152893	-0.149780	-0.071594	0.999972	-0.002811	0.002061	-0.006496	
14738	    0	8.147528	4.798246	-3.747533	-0.501275	0.579098	-2.384487	0.109436	0.062073	-0.050598	0.999860	-0.003342	0.003860	-0.015896	
14739	    0	7.340258	6.686609	-13.269512	-1.168537	1.132056	-2.893875	0.098206	0.085876	-0.178345	0.999755	-0.007790	0.007546	-0.019291	
14740	    0	13.340738	-6.284638	-14.272749	-0.776539	1.115453	-2.858946	0.174805	-0.088135	-0.191162	0.999777	-0.005177	0.007436	-0.019058	
14741	    0	12.371743	-13.333505	-6.281110	-0.726617	1.083273	-3.083294	0.160645	-0.181519	-0.084045	0.999750	-0.004844	0.007221	-0.020554	
14742	    0	15.989207	-13.183490	-4.380680	-0.894900	0.782161	-3.998795	0.208093	-0.181722	-0.058431	0.999613	-0.005965	0.005214	-0.026655	
14743	    0	18.223364	-12.835934	-4.581021	-1.823335	0.510059	-4.240713	0.237793	-0.178650	-0.059753	0.999520	-0.012154	0.003400	-0.028267	
14744	    0	17.530435	-14.151743	-4.740826	-2.329858	0.473154	-4.277130	0.228021	-0.196205	-0.060927	0.999468	-0.015530	0.003154	-0.028509	
14745	    0	18.024094	-15.001516	-4.447459	-1.841511	0.607208	-4.267624	0.234253	-0.207458	-0.057739	0.999512	-0.012275	0.004047	-0.028446	
14746	    0	19.324106	-14.394421	-3.289816	-0.853700	0.745253	-4.087802	0.252075	-0.199097	-0.044006	0.999599	-0.005691	0.004968	-0.027248	
14747	    0	21.598217	-11.748473	-2.002752	-0.029043	0.899033	-3.769531	0.283752	-0.163818	-0.028381	0.999666	-0.000194	0.005993	-0.025127	
14748	    0	23.709544	-10.972292	-1.603517	0.693144	1.058672	-3.203483	0.312744	-0.152893	-0.024292	0.999736	0.004621	0.007057	-0.021355	
14749	    0	20.916586	-9.666685	-3.078516	1.193262	1.001419	-2.406267	0.276489	-0.132996	-0.043945	0.999817	0.007955	0.006676	-0.016041	
14750	    0	16.824347	-5.720145	-2.569747	1.223698	0.923281	-1.373620	0.223396	-0.078027	-0.036272	0.999906	0.008158	0.006155	-0.009157	
14751	    0	11.492036	-1.611767	-3.336706	1.153582	0.861324	-0.095560	0.152954	-0.021240	-0.045532	0.999953	0.007690	0.005742	-0.000637	
14752	    0	6.711967	0.393818	-4.847873	0.818271	0.877353	1.280337	0.089062	0.006367	-0.065127	0.999931	0.005455	0.005849	0.008535	
14753	    0	4.809680	0.633259	-6.057352	0.647204	0.778390	2.720430	0.063538	0.009949	-0.081055	0.999812	0.004314	0.005189	0.018135	
14754	    0	3.964375	1.357259	-6.344876	0.645532	0.578003	4.119842	0.052002	0.019897	-0.084717	0.999606	0.004303	0.003853	0.027462	
14755	    0	3.988759	1.651655	-5.892364	0.758479	0.303907	5.347839	0.052185	0.024292	-0.078552	0.999350	0.005055	0.002026	0.035645	
14756	    0	4.979796	2.096200	-5.461950	0.908513	-0.026902	6.404382	0.065125	0.031189	-0.072632	0.999070	0.006055	-0.000179	0.042683	
14757	    0	6.715508	2.390612	-5.083697	0.968704	-0.397270	7.301985	0.088013	0.036621	-0.067322	0.998791	0.006455	-0.002647	0.048660	
14758	    0	9.100280	2.080553	-4.701014	1.028034	-0.717176	7.982395	0.119915	0.034575	-0.061883	0.998549	0.006850	-0.004779	0.053190	
14759	    0	10.361095	1.283462	-4.238815	1.230487	-1.060878	8.457825	0.137268	0.025330	-0.055359	0.998352	0.008199	-0.007069	0.056355	
14760	    0	12.812245	1.417071	-4.065233	1.369113	-1.379276	8.831031	0.169792	0.029399	-0.052402	0.998183	0.009122	-0.009190	0.058838	
14761	    0	15.310850	2.982837	-4.108924	1.107350	-1.570988	9.078666	0.201782	0.052429	-0.052307	0.998086	0.007378	-0.010467	0.060486	
14762	    0	16.962075	3.174603	-3.532860	0.830239	-1.716017	9.192172	0.223511	0.056335	-0.044250	0.998042	0.005531	-0.011433	0.061241	
14763	    0	18.661275	4.459648	-2.814698	0.880624	-1.827524	9.155514	0.244995	0.074707	-0.034119	0.998046	0.005867	-0.012176	0.060997	
14764	    0	21.733019	8.116543	-2.452410	0.869868	-1.808157	8.985820	0.282959	0.125488	-0.028564	0.998116	0.005795	-0.012047	0.059868	
14765	    0	24.440840	15.291762	-1.934793	0.285266	-1.754823	8.662472	0.313660	0.222290	-0.021667	0.998262	0.001901	-0.011692	0.057716	
14766	    0	26.428133	19.032376	-0.174865	-0.462010	-1.584687	8.217701	0.337787	0.272542	0.000469	0.998439	-0.003078	-0.010559	0.054756	
14767	    0	27.444234	21.436999	2.278123	-0.192196	-1.325764	7.282544	0.351196	0.303162	0.033142	0.998781	-0.001281	-0.008835	0.048531	
14768	    0	24.364897	24.736240	2.818486	1.024510	-1.106785	5.698049	0.311737	0.341549	0.042219	0.999228	0.006828	-0.007377	0.037977	
14769	    0	17.964204	33.881930	1.033457	1.945331	-1.004928	3.684354	0.228210	0.457214	0.021240	0.999592	0.012967	-0.006699	0.024559	
14770	    0	11.185785	39.794376	2.589142	2.099687	-0.854782	1.702982	0.142883	0.531677	0.042786	0.999821	0.013997	-0.005698	0.011353	
14771	    0	9.211600	39.735354	4.671646	1.943265	-0.532023	-0.079539	0.122864	0.528870	0.069580	0.999909	0.012955	-0.003547	-0.000530	
14772	    0	8.942414	35.312536	2.871696	1.889513	-0.205861	-1.744166	0.124634	0.468872	0.044373	0.999851	0.012596	-0.001372	-0.011627	
14773	    0	12.862980	27.497394	-6.082773	1.507471	-0.298146	-3.200639	0.179443	0.363647	-0.077087	0.999720	0.010049	-0.001987	-0.021336	
14774	    0	19.250205	43.729515	-22.182056	0.787234	-0.902557	-5.203010	0.278476	0.575188	-0.291096	0.999366	0.005247	-0.006016	-0.034679	
14775	    0	39.431369	14.754820	-9.401789	-4.304323	0.412886	-6.437308	0.533081	0.170227	-0.131958	0.998664	-0.028683	0.002751	-0.042896	
14776	    0	50.644146	-16.399678	-6.570465	-0.656056	-0.299261	-7.947522	0.662576	-0.254379	-0.085215	0.998585	-0.004372	-0.001994	-0.052958	
14777	    0	24.552452	24.533896	-6.876350	1.302595	-0.819776	-9.142783	0.346985	0.307129	-0.087097	0.998090	0.008678	-0.005462	-0.060913	
14778	    0	1.260458	15.956455	14.172051	-1.438419	-0.220249	-7.434954	0.027100	0.213379	0.186951	0.998724	-0.009585	-0.001468	-0.049545	
14779	    0	-7.277278	17.735978	1.684753	-0.156110	-0.400077	-5.966242	-0.087585	0.240112	0.021973	0.999205	-0.001040	-0.002666	-0.039764	
14780	    0	13.300639	7.800098	-0.150710	-0.367845	-0.456695	-4.687703	0.180481	0.098389	-0.001709	0.999503	-0.002452	-0.003044	-0.031246	
14781	    0	15.893659	7.935359	-1.116557	-0.314610	-0.488726	-4.153030	0.214783	0.099854	-0.014404	0.999609	-0.002097	-0.003258	-0.027683	
14782	    0	15.578379	11.629857	-0.632499	-0.341786	-0.465395	-3.751631	0.211528	0.149787	-0.008126	0.999680	-0.002278	-0.003102	-0.025008	
14783	    0	14.722778	8.736423	-4.749631	-0.993282	-0.226038	-3.080417	0.198730	0.112000	-0.063782	0.999765	-0.006621	-0.001507	-0.020535	
14784	    0	19.080095	7.648244	-3.921627	-0.782246	-0.296561	-2.585076	0.256208	0.097299	-0.052299	0.999836	-0.005215	-0.001977	-0.017233	
14785	    0	23.715610	7.560395	-0.674777	-1.087809	-0.000429	-2.178479	0.317627	0.096130	-0.009705	0.999867	-0.007252	-0.000003	-0.014523	
14786	    0	26.230421	4.347074	1.379670	-1.087663	0.127750	-2.110951	0.350525	0.053162	0.017700	0.999874	-0.007251	0.000852	-0.014072	
14787	    0	27.017338	4.329756	1.779986	-1.695525	0.220453	-1.906106	0.360962	0.053406	0.022583	0.999854	-0.011303	0.001470	-0.012707	
14788	    0	25.084706	-1.814551	1.531072	-2.658646	0.193562	-1.493557	0.334229	-0.027161	0.020447	0.999792	-0.017723	0.001290	-0.009956	
14789	    0	23.571349	-3.595167	0.749611	-3.569062	0.172823	-1.012333	0.313965	-0.049805	0.010803	0.999693	-0.023791	0.001152	-0.006748	
14790	    0	22.314381	-6.675978	-1.173349	-3.991192	0.358674	-0.811057	0.297002	-0.091006	-0.013951	0.999628	-0.026605	0.002391	-0.005406	
14791	    0	19.806675	-14.167004	-3.930030	-3.392331	0.554086	-0.471539	0.263306	-0.190857	-0.049072	0.999732	-0.022614	0.003694	-0.003143	
14792	    0	14.141711	-16.464011	-6.571421	-2.030536	0.600692	-0.242480	0.187855	-0.220990	-0.085387	0.999899	-0.013536	0.004004	-0.001616	
14793	    0	11.877147	-6.405385	-3.715219	-0.251200	0.392107	-1.006517	0.157654	-0.086548	-0.049805	0.999972	-0.001675	0.002614	-0.006710	
14794	    0	7.879075	9.786549	-5.379298	-1.094547	0.815009	-2.432010	0.106750	0.128235	-0.073242	0.999826	-0.007297	0.005433	-0.016212	
14795	    0	11.156884	9.421407	-15.967330	-1.915343	1.126917	-2.714214	0.149353	0.120178	-0.215576	0.999726	-0.012768	0.007512	-0.018093	
14796	    0	10.549906	-6.214823	-12.802367	-1.772118	1.179409	-2.525915	0.137878	-0.087219	-0.170776	0.999757	-0.011813	0.007862	-0.016838	
14797	    0	11.793688	-10.002830	-5.885781	-1.772723	1.155968	-2.994073	0.153931	-0.137390	-0.078064	0.999701	-0.011817	0.007706	-0.019958	
14798	    0	16.244602	-10.803754	-5.791521	-2.160847	1.056030	-3.979176	0.212112	-0.150824	-0.076584	0.999519	-0.014403	0.007039	-0.026524	
14799	    0	19.445489	-12.381239	-5.892271	-2.801371	0.900262	-4.353078	0.253845	-0.173950	-0.076904	0.999386	-0.018672	0.006001	-0.029015	
14800	    0	19.830820	-15.522228	-5.072921	-2.909333	0.984420	-4.674707	0.257332	-0.216338	-0.065207	0.999305	-0.019391	0.006561	-0.031157	
14801	    0	20.364405	-15.997908	-4.166268	-2.042080	1.163693	-4.946091	0.263855	-0.222839	-0.054626	0.999333	-0.013611	0.007756	-0.032967	
14802	    0	21.290026	-15.914623	-3.355963	-0.757180	1.246513	-5.012380	0.276184	-0.221741	-0.045959	0.999394	-0.005047	0.008308	-0.033409	
14803	    0	23.117485	-13.461344	-2.747587	0.259827	1.309579	-4.708362	0.302063	-0.188965	-0.039612	0.999467	0.001732	0.008729	-0.031384	
14804	    0	24.379513	-11.702988	-3.123308	0.930542	1.429721	-4.123342	0.320190	-0.164612	-0.045715	0.999557	0.006203	0.009530	-0.027485	
14805	    0	21.359786	-10.220844	-4.249974	1.483456	1.260702	-3.267638	0.281250	-0.141846	-0.060425	0.999678	0.009889	0.008404	-0.021782	
14806	    0	17.106663	-7.119995	-3.930213	1.708290	0.996991	-2.295698	0.226247	-0.097789	-0.055014	0.999796	0.011388	0.006646	-0.015304	
14807	    0	12.448757	-3.315047	-4.880597	1.609666	0.828723	-1.129570	0.165283	-0.044739	-0.066467	0.999898	0.010731	0.005525	-0.007530	
14808	    0	6.492382	-1.725557	-5.710256	1.271031	0.765623	0.233320	0.086209	-0.022224	-0.076768	0.999949	0.008473	0.005104	0.001555	
14809	    0	2.607550	-0.686363	-6.630646	1.180643	0.642609	1.725830	0.034485	-0.008057	-0.088623	0.999893	0.007871	0.004284	0.011505	
14810	    0	1.120629	1.103192	-6.880764	1.083279	0.435486	3.244113	0.014343	0.015686	-0.091675	0.999736	0.007221	0.002903	0.021626	
14811	    0	0.449003	0.795098	-6.739204	1.061190	0.144792	4.654526	0.005554	0.011414	-0.089783	0.999493	0.007073	0.000965	0.031025	
14812	    0	0.935738	0.214659	-6.567697	1.160168	-0.201327	5.886123	0.012451	0.004028	-0.087524	0.999199	0.007732	-0.001342	0.039230	
14813	    0	3.250623	1.068670	-6.219784	1.194778	-0.561542	6.961741	0.042908	0.016907	-0.082642	0.998884	0.007962	-0.003742	0.046394	
14814	    0	5.894971	1.250151	-5.417711	0.967184	-0.859560	7.772109	0.077991	0.021185	-0.071661	0.998620	0.006445	-0.005728	0.051790	
14815	    0	8.780861	-0.892609	-4.167935	1.000172	-1.190102	8.323130	0.117920	-0.005005	-0.054688	0.998406	0.006664	-0.007930	0.055458	
14816	    0	11.327687	-1.590665	-2.940827	1.290221	-1.537702	8.676714	0.152304	-0.012091	-0.037784	0.998238	0.008596	-0.010245	0.057811	
14817	    0	14.088961	-1.015395	-2.248355	1.332345	-1.750743	8.876959	0.188538	-0.002136	-0.027832	0.998141	0.008877	-0.011664	0.059143	
14818	    0	15.662333	-0.602241	-2.365605	1.330809	-1.868744	9.071319	0.209167	0.004883	-0.028931	0.998055	0.008866	-0.012450	0.060436	
14819	    0	18.312080	0.156539	-2.027636	1.411010	-1.878102	9.267405	0.243713	0.017395	-0.023865	0.997969	0.009400	-0.012512	0.061741	
14820	    0	21.635203	1.497276	-1.922664	1.587249	-1.797823	9.360874	0.286743	0.038147	-0.021851	0.997925	0.010574	-0.011977	0.062363	
14821	    0	25.277344	7.352510	-3.036627	1.569035	-1.544843	9.253599	0.330505	0.118958	-0.035889	0.997990	0.010453	-0.010292	0.061649	
14822	    0	27.781080	15.539666	-2.755320	0.658440	-1.197789	9.008749	0.357362	0.229078	-0.032874	0.998155	0.004387	-0.007980	0.060021	
14823	    0	29.682527	21.721369	-3.333037	-0.033206	-1.052720	8.548283	0.378723	0.311523	-0.041809	0.998351	-0.000221	-0.007014	0.056957	
14824	    0	29.385842	24.765413	-1.922463	-0.153128	-1.030253	7.417853	0.375023	0.349009	-0.023368	0.998753	-0.001020	-0.006866	0.049432	
14825	    0	23.906739	31.677976	-0.913288	0.812861	-1.137805	5.401713	0.303345	0.433533	-0.007507	0.999308	0.005418	-0.007584	0.036003	
14826	    0	15.906762	43.334967	2.569700	1.315618	-1.132496	3.046122	0.200012	0.581604	0.040894	0.999726	0.008770	-0.007549	0.020306	
14827	    0	10.501104	46.398172	5.731580	1.633692	-0.834728	0.778221	0.136353	0.618469	0.083923	0.999911	0.010891	-0.005565	0.005188	
14828	    0	13.044209	41.587948	3.045511	1.957598	-0.487969	-1.355612	0.178772	0.552307	0.048401	0.999868	0.013050	-0.003253	-0.009037	
14829	    0	15.941789	43.597079	-9.052520	3.113525	-0.805817	-3.899168	0.228210	0.577820	-0.107483	0.999432	0.020753	-0.005371	-0.025990	
14830	    0	31.649253	58.146150	-12.612916	1.132383	-0.513601	-6.962017	0.457939	0.755812	-0.160889	0.998888	0.007546	-0.003423	-0.046396	
14831	    0	53.311497	-13.370083	-1.001436	-2.224579	0.367090	-7.424805	0.700806	-0.213318	-0.012085	0.998662	-0.014824	0.002446	-0.049477	
14832	    0	32.146042	7.535056	-6.241090	2.170695	-1.036534	-9.245350	0.434317	0.074967	-0.079017	0.997972	0.014462	-0.006906	-0.061594	
14833	    0	19.476500	29.870772	4.926786	-1.303066	-0.266653	-8.585580	0.281799	0.383118	0.062805	0.998322	-0.008682	-0.001777	-0.057205	
14834	    0	-9.111460	11.586055	5.641542	-0.320545	-0.772742	-6.757768	-0.114746	0.159912	0.074280	0.998969	-0.002136	-0.005150	-0.045036	
14835	    0	4.254529	12.741924	-2.891217	-0.438838	-0.550586	-5.506437	0.063049	0.167542	-0.038818	0.999315	-0.002925	-0.003670	-0.036701	
14836	    0	14.891249	7.144809	-2.173158	-0.469285	-0.474865	-4.672249	0.201477	0.088928	-0.028625	0.999504	-0.003128	-0.003165	-0.031143	
14837	    0	13.013063	10.388068	-0.484449	-0.393153	-0.345511	-4.059723	0.177185	0.133728	-0.006409	0.999627	-0.002621	-0.002303	-0.027061	
14838	    0	14.623404	11.326116	-4.778136	-0.907031	-0.148501	-3.471038	0.198461	0.146061	-0.064406	0.999713	-0.006046	-0.000990	-0.023138	
14839	    0	17.420210	7.663329	-4.377877	-0.972815	-0.190987	-2.894412	0.234253	0.097290	-0.058716	0.999791	-0.006485	-0.001273	-0.019295	
14840	    0	22.207190	8.615525	-0.386177	-0.849479	-0.102573	-2.422833	0.297903	0.110041	-0.005578	0.999853	-0.005663	-0.000684	-0.016151	
14841	    0	24.258517	4.420049	2.151656	-0.980658	0.029756	-2.221395	0.324280	0.054321	0.028259	0.999868	-0.006537	0.000198	-0.014809	
14842	    0	26.261895	6.190317	2.748639	-1.229719	0.072101	-2.038851	0.351257	0.078064	0.035828	0.999873	-0.008198	0.000481	-0.013592	
14843	    0	25.286997	2.145182	2.000331	-2.221425	0.069956	-1.655482	0.337463	0.025269	0.026123	0.999829	-0.014809	0.000466	-0.011036	
14844	    0	23.497294	-1.892156	1.811466	-3.273871	0.033906	-1.093579	0.313110	-0.026978	0.024658	0.999735	-0.021824	0.000226	-0.007290	
14845	    0	23.651307	-4.133103	0.245304	-4.060164	0.188279	-0.781158	0.315063	-0.056641	0.004395	0.999619	-0.027064	0.001255	-0.005207	
14846	    0	21.891935	-10.880565	-2.635495	-3.773099	0.381559	-0.583283	0.291239	-0.147042	-0.032199	0.999672	-0.025151	0.002543	-0.003888	
14847	    0	17.127153	-17.734242	-6.012265	-2.807978	0.500852	-0.163088	0.227844	-0.238159	-0.076477	0.999818	-0.018719	0.003339	-0.001087	
14848	    0	12.186224	-13.129507	-6.580464	-0.634721	0.284101	-0.461056	0.161777	-0.175928	-0.087303	0.999984	-0.004231	0.001894	-0.003074	
14849	    0	9.681951	4.463205	-3.721235	-0.409710	0.386965	-1.892335	0.129700	0.057739	-0.050110	0.999913	-0.002731	0.002580	-0.012615	
14850	    0	6.231899	11.278972	-13.032788	-1.527756	1.003292	-2.582551	0.084473	0.147156	-0.175842	0.999777	-0.010184	0.006688	-0.017216	
14851	    0	12.838001	-1.590879	-16.437885	-1.464369	0.915731	-2.440614	0.169434	-0.026123	-0.219971	0.999801	-0.009762	0.006104	-0.016270	
14852	    0	10.254008	-9.726105	-8.155293	-1.843781	0.952935	-2.410306	0.133911	-0.133179	-0.107971	0.999775	-0.012291	0.006352	-0.016068	
14853	    0	13.291790	-10.524159	-6.008381	-2.178515	0.820073	-3.409053	0.173523	-0.145447	-0.078979	0.999620	-0.014522	0.005466	-0.022724	
14854	    0	17.469216	-12.876947	-5.733128	-2.725452	0.650566	-3.933012	0.227966	-0.179076	-0.074228	0.999481	-0.018167	0.004336	-0.026216	
14855	    0	18.189540	-15.215780	-4.587188	-2.854139	0.606225	-4.207665	0.236450	-0.210693	-0.058167	0.999417	-0.019024	0.004041	-0.028046	
14856	    0	17.340686	-15.917052	-3.361558	-2.347637	0.718399	-4.478795	0.224516	-0.219676	-0.042507	0.999420	-0.015648	0.004788	-0.029853	
14857	    0	17.375155	-16.317886	-2.075048	-1.235033	0.794501	-4.622502	0.224670	-0.224792	-0.027039	0.999476	-0.008232	0.005296	-0.030811	
14858	    0	18.421065	-14.302725	-0.931004	-0.063525	0.908230	-4.486208	0.239685	-0.197937	-0.013794	0.999534	-0.000423	0.006054	-0.029903	
14859	    0	20.678793	-11.054319	-0.943803	0.720503	1.068021	-4.068351	0.271484	-0.154724	-0.015259	0.999595	0.004803	0.007119	-0.027119	
14860	    0	22.489899	-9.830551	-2.101340	1.350693	1.198899	-3.382097	0.296570	-0.137512	-0.031616	0.999673	0.009004	0.007992	-0.022545	
14861	    0	20.365283	-8.181559	-3.742812	1.732198	1.058804	-2.527624	0.269287	-0.113037	-0.053101	0.999766	0.011547	0.007058	-0.016850	
14862	    0	16.234006	-4.426634	-3.603098	1.687794	0.854912	-1.595236	0.215532	-0.060762	-0.049949	0.999864	0.011251	0.005699	-0.010634	
14863	    0	11.234310	-1.432224	-4.286603	1.373891	0.840157	-0.416573	0.149414	-0.018982	-0.058167	0.999938	0.009159	0.005601	-0.002777	
14864	    0	6.985236	-0.145695	-5.314018	1.060174	0.878924	0.925989	0.092727	-0.000866	-0.071406	0.999938	0.007068	0.005859	0.006173	
14865	    0	4.986268	0.680739	-6.235023	1.025017	0.841758	2.350171	0.065857	0.010681	-0.083435	0.999838	0.006833	0.005611	0.015667	
14866	    0	3.981256	1.971235	-6.290811	1.089175	0.704609	3.740363	0.052002	0.028198	-0.083923	0.999651	0.007260	0.004697	0.024933	
14867	    0	3.703161	1.835664	-5.889127	1.180268	0.536836	5.061028	0.048218	0.026733	-0.078491	0.999393	0.007867	0.003578	0.033733	
14868	    0	4.500998	1.708452	-5.922897	1.315467	0.262721	6.250366	0.058838	0.025940	-0.078857	0.999091	0.008767	0.001751	0.041656	
14869	    0	5.918026	1.979952	-6.150739	1.326472	-0.045795	7.232129	0.077515	0.030884	-0.081726	0.998798	0.008840	-0.000305	0.048195	
14870	    0	7.703509	1.697283	-6.024443	1.231260	-0.408607	7.944009	0.101519	0.028687	-0.079829	0.998560	0.008204	-0.002723	0.052935	
14871	    0	9.191369	0.992738	-5.815883	1.290018	-0.818696	8.412529	0.121948	0.020752	-0.076721	0.998375	0.008595	-0.005455	0.056053	
14872	    0	11.045823	0.582279	-5.236270	1.365658	-1.232112	8.741013	0.147034	0.016968	-0.068481	0.998227	0.009099	-0.008209	0.058239	
14873	    0	13.661662	1.602708	-5.096622	1.209977	-1.540205	9.032241	0.181091	0.032837	-0.065857	0.998102	0.008061	-0.010262	0.060177	
14874	    0	15.986467	2.669056	-4.867134	0.652455	-1.711729	9.232284	0.211136	0.048904	-0.062284	0.998031	0.004347	-0.011404	0.061508	
14875	    0	18.103186	3.486671	-4.397514	0.406538	-1.915739	9.315448	0.238586	0.061523	-0.055420	0.997987	0.002708	-0.012763	0.062061	
14876	    0	21.481771	6.091395	-3.880247	0.442606	-2.009621	9.212279	0.281372	0.098755	-0.047668	0.998020	0.002949	-0.013389	0.061375	
14877	    0	25.581342	13.371204	-1.784100	-0.097335	-1.886433	8.920440	0.329956	0.198120	-0.019714	0.998153	-0.000648	-0.012568	0.059433	
14878	    0	27.371968	17.609425	2.833428	-1.356763	-1.524230	8.579141	0.350344	0.255466	0.039141	0.998272	-0.009040	-0.010156	0.057161	
14879	    0	28.640456	17.206037	4.271486	-0.826513	-1.221666	7.876136	0.368652	0.249329	0.058655	0.998573	-0.005507	-0.008141	0.052483	
14880	    0	27.253338	21.047221	1.244362	1.371162	-1.133476	6.379149	0.350865	0.295547	0.021932	0.999025	0.009138	-0.007554	0.042514	
14881	    0	20.547459	33.975700	-0.910599	2.625349	-1.226470	4.184763	0.261230	0.460510	-0.001953	0.999424	0.017499	-0.008175	0.027893	
14882	    0	12.937848	43.353089	4.979021	2.633525	-1.143369	2.010338	0.164185	0.578979	0.077820	0.999726	0.017555	-0.007622	0.013401	
14883	    0	10.043430	42.212045	7.034150	2.310089	-0.658493	0.127607	0.132996	0.561401	0.103027	0.999871	0.015400	-0.004390	0.000851	
14884	    0	10.263739	35.860200	2.249737	2.376512	-0.246492	-1.609138	0.141907	0.476074	0.037781	0.999815	0.015842	-0.001643	-0.010727	
14885	    0	12.399550	29.583403	-9.939367	2.504304	-0.624216	-3.388479	0.174744	0.392700	-0.125244	0.999597	0.016693	-0.004161	-0.022587	
14886	    0	20.005176	53.274883	-20.053176	1.442209	-1.074753	-5.822782	0.295966	0.701734	-0.258549	0.999174	0.009612	-0.007163	-0.038808	
14887	    0	43.204953	9.512025	-10.776616	-3.981909	0.352065	-6.705259	0.580505	0.097046	-0.147888	0.998646	-0.026534	0.002346	-0.044682	
14888	    0	49.685555	-6.143466	-9.056169	0.703206	-0.702490	-8.656601	0.656860	-0.119385	-0.118164	0.998313	0.004685	-0.004681	-0.057678	
14889	    0	22.157030	22.886908	4.966050	-0.797985	-0.319480	-8.927132	0.312744	0.287231	0.065308	0.998213	-0.005317	-0.002129	-0.059479	
14890	    0	-2.909784	11.330570	12.778596	-0.741867	-0.572429	-7.207448	-0.032104	0.153564	0.169495	0.998826	-0.004944	-0.003815	-0.048031	
14891	    0	-2.371089	17.922032	1.249731	-0.550452	-0.571200	-5.690249	-0.022583	0.239990	0.015686	0.999266	-0.003669	-0.003807	-0.037926	
14892	    0	15.138488	6.700369	-1.658637	-0.236789	-0.608354	-4.681408	0.204590	0.082947	-0.021423	0.999503	-0.001578	-0.004055	-0.031204	
14893	    0	14.195991	7.808880	-2.080384	-0.056084	-0.578433	-4.198824	0.192200	0.098755	-0.027039	0.999600	-0.000374	-0.003856	-0.027988	
14894	    0	14.480509	12.840585	-6.973917	-0.854821	-0.257949	-3.677663	0.197345	0.165872	-0.093604	0.999681	-0.005698	-0.001719	-0.024515	
14895	    0	16.241123	6.246982	-3.947755	-0.915026	-0.185266	-3.086709	0.218262	0.078491	-0.052856	0.999768	-0.006100	-0.001235	-0.020576	
14896	    0	21.936184	8.009216	-1.047180	-0.748772	0.023319	-2.671346	0.294319	0.101487	-0.014524	0.999828	-0.004992	0.000155	-0.017808	
14897	    0	23.966547	4.322681	1.256368	-0.719728	0.263228	-2.532709	0.320496	0.052307	0.015930	0.999844	-0.004798	0.001755	-0.016884	
14898	    0	26.377661	4.551871	1.895376	-0.752913	0.398988	-2.348436	0.352661	0.055298	0.024048	0.999861	-0.005019	0.002660	-0.015656	
14899	    0	26.324095	3.014462	0.716522	-1.635299	0.387974	-1.982216	0.351501	0.035645	0.008240	0.999849	-0.010901	0.002586	-0.013214	
14900	    0	24.905478	-1.800026	1.158481	-2.739768	0.243777	-1.444920	0.331848	-0.026917	0.015381	0.999785	-0.018264	0.001625	-0.009632	
14901	    0	23.840276	-3.990257	0.844956	-3.759666	0.171681	-1.043819	0.317505	-0.055115	0.012268	0.999660	-0.025062	0.001144	-0.006958	
14902	    0	22.458592	-9.386637	-0.447592	-3.752645	0.270683	-0.839946	0.298733	-0.126935	-0.003346	0.999669	-0.025015	0.001804	-0.005599	
14903	    0	18.842232	-16.757773	-2.910601	-3.111878	0.344636	-0.399428	0.250549	-0.224854	-0.034729	0.999778	-0.020744	0.002297	-0.002663	
14904	    0	13.922758	-15.356924	-5.572608	-1.286191	0.293545	-0.392395	0.184956	-0.205873	-0.072902	0.999957	-0.008574	0.001957	-0.002616	
14905	    0	12.004831	0.368170	-2.902639	-0.192694	0.276381	-1.693763	0.160034	0.003052	-0.039001	0.999933	-0.001285	0.001842	-0.011292	
14906	    0	4.850673	10.171157	-10.663651	-0.692410	0.881250	-2.663777	0.066223	0.133789	-0.143188	0.999814	-0.004616	0.005875	-0.017757	
14907	    0	13.100285	-0.620597	-15.380843	-0.382828	0.919731	-2.678652	0.173218	-0.011902	-0.206116	0.999818	-0.002552	0.006131	-0.017857	
14908	    0	8.220313	-10.982756	-6.446925	-0.525746	0.949347	-2.712421	0.106384	-0.148682	-0.086121	0.999810	-0.003505	0.006329	-0.018082	
14909	    0	13.126470	-10.290856	-5.730392	-0.859406	0.709042	-3.756378	0.171143	-0.141968	-0.076416	0.999659	-0.005729	0.004726	-0.025040	
14910	    0	17.980796	-11.429492	-6.416289	-1.968852	0.534670	-4.257190	0.234968	-0.160220	-0.084325	0.999504	-0.013124	0.003564	-0.028377	
14911	    0	19.531675	-14.109483	-5.528748	-2.717389	0.387606	-4.513338	0.254395	-0.197144	-0.070862	0.999379	-0.018112	0.002584	-0.030083	
14912	    0	19.033397	-15.268648	-3.635653	-2.566467	0.476178	-4.749759	0.247000	-0.212274	-0.045684	0.999347	-0.017106	0.003174	-0.031658	
14913	    0	19.755124	-15.308823	-2.129841	-1.757017	0.637133	-4.826359	0.256531	-0.212769	-0.027039	0.999404	-0.011711	0.004247	-0.032169	
14914	    0	20.218758	-14.319389	-1.016183	-0.550411	0.752720	-4.691728	0.263367	-0.199280	-0.014160	0.999491	-0.003669	0.005017	-0.031273	
14915	    0	21.281754	-11.506402	-1.011440	0.342228	0.884326	-4.303598	0.279114	-0.161438	-0.015503	0.999568	0.002281	0.005895	-0.028687	
14916	    0	22.408073	-10.195780	-1.564856	1.039240	0.994174	-3.622463	0.295227	-0.142944	-0.023804	0.999662	0.006927	0.006627	-0.024147	
14917	    0	20.015390	-8.586981	-3.063386	1.501726	0.846357	-2.765682	0.264465	-0.118958	-0.043518	0.999763	0.010011	0.005642	-0.018436	
14918	    0	15.803052	-4.450248	-3.332575	1.239729	0.696400	-1.776906	0.209777	-0.061450	-0.045912	0.999885	0.008265	0.004642	-0.011846	
14919	    0	9.151531	-0.605183	-4.345225	0.998509	0.592954	-0.462347	0.121765	-0.008057	-0.058472	0.999965	0.006657	0.003953	-0.003082	
14920	    0	4.655443	0.767215	-4.898132	0.706825	0.636014	0.920975	0.061729	0.010918	-0.065520	0.999961	0.004712	0.004240	0.006140	
14921	    0	2.735031	0.663647	-5.508066	0.685106	0.620873	2.410817	0.036011	0.009766	-0.073547	0.999851	0.004567	0.004139	0.016071	
14922	    0	2.397911	1.060134	-5.346361	0.927222	0.459677	3.824488	0.031372	0.015381	-0.071289	0.999651	0.006181	0.003064	0.025494	
14923	    0	2.606971	1.618394	-5.108075	1.157372	0.266128	5.051285	0.033875	0.023254	-0.067993	0.999401	0.007714	0.001774	0.033669	
14924	    0	3.691106	1.983315	-5.309128	1.288415	0.032196	6.198816	0.048035	0.029053	-0.070557	0.999109	0.008587	0.000215	0.041313	
14925	    0	5.225744	2.203738	-5.268365	1.230299	-0.212372	7.216077	0.068237	0.033264	-0.069885	0.998808	0.008199	-0.001415	0.048088	
14926	    0	7.230938	1.434088	-4.518956	1.111896	-0.484460	7.940702	0.095399	0.024635	-0.059774	0.998566	0.007409	-0.003228	0.052913	
14927	    0	9.632360	-0.011733	-3.820322	1.234336	-0.776756	8.391884	0.128418	0.007446	-0.050232	0.998387	0.008224	-0.005176	0.055916	
14928	    0	11.678362	-0.497777	-3.093194	1.482888	-1.063070	8.751613	0.156016	0.002864	-0.040140	0.998224	0.009880	-0.007083	0.058310	
14929	    0	14.289645	-0.121166	-2.595147	1.501842	-1.244044	9.031666	0.190430	0.010193	-0.032959	0.998103	0.010006	-0.008288	0.060173	
14930	    0	16.416233	0.776719	-2.503430	1.389237	-1.337990	9.285627	0.217957	0.024170	-0.031250	0.998001	0.009255	-0.008914	0.061863	
14931	    0	19.491795	2.308319	-1.865288	1.369238	-1.354207	9.506364	0.257446	0.047363	-0.022156	0.997910	0.009122	-0.009022	0.063332	
14932	    0	22.546854	6.634323	-1.482705	1.196159	-1.225218	9.489108	0.294373	0.107361	-0.016541	0.997934	0.007969	-0.008162	0.063217	
14933	    0	25.956364	12.212873	0.021674	0.388204	-0.885054	9.268809	0.335144	0.183777	0.002747	0.998071	0.002586	-0.005897	0.061752	
14934	    0	28.469748	17.112894	0.313505	-0.057397	-0.655989	8.881827	0.365192	0.250091	0.005706	0.998238	-0.000382	-0.004371	0.059177	
14935	    0	31.070635	21.607057	-0.128388	0.054529	-0.482033	8.120129	0.397888	0.309937	-0.000305	0.998529	0.000363	-0.003212	0.054108	
14936	    0	27.867385	27.021011	-3.904151	0.932001	-0.638506	6.598565	0.355449	0.376464	-0.048213	0.999003	0.006211	-0.004255	0.043976	
14937	    0	20.944391	37.213456	-3.230568	1.327155	-0.814807	4.376920	0.264832	0.504395	-0.037170	0.999520	0.008846	-0.005431	0.029175	
14938	    0	14.015330	43.306588	4.403370	1.197251	-0.675662	2.105239	0.178467	0.579468	0.064148	0.999859	0.007981	-0.004504	0.014034	
14939	    0	9.196972	42.988949	4.334935	1.506211	-0.208286	-0.068666	0.122803	0.572510	0.063721	0.999949	0.010041	-0.001389	-0.000458	
14940	    0	11.480717	36.465962	-2.003828	1.857480	-0.019885	-2.018850	0.159607	0.484375	-0.020691	0.999832	0.012383	-0.000133	-0.013458	
14941	    0	12.874773	41.198876	-15.217539	2.689428	-0.664452	-4.144669	0.187683	0.547791	-0.192261	0.999447	0.017926	-0.004429	-0.027626	
14942	    0	26.705762	55.981456	-16.274332	-0.683588	-0.431160	-6.732706	0.389677	0.728432	-0.219251	0.998978	-0.004556	-0.002873	-0.044869	
14943	    0	42.949042	-9.045046	-13.909341	-3.318420	0.283941	-7.047009	0.565674	-0.151367	-0.183411	0.998650	-0.022113	0.001892	-0.046959	
14944	    0	32.729930	7.771318	-12.453925	1.528591	-0.895197	-8.978166	0.442595	0.078908	-0.162534	0.998139	0.010184	-0.005964	-0.059817	
14945	    0	13.160113	23.441318	13.095457	-1.818561	-0.019464	-7.539866	0.190918	0.305298	0.170898	0.998663	-0.012118	-0.000130	-0.050243	
14946	    0	1.747020	9.861406	9.079581	-0.261427	-0.438287	-6.093950	0.028259	0.130615	0.120911	0.999168	-0.001742	-0.002921	-0.040615	
14947	    0	10.230595	12.227353	-0.194027	-0.152664	-0.264981	-5.039213	0.141785	0.158325	-0.002502	0.999434	-0.001018	-0.001766	-0.033588	
14948	    0	15.130192	4.431007	-1.574266	-0.157235	-0.444664	-4.270375	0.203369	0.053284	-0.020447	0.999589	-0.001048	-0.002964	-0.028465	
14949	    0	14.370200	12.308640	-5.109948	-0.556240	-0.332342	-3.661340	0.195679	0.159119	-0.068298	0.999692	-0.003708	-0.002215	-0.024406	
14950	    0	14.937655	9.669675	-2.307417	-0.943352	-0.168241	-3.077410	0.201790	0.124611	-0.031333	0.999768	-0.006289	-0.001122	-0.020514	
14951	    0	19.100011	7.739262	-1.535786	-0.909856	-0.051930	-2.597955	0.256409	0.098633	-0.020996	0.999831	-0.006065	-0.000346	-0.017319	
14952	    0	24.264683	5.961271	-0.225442	-0.885384	0.181683	-2.318107	0.324701	0.074450	-0.003848	0.999862	-0.005902	0.001211	-0.015453	
14953	    0	26.354012	2.253252	1.361510	-0.975506	0.327315	-2.137273	0.351807	0.025146	0.017212	0.999874	-0.006503	0.002182	-0.014248	
14954	    0	25.692035	2.393573	1.366985	-1.662331	0.355355	-1.817405	0.342957	0.027954	0.017090	0.999862	-0.011082	0.002369	-0.012115	
14955	    0	24.016654	0.599222	1.338432	-2.637325	0.274677	-1.426602	0.320312	0.005249	0.017151	0.999798	-0.017581	0.001831	-0.009510	
14956	    0	21.700020	-5.966644	0.886771	-3.578935	0.261095	-0.999744	0.288818	-0.081177	0.013245	0.999691	-0.023857	0.001740	-0.006664	
14957	    0	21.496559	-8.482200	-0.776647	-3.540009	0.401298	-0.848664	0.285950	-0.114929	-0.008423	0.999701	-0.023598	0.002675	-0.005657	
14958	    0	19.552049	-13.894286	-3.393490	-2.969090	0.493847	-0.557509	0.259858	-0.187082	-0.042412	0.999791	-0.019793	0.003292	-0.003716	
14959	    0	14.138948	-14.701911	-6.103650	-1.367591	0.342899	-0.403983	0.187805	-0.197266	-0.080017	0.999951	-0.009117	0.002286	-0.002693	
14960	    0	13.219889	-1.680955	-3.172041	-0.213436	0.152638	-1.485325	0.175988	-0.024217	-0.042439	0.999949	-0.001423	0.001018	-0.009902	
14961	    0	6.963201	12.751419	-10.419807	-0.912015	0.580256	-2.869234	0.095520	0.167358	-0.140320	0.999790	-0.006080	0.003868	-0.019127	
14962	    0	12.586264	2.287028	-15.475751	-0.909872	0.849787	-2.900147	0.167175	0.026001	-0.207458	0.999778	-0.006065	0.005665	-0.019333	
14963	    0	9.867787	-9.043943	-5.608798	-1.247940	0.951084	-2.976286	0.128662	-0.123779	-0.074585	0.999748	-0.008319	0.006340	-0.019840	
14964	    0	13.183777	-10.786579	-4.612899	-1.261728	0.718208	-3.872027	0.171692	-0.148804	-0.061096	0.999619	-0.008410	0.004787	-0.025810	
14965	    0	16.932683	-11.815822	-6.061739	-1.941117	0.587758	-4.439374	0.220642	-0.165161	-0.079590	0.999470	-0.012938	0.003918	-0.029591	
14966	    0	19.129724	-14.067394	-5.240461	-2.455004	0.433539	-4.804987	0.248661	-0.196717	-0.067428	0.999349	-0.016363	0.002890	-0.032026	
14967	    0	19.152611	-15.373683	-3.463789	-2.375773	0.551877	-5.042294	0.248108	-0.214111	-0.043762	0.999303	-0.015835	0.003678	-0.033607	
14968	    0	19.735135	-15.673998	-2.559284	-1.724577	0.725144	-5.137389	0.255605	-0.218211	-0.032898	0.999335	-0.011495	0.004833	-0.034242	
14969	    0	19.546851	-15.575771	-2.584191	-0.830289	0.781785	-5.021509	0.253296	-0.216431	-0.034607	0.999411	-0.005534	0.005211	-0.033470	
14970	    0	20.104795	-13.766051	-2.806848	-0.090996	0.891643	-4.659667	0.261963	-0.191772	-0.038879	0.999499	-0.000607	0.005943	-0.031059	
14971	    0	21.785316	-12.721925	-3.346703	0.617062	1.024383	-4.080938	0.285400	-0.177246	-0.047302	0.999598	0.004113	0.006828	-0.027203	
14972	    0	21.931143	-10.834114	-3.672635	1.181149	1.027354	-3.341440	0.288757	-0.150513	-0.052124	0.999697	0.007874	0.006848	-0.022274	
14973	    0	19.311427	-7.477443	-3.343607	1.347627	0.948346	-2.406272	0.255554	-0.103394	-0.047119	0.999810	0.008984	0.006322	-0.016041	
14974	    0	14.423547	-4.245787	-3.431964	1.483775	0.850038	-1.218263	0.191583	-0.057705	-0.047414	0.999902	0.009892	0.005667	-0.008121	
14975	    0	9.144593	-1.039926	-4.514382	1.415807	0.883502	0.133899	0.121582	-0.013184	-0.061035	0.999937	0.009439	0.005890	0.000893	
14976	    0	4.605675	0.035843	-5.264560	1.309682	0.929581	1.556597	0.060959	0.001727	-0.070561	0.999888	0.008731	0.006197	0.010377	
14977	    0	2.268735	1.136961	-6.227937	1.382573	0.898587	3.108500	0.029419	0.016541	-0.083069	0.999724	0.009216	0.005990	0.020721	
14978	    0	1.422222	1.968323	-6.946666	1.379827	0.797220	4.591028	0.017639	0.027649	-0.092468	0.999475	0.009197	0.005314	0.030602	
14979	    0	1.551370	1.199345	-7.281412	1.527633	0.557051	5.862699	0.019653	0.017761	-0.096985	0.999177	0.010181	0.003713	0.039074	
14980	    0	3.104153	1.677893	-7.289146	1.657307	0.241562	6.974971	0.040100	0.025330	-0.096985	0.998857	0.011045	0.001610	0.046482	
14981	    0	5.182645	2.365819	-6.504245	1.448939	-0.055960	7.881862	0.067322	0.035950	-0.086365	0.998572	0.009655	-0.000373	0.052521	
14982	    0	7.834789	1.271369	-5.126387	1.204146	-0.398615	8.486130	0.103443	0.023372	-0.067905	0.998363	0.008023	-0.002656	0.056543	
14983	    0	9.998372	-0.038060	-4.130625	1.366101	-0.795699	8.867633	0.133301	0.007874	-0.054321	0.998197	0.009102	-0.005301	0.059082	
14984	    0	12.787915	0.268026	-3.260702	1.492276	-1.114519	9.171379	0.170161	0.014413	-0.042103	0.998054	0.009942	-0.007425	0.061103	
14985	    0	15.007409	1.642932	-3.179603	1.339437	-1.293487	9.381929	0.198547	0.034729	-0.040405	0.997967	0.008924	-0.008617	0.062504	
14986	    0	17.088235	3.192284	-3.324595	1.148071	-1.405742	9.531563	0.224915	0.057251	-0.041809	0.997909	0.007648	-0.009365	0.063499	
14987	    0	19.188595	5.956001	-3.386590	1.092522	-1.451972	9.493148	0.250549	0.095703	-0.042053	0.997924	0.007278	-0.009673	0.063244	
14988	    0	22.895303	12.041941	-2.340976	0.596052	-1.323081	9.248824	0.294861	0.179077	-0.027893	0.998053	0.003971	-0.008815	0.061619	
14989	    0	26.685264	17.393504	-1.178775	-0.153300	-1.206364	8.952403	0.341248	0.252563	-0.013184	0.998186	-0.001021	-0.008038	0.059647	
14990	    0	30.756061	21.187678	0.432271	-0.573509	-0.998882	8.366904	0.393443	0.304791	0.007284	0.998415	-0.003821	-0.006656	0.055750	
14991	    0	30.460487	24.456372	-0.109517	0.103609	-0.951227	7.139852	0.390015	0.344910	0.001282	0.998847	0.000690	-0.006339	0.047581	
14992	    0	23.918776	32.358779	-2.035029	1.351404	-1.056800	5.064082	0.304272	0.442097	-0.021004	0.999364	0.009007	-0.007044	0.033753	
14993	    0	16.418555	41.651543	1.991311	1.414026	-0.986413	2.714174	0.208618	0.558899	0.033203	0.999770	0.009426	-0.006576	0.018093	
14994	    0	10.577804	42.809606	6.024243	1.482614	-0.629439	0.576795	0.138489	0.570496	0.086548	0.999934	0.009884	-0.004196	0.003845	
14995	    0	10.178083	38.353836	4.039868	1.546146	-0.153213	-1.373335	0.140320	0.509521	0.059265	0.999904	0.010307	-0.001021	-0.009155	
14996	    0	12.697255	29.039537	-5.768646	1.781594	-0.324472	-3.198944	0.177673	0.384338	-0.071960	0.999700	0.011876	-0.002163	-0.021324	
14997	    0	16.705791	49.122269	-18.751008	1.501269	-0.973421	-5.536323	0.248352	0.648560	-0.241943	0.999248	0.010006	-0.006488	-0.036900	
14998	    0	33.255388	23.210918	-13.845920	-3.927635	0.149984	-6.658689	0.456216	0.284433	-0.192733	0.998672	-0.026173	0.000999	-0.044372	
14999	    0	42.162158	-9.021664	-17.161759	0.108197	-0.683959	-7.888070	0.555847	-0.149475	-0.226379	0.998607	0.000721	-0.004558	-0.052563	
15000	    0	23.830739	29.304678	7.227140	-0.810085	-0.359100	-8.275749	0.338425	0.372948	0.095109	0.998461	-0.005398	-0.002393	-0.055143	
15001	    0	7.864586	9.411475	15.872733	-0.774298	-0.505419	-6.516640	0.109497	0.121887	0.211365	0.999037	-0.005160	-0.003368	-0.043430	
15002	    0	4.012035	14.410033	1.261912	-0.053655	-0.703813	-5.223014	0.060059	0.190125	0.017029	0.999382	-0.000358	-0.004691	-0.034813	
15003	    0	14.951407	8.454736	-0.817312	-0.223620	-0.554544	-4.303580	0.202515	0.106934	-0.010315	0.999580	-0.001491	-0.003696	-0.028687	
15004	    0	15.250958	8.855277	-5.393799	-0.211165	-0.532062	-3.691101	0.206421	0.112915	-0.071350	0.999689	-0.001408	-0.003547	-0.024605	
15005	    0	13.690833	10.914676	-4.333027	-1.160376	-0.280974	-2.975118	0.185486	0.141418	-0.058533	0.999771	-0.007735	-0.001873	-0.019833	
15006	    0	18.530253	8.304631	-1.887184	-0.903701	-0.154646	-2.470907	0.248874	0.106485	-0.025557	0.999846	-0.006024	-0.001031	-0.016472	
15007	    0	25.363153	4.420696	-2.757312	-1.084803	0.164230	-2.143570	0.338928	0.053833	-0.037537	0.999870	-0.007232	0.001095	-0.014290	
15008	    0	29.654480	3.571162	-0.214465	-1.190954	0.315299	-2.124404	0.396007	0.041981	-0.004040	0.999866	-0.007939	0.002102	-0.014162	
15009	    0	28.927338	0.321854	0.877668	-2.170932	0.389695	-1.801981	0.385742	-0.000183	0.010681	0.999819	-0.014472	0.002598	-0.012012	
15010	    0	26.351706	-1.908940	1.397282	-3.137671	0.224324	-1.365399	0.351135	-0.028259	0.018677	0.999738	-0.020916	0.001495	-0.009102	
15011	    0	24.090101	-7.594585	0.926729	-4.072773	0.201443	-1.059862	0.320496	-0.103149	0.014709	0.999605	-0.027148	0.001343	-0.007065	
15012	    0	21.920371	-13.187439	-1.254996	-3.995488	0.351378	-0.880161	0.291199	-0.177917	-0.012695	0.999625	-0.026633	0.002342	-0.005867	
15013	    0	18.995819	-15.792421	-5.247494	-3.240093	0.501436	-0.733055	0.252014	-0.213257	-0.066223	0.999749	-0.021599	0.003343	-0.004887	
15014	    0	11.906639	-13.913721	-6.130524	-1.607511	0.457061	-0.990943	0.157275	-0.187424	-0.080219	0.999916	-0.010716	0.003047	-0.006606	
15015	    0	12.042705	0.799925	-2.580364	-0.862350	0.254785	-2.250579	0.160645	0.008057	-0.034729	0.999869	-0.005749	0.001698	-0.015003	
15016	    0	3.979683	10.997054	-8.929502	-1.901370	0.877434	-3.350073	0.055592	0.143877	-0.121216	0.999653	-0.012674	0.005849	-0.022331	
15017	    0	15.166162	-0.485721	-13.887998	-1.514663	1.225809	-3.510322	0.200439	-0.013062	-0.186707	0.999641	-0.010097	0.008171	-0.023399	
15018	    0	11.892088	-13.029405	-6.736140	-0.800031	1.408925	-3.526890	0.153564	-0.177856	-0.090332	0.999665	-0.005333	0.009392	-0.023510	
15019	    0	14.503526	-13.162168	-3.532508	0.039488	1.233442	-4.486231	0.187622	-0.181152	-0.048706	0.999518	0.000263	0.008222	-0.029903	
15020	    0	19.116866	-11.736226	-4.876828	-0.426805	0.955769	-5.037533	0.249023	-0.165100	-0.066162	0.999412	-0.002845	0.006371	-0.033577	
15021	    0	21.475068	-12.889251	-5.132272	-1.349978	0.720561	-5.168692	0.279846	-0.182190	-0.068176	0.999353	-0.008998	0.004803	-0.034451	
15022	    0	20.667611	-14.695121	-4.547920	-1.758782	0.642159	-5.194931	0.268292	-0.206014	-0.059422	0.999322	-0.011723	0.004280	-0.034625	
15023	    0	20.860025	-14.417185	-3.990160	-1.522252	0.716556	-5.147526	0.271057	-0.202148	-0.052490	0.999348	-0.010146	0.004776	-0.034309	
15024	    0	21.308426	-14.373379	-3.272057	-0.954479	0.745155	-4.964692	0.277341	-0.201179	-0.043756	0.999419	-0.006362	0.004967	-0.033092	
15025	    0	22.516101	-13.087993	-2.680037	-0.511060	0.821960	-4.534871	0.294556	-0.183594	-0.036743	0.999522	-0.003407	0.005479	-0.030228	
15026	    0	23.332646	-11.343809	-2.931555	-0.033049	0.836232	-3.883434	0.306824	-0.159241	-0.040771	0.999649	-0.000220	0.005574	-0.025887	
15027	    0	21.450393	-9.073749	-3.800795	0.365666	0.828757	-3.024897	0.283203	-0.126587	-0.052551	0.999778	0.002438	0.005525	-0.020164	
15028	    0	16.467178	-5.918610	-3.156118	0.600978	0.721574	-1.920384	0.218323	-0.081543	-0.043457	0.999898	0.004006	0.004810	-0.012802	
15029	    0	10.536218	-1.887017	-3.165389	0.698096	0.690228	-0.524144	0.140198	-0.025452	-0.042969	0.999972	0.004654	0.004601	-0.003494	
15030	    0	4.151659	-0.110453	-3.817584	0.795950	0.758184	1.013391	0.055104	-0.000829	-0.051186	0.999949	0.005306	0.005054	0.006756	
15031	    0	1.554377	0.516704	-4.857430	1.043336	0.773096	2.573362	0.020264	0.007690	-0.064819	0.999815	0.006955	0.005154	0.017155	
15032	    0	0.833795	1.256857	-5.815588	1.382213	0.698761	4.094705	0.010281	0.017760	-0.077430	0.999574	0.009213	0.004658	0.027294	
15033	    0	0.366643	0.969848	-6.492800	1.752658	0.527700	5.414365	0.004089	0.014099	-0.086426	0.999273	0.011682	0.003517	0.036087	
15034	    0	0.960483	1.458370	-7.151857	2.087571	0.280480	6.595856	0.011719	0.021301	-0.095093	0.998935	0.013912	0.001869	0.043957	
15035	    0	2.549994	2.363672	-7.335795	1.811993	0.024044	7.614348	0.032288	0.034363	-0.097412	0.998638	0.012074	0.000160	0.050739	
15036	    0	5.079634	1.989405	-6.605209	1.299164	-0.238736	8.358620	0.066223	0.031006	-0.087708	0.998408	0.008657	-0.001591	0.055695	
15037	    0	7.311592	1.099519	-5.583893	1.155962	-0.607896	8.821151	0.096680	0.020935	-0.073914	0.998233	0.007702	-0.004050	0.058773	
15038	    0	10.708708	1.417934	-4.314368	1.069129	-0.949176	9.154084	0.141619	0.027981	-0.056448	0.998093	0.007123	-0.006324	0.060988	
15039	    0	13.699139	2.001639	-3.675679	0.818790	-1.204566	9.300423	0.180908	0.038208	-0.047363	0.998031	0.005455	-0.008025	0.061962	
15040	    0	15.628246	2.317849	-3.272172	0.697265	-1.418865	9.335995	0.206308	0.043990	-0.041486	0.998008	0.004645	-0.009453	0.062199	
15041	    0	17.672265	4.300179	-2.761030	0.832532	-1.611672	9.242026	0.231873	0.071899	-0.033936	0.998029	0.005547	-0.010737	0.061573	
15042	    0	20.383370	7.334154	-3.135475	1.233882	-1.685065	9.008773	0.265686	0.114197	-0.037903	0.998099	0.008221	-0.011227	0.060020	
15043	    0	23.683878	16.042951	-2.300947	0.773072	-1.536125	8.728948	0.302917	0.231934	-0.026367	0.998241	0.005151	-0.010235	0.058159	
15044	    0	25.335351	20.074760	-0.890588	-0.215123	-1.289878	8.467509	0.322083	0.286133	-0.009460	0.998368	-0.001433	-0.008595	0.056419	
15045	    0	27.880858	21.523869	1.297257	-0.389278	-1.022285	7.809612	0.356018	0.305847	0.018982	0.998618	-0.002594	-0.006812	0.052040	
15046	    0	26.729081	22.812288	1.798219	0.872034	-0.874896	6.476723	0.342669	0.319006	0.027828	0.999034	0.005812	-0.005831	0.043164	
15047	    0	21.037202	30.923768	-1.997369	2.032273	-0.892660	4.463445	0.268188	0.420715	-0.019348	0.999448	0.013546	-0.005950	0.029751	
15048	    0	13.786240	40.165691	0.038602	1.751782	-0.853788	2.343768	0.175389	0.538264	0.007805	0.999793	0.011678	-0.005692	0.015624	
15049	    0	10.154561	40.893929	5.384555	1.106229	-0.536163	0.452047	0.133484	0.545105	0.076294	0.999962	0.007375	-0.003574	0.003014	
15050	    0	10.539119	34.610115	4.844866	1.191503	-0.110295	-1.402509	0.144775	0.459595	0.068359	0.999924	0.007943	-0.000735	-0.009350	
15051	    0	12.597961	27.068616	-2.810782	1.493018	-0.186413	-3.170303	0.175598	0.357605	-0.033691	0.999726	0.009953	-0.001243	-0.021133	
15052	    0	13.776324	41.284267	-19.707253	1.738744	-1.068401	-5.085741	0.204102	0.546753	-0.255005	0.999332	0.011589	-0.007121	-0.033897	
15053	    0	31.386837	26.311640	-21.688997	-3.183056	-0.116200	-6.281681	0.432739	0.326660	-0.295959	0.998898	-0.021213	-0.000774	-0.041862	
15054	    0	53.846873	-5.894427	-12.712113	-0.143694	-0.417343	-8.140900	0.712749	-0.117543	-0.167406	0.998523	-0.000957	-0.002781	-0.054246	
15055	    0	25.345305	22.374844	7.335659	-0.910861	-0.234585	-8.416450	0.353821	0.279358	0.096619	0.998406	-0.006069	-0.001563	-0.056080	
15056	    0	10.290226	6.949119	16.748237	-0.736829	-0.266169	-6.845688	0.140876	0.087377	0.223120	0.998944	-0.004910	-0.001774	-0.045622	
15057	    0	0.475280	17.279370	3.031495	-0.074832	-0.495640	-5.464056	0.014587	0.229980	0.040344	0.999331	-0.000499	-0.003304	-0.036419	
15058	    0	14.067830	5.868253	1.099903	-0.181989	-0.542533	-4.515387	0.189758	0.072571	0.015259	0.999539	-0.001213	-0.003616	-0.030098	
15059	    0	15.644925	11.619064	-7.326892	-0.544229	-0.414181	-3.872552	0.212769	0.149109	-0.097656	0.999656	-0.003628	-0.002761	-0.025814	
15060	    0	14.802856	9.289561	-3.099887	-0.963678	-0.362667	-3.307064	0.200134	0.119202	-0.041626	0.999733	-0.006424	-0.002418	-0.022045	
15061	    0	18.216211	8.865732	-2.484578	-1.261661	-0.097282	-2.888702	0.245117	0.113220	-0.033936	0.999779	-0.008410	-0.000648	-0.019257	
15062	    0	23.792404	5.238308	-1.441435	-0.924736	0.181399	-2.622708	0.318363	0.064162	-0.020011	0.999827	-0.006165	0.001209	-0.017484	
15063	    0	26.067404	3.490895	-0.075315	-1.111284	0.430465	-2.482363	0.348267	0.040771	-0.002319	0.999831	-0.007408	0.002870	-0.016548	
15064	    0	24.528603	0.523065	0.749697	-1.696971	0.588117	-2.139310	0.327140	0.002412	0.008669	0.999826	-0.011312	0.003921	-0.014261	
15065	    0	22.845702	0.840010	0.945162	-2.418296	0.483115	-1.671519	0.304749	0.007996	0.011475	0.999803	-0.016121	0.003221	-0.011143	
15066	    0	21.671923	-3.727280	1.199861	-3.297780	0.396718	-1.256106	0.288574	-0.051758	0.016357	0.999720	-0.021983	0.002645	-0.008373	
15067	    0	20.818052	-8.291935	0.089114	-3.435130	0.442357	-0.973986	0.276855	-0.112305	0.002930	0.999712	-0.022899	0.002949	-0.006493	
15068	    0	21.021394	-11.089782	-3.290284	-2.835462	0.605004	-0.758222	0.279358	-0.150085	-0.042175	0.999800	-0.018902	0.004033	-0.005054	
15069	    0	16.467382	-15.662590	-6.269713	-1.408795	0.571214	-0.531588	0.218506	-0.210388	-0.082458	0.999942	-0.009392	0.003808	-0.003544	
15070	    0	12.129217	-9.240879	-3.048383	0.266365	0.347046	-1.216951	0.160622	-0.124445	-0.041238	0.999963	0.001776	0.002314	-0.008113	
15071	    0	7.145116	4.475575	-4.428740	0.072674	0.476816	-2.691227	0.096130	0.057983	-0.059326	0.999833	0.000484	0.003179	-0.017941	
15072	    0	10.055553	4.176351	-14.825232	0.190129	0.702434	-3.103728	0.134264	0.053159	-0.198230	0.999774	0.001267	0.004683	-0.020690	
15073	    0	11.334002	-7.000351	-9.323096	0.128184	0.858516	-3.095864	0.148438	-0.096313	-0.125244	0.999770	0.000854	0.005723	-0.020638	
15074	    0	13.141190	-9.241860	-4.630527	-0.273970	0.593578	-3.609826	0.171936	-0.127502	-0.062195	0.999701	-0.001826	0.003957	-0.024063	
15075	    0	18.682699	-11.596512	-5.791631	-1.593133	0.470428	-4.370634	0.244202	-0.162598	-0.076294	0.999514	-0.010619	0.003136	-0.029133	
15076	    0	21.581293	-14.434256	-5.280296	-2.749918	0.399489	-4.754944	0.281250	-0.202698	-0.067505	0.999326	-0.018329	0.002663	-0.031693	
15077	    0	21.707159	-15.235630	-4.123609	-2.980065	0.468752	-4.936488	0.282349	-0.213562	-0.051697	0.999256	-0.019862	0.003124	-0.032902	
15078	    0	21.684888	-15.696280	-2.634285	-2.515587	0.677510	-5.065371	0.281683	-0.219444	-0.032784	0.999279	-0.016767	0.004516	-0.033761	
15079	    0	21.080682	-16.006100	-1.211951	-1.616105	0.863068	-5.027884	0.273621	-0.222839	-0.015381	0.999363	-0.010772	0.005753	-0.033512	
15080	    0	21.647381	-13.934468	-0.570523	-0.700356	1.063911	-4.646385	0.282634	-0.194650	-0.008731	0.999484	-0.004668	0.007092	-0.030971	
15081	    0	21.795504	-11.975906	-1.439067	0.220327	1.103494	-3.989346	0.286072	-0.167297	-0.021545	0.999618	0.001469	0.007356	-0.026592	
15082	    0	20.939072	-9.675468	-2.793751	0.951085	1.054091	-3.085591	0.276184	-0.134460	-0.040039	0.999743	0.006340	0.007027	-0.020569	
15083	    0	17.684302	-6.767735	-3.344915	1.163347	0.919719	-2.044011	0.234253	-0.093079	-0.046753	0.999858	0.007755	0.006131	-0.013626	
15084	    0	11.385272	-2.669414	-3.838218	1.228118	0.769058	-0.714125	0.151367	-0.035889	-0.052246	0.999942	0.008187	0.005127	-0.004761	
15085	    0	5.029076	0.262069	-4.655186	1.258448	0.770204	0.848025	0.066711	0.004395	-0.062378	0.999935	0.008389	0.005135	0.005653	
15086	    0	1.440184	1.037870	-5.881141	1.326023	0.778390	2.452049	0.018559	0.014838	-0.078384	0.999813	0.008840	0.005189	0.016346	
15087	    0	1.850663	1.398824	-6.259365	1.437568	0.645675	3.922982	0.023804	0.020081	-0.083374	0.999602	0.009583	0.004304	0.026150	
15088	    0	1.707540	1.224721	-6.151118	1.471025	0.469309	5.163541	0.021913	0.017898	-0.081914	0.999354	0.009805	0.003128	0.034416	
15089	    0	2.098485	1.572029	-6.450803	1.590077	0.227951	6.265293	0.026917	0.023010	-0.085815	0.999070	0.010597	0.001519	0.041756	
15090	    0	3.401799	2.573104	-6.603746	1.352089	-0.052664	7.229841	0.043640	0.037231	-0.087708	0.998797	0.009010	-0.000351	0.048180	
15091	    0	5.550718	2.245613	-5.755389	0.934429	-0.367531	7.980929	0.072449	0.034302	-0.076355	0.998562	0.006227	-0.002449	0.053181	
15092	    0	8.017388	1.097560	-4.583386	0.776898	-0.744694	8.437100	0.106140	0.020935	-0.060486	0.998392	0.005177	-0.004962	0.056217	
15093	    0	10.302313	-0.308054	-3.674277	0.924791	-1.098700	8.743793	0.137634	0.004211	-0.047974	0.998255	0.006162	-0.007320	0.058258	
15094	    0	13.149211	-0.222050	-3.204827	1.167593	-1.349954	8.980748	0.175443	0.007870	-0.041119	0.998137	0.007779	-0.008994	0.059834	
15095	    0	15.452379	1.305497	-3.096502	1.248788	-1.466796	9.157780	0.204834	0.030273	-0.039062	0.998054	0.008320	-0.009772	0.061012	
15096	    0	17.760551	3.925415	-3.475190	1.363329	-1.567313	9.263882	0.233423	0.067234	-0.043318	0.997997	0.009083	-0.010442	0.061718	
15097	    0	19.742145	8.137375	-3.680324	1.232901	-1.517902	9.165240	0.256409	0.124695	-0.045471	0.998049	0.008214	-0.010113	0.061062	
15098	    0	22.716372	14.170378	-1.424712	0.271961	-1.280222	8.931782	0.291077	0.206543	-0.016113	0.998189	0.001812	-0.008530	0.059509	
15099	    0	25.361416	18.649370	0.438824	-0.610314	-1.075635	8.634283	0.323059	0.267578	0.007141	0.998309	-0.004066	-0.007167	0.057529	
15100	    0	28.651458	21.519996	2.054480	-0.840255	-0.807194	7.945422	0.365967	0.306763	0.027710	0.998567	-0.005599	-0.005379	0.052944	
15101	    0	26.908532	23.936757	-0.418626	0.285768	-0.764718	6.628892	0.344238	0.334595	-0.003174	0.999008	0.001904	-0.005096	0.044178	
15102	    0	21.115690	32.061137	-2.839875	1.447074	-0.917406	4.568142	0.268555	0.436121	-0.032016	0.999471	0.009645	-0.006115	0.030449	
15103	    0	14.132502	40.855998	2.666654	1.586399	-0.941911	2.348483	0.179626	0.547180	0.042480	0.999802	0.010575	-0.006279	0.015656	
15104	    0	9.624281	40.480411	7.250529	1.629962	-0.565780	0.319727	0.126794	0.538914	0.103013	0.999931	0.010866	-0.003772	0.002131	
15105	    0	10.238396	34.442307	5.194827	2.122989	-0.135476	-1.570211	0.141235	0.456726	0.075867	0.999845	0.014153	-0.000903	-0.010468	
15106	    0	12.261263	27.153712	-6.426763	2.472960	-0.410753	-3.348403	0.171753	0.359619	-0.079285	0.999611	0.016484	-0.002738	-0.022320	
15107	    0	18.075137	48.611135	-24.717139	1.934161	-1.320444	-5.666403	0.268188	0.642517	-0.318970	0.999165	0.012891	-0.008801	-0.037766	
15108	    0	37.253319	13.762940	-16.418799	-3.434444	-0.126507	-6.451872	0.504028	0.156860	-0.222290	0.998813	-0.022887	-0.000843	-0.042995	
15109	    0	45.324378	-8.840395	-9.759104	0.146128	-0.871903	-8.161422	0.597473	-0.150391	-0.126770	0.998503	0.000974	-0.005810	-0.054382	
15110	    0	19.196596	28.406957	-2.590249	-0.229717	-0.766727	-8.372163	0.276713	0.363644	-0.033722	0.998428	-0.001531	-0.005109	-0.055785	
15111	    0	6.192724	12.563385	17.786478	-1.315365	-0.356459	-6.568810	0.089294	0.165771	0.235901	0.999000	-0.008766	-0.002376	-0.043777	
15112	    0	5.879051	16.518003	1.215898	-0.157391	-0.545003	-5.441155	0.086246	0.217223	0.016287	0.999334	-0.001049	-0.003633	-0.036266	
15113	    0	13.678117	8.406017	-2.183000	-0.486303	-0.577440	-4.403765	0.185669	0.106567	-0.028748	0.999556	-0.003242	-0.003849	-0.029354	
