// Start Time: Unknown
// Update Rate: 100.0Hz
// Filter Profile: human (34.3)
// Firmware Version: 2.1.4
PacketCounter	SampleTimeFine	Acc_X	Acc_Y	Acc_Z	Gyr_X	Gyr_Y	Gyr_Z	VelInc_X	VelInc_Y	VelInc_Z	OriInc_q0	OriInc_q1	OriInc_q2	OriInc_q3	
12428	    0	10.392764	12.926492	-1.422671	1.615588	-0.878750	2.461339	0.102384	0.130638	-0.012723	0.999882	0.008078	-0.004394	0.012306	
12429	    0	7.226572	13.807196	-0.405131	1.468897	-0.633261	2.304153	0.070679	0.138916	-0.002808	0.999901	0.007344	-0.003166	0.011520	
12430	    0	4.362430	14.364867	-0.776910	1.129368	-0.559057	2.039386	0.042176	0.144124	-0.006837	0.999928	0.005647	-0.002795	0.010197	
12431	    0	2.973411	14.775415	0.594877	0.878352	-0.378426	1.977579	0.028259	0.148010	0.006653	0.999939	0.004392	-0.001892	0.009888	
12432	    0	3.042498	14.507283	1.982719	0.926227	-0.204281	1.992838	0.028957	0.145272	0.020530	0.999939	0.004631	-0.001021	0.009964	
12433	    0	2.949242	15.557673	1.430443	1.142907	-0.024987	1.895180	0.028015	0.155762	0.015198	0.999938	0.005714	-0.000125	0.009476	
12434	    0	1.528373	17.340091	2.735073	1.437982	0.030328	1.799623	0.013728	0.173326	0.028595	0.999933	0.007190	0.000152	0.008998	
12435	    0	-0.245161	18.515353	0.231624	0.532538	-0.092126	1.570147	-0.003906	0.185120	0.002808	0.999965	0.002663	-0.000461	0.007851	
12436	    0	-1.456680	20.471282	-0.508320	-0.732810	-0.008202	1.301968	-0.015899	0.204592	-0.005834	0.999971	-0.003664	-0.000041	0.006510	
12437	    0	-1.871661	19.429941	1.535792	-1.766044	0.309759	0.923935	-0.019592	0.194336	0.013672	0.999949	-0.008830	0.001549	0.004620	
12438	    0	-0.543552	14.692333	3.509215	-2.386725	0.446522	0.371752	-0.005633	0.147318	0.033348	0.999924	-0.011933	0.002233	0.001859	
12439	    0	-0.187306	13.352620	3.413376	-2.311763	0.643364	-0.268561	-0.001587	0.133911	0.032593	0.999927	-0.011559	0.003217	-0.001343	
12440	    0	-0.016905	12.537044	4.657982	-1.675252	0.681316	-0.875106	0.000537	0.125753	0.045527	0.999949	-0.008376	0.003407	-0.004375	
12441	    0	0.724393	10.973426	4.005479	-1.235980	0.210002	-1.403829	0.008057	0.109924	0.039368	0.999955	-0.006180	0.001050	-0.007019	
12442	    0	0.877745	7.748482	-1.090122	-1.581424	-0.788328	-1.754043	0.009501	0.077314	-0.011477	0.999922	-0.007907	-0.003942	-0.008770	
12443	    0	1.773405	0.353316	-10.030780	-2.339103	-1.956278	-1.780793	0.018738	0.002197	-0.100159	0.999844	-0.011695	-0.009781	-0.008904	
12444	    0	5.533744	-8.835587	-12.596244	-1.912388	-1.452888	-2.063456	0.055323	-0.090123	-0.124704	0.999874	-0.009562	-0.007264	-0.010317	
12445	    0	12.501955	-21.752979	-1.584619	-1.102479	-0.483527	-2.340766	0.122498	-0.219055	-0.014343	0.999913	-0.005512	-0.002418	-0.011703	
12446	    0	17.893284	-32.720921	8.992141	0.913636	0.280767	-1.845012	0.176026	-0.329247	0.088172	0.999946	0.004568	0.001404	-0.009225	
12447	    0	18.475036	-38.123609	-5.777700	3.054374	-0.991866	-0.669891	0.183777	-0.380920	-0.062683	0.999865	0.015271	-0.004959	-0.003349	
12448	    0	19.644673	-39.883833	-32.380610	2.454253	0.675601	0.308617	0.195951	-0.394517	-0.329328	0.999917	0.012271	0.003378	0.001543	
12449	    0	13.404141	-22.970566	-15.612863	2.071711	3.328929	0.870572	0.132385	-0.227478	-0.160706	0.999798	0.010358	0.016644	0.004353	
12450	    0	4.569808	-8.574376	2.081290	1.935491	2.812155	1.118911	0.046456	-0.085677	0.019334	0.999838	0.009677	0.014060	0.005594	
12451	    0	-0.172539	-0.313034	2.699332	1.612129	1.339944	1.141385	-0.001526	-0.003357	0.026978	0.999928	0.008060	0.006700	0.005707	
12452	    0	-2.689476	8.404220	2.987765	2.001998	0.323303	1.101137	-0.027307	0.083588	0.030760	0.999933	0.010010	0.001616	0.005506	
12453	    0	-1.456556	10.353242	6.726491	2.244047	-0.001526	0.634017	-0.014893	0.102722	0.068420	0.999931	0.011220	-0.000008	0.003170	
12454	    0	5.070688	11.966145	5.296293	1.837757	0.082208	-0.325971	0.050923	0.119085	0.054038	0.999956	0.009189	0.000411	-0.001630	
12455	    0	13.568259	14.669328	-9.017163	-0.070763	-0.736240	-0.797276	0.136597	0.146118	-0.089722	0.999985	-0.000354	-0.003681	-0.003986	
12456	    0	22.862572	-4.214631	-15.316498	-1.630233	-0.772868	0.032235	0.229221	-0.043351	-0.151930	0.999959	-0.008151	-0.003864	0.000161	
12457	    0	26.507503	9.528910	-3.171207	-0.180627	-0.733954	-1.184092	0.265747	0.093689	-0.030823	0.999975	-0.000903	-0.003670	-0.005920	
12458	    0	12.350519	34.885622	-9.711474	1.609649	-0.673500	-1.592864	0.126602	0.348620	-0.093885	0.999929	0.008048	-0.003367	-0.007964	
12459	    0	10.633957	25.872695	-1.154241	-0.938252	-0.667591	-2.370521	0.109436	0.257385	-0.012390	0.999912	-0.004691	-0.003338	-0.011852	
12460	    0	12.906957	29.828434	-2.235671	-2.260551	-0.219741	-3.323207	0.134026	0.295808	-0.025564	0.999797	-0.011302	-0.001099	-0.016615	
12461	    0	17.779801	29.607049	-2.314221	-3.139882	0.163480	-4.427119	0.184265	0.291626	-0.027893	0.999631	-0.015697	0.000817	-0.022133	
12462	    0	23.148305	26.695104	-3.182064	-2.281468	0.565026	-4.883792	0.237805	0.260804	-0.035485	0.999633	-0.011406	0.002825	-0.024416	
12463	    0	26.863691	3.874098	-0.263637	-1.908084	0.377687	-4.092757	0.269348	0.033203	-0.003479	0.999743	-0.009540	0.001888	-0.020462	
12464	    0	34.064344	-0.445186	-0.770282	-0.383405	-0.004769	-4.165762	0.340452	-0.011559	-0.007677	0.999781	-0.001917	-0.000024	-0.020827	
12465	    0	28.184627	4.748790	-0.418273	0.389892	0.080306	-4.285762	0.282776	0.041443	-0.004211	0.999768	0.001949	0.000401	-0.021427	
12466	    0	25.051806	3.097767	-3.045588	-1.831972	0.189988	-4.102099	0.251050	0.025550	-0.030945	0.999747	-0.009159	0.000950	-0.020509	
12467	    0	25.588238	0.117252	-1.606248	-3.344149	0.452474	-3.946366	0.255798	-0.004150	-0.016602	0.999662	-0.016719	0.002262	-0.019730	
12468	    0	23.277405	-2.818680	-1.730550	-3.619054	0.703323	-3.880010	0.232103	-0.033010	-0.017554	0.999641	-0.018093	0.003516	-0.019398	
12469	    0	19.002672	-6.927046	-2.121733	-3.649356	0.699694	-3.605292	0.188660	-0.073059	-0.020569	0.999664	-0.018245	0.003498	-0.018024	
12470	    0	15.693257	-10.106377	-3.590366	-3.703492	0.768930	-3.153929	0.155171	-0.104169	-0.034593	0.999697	-0.018516	0.003844	-0.015768	
12471	    0	12.957209	-15.282894	-3.146566	-3.005437	0.996662	-2.723892	0.127319	-0.155029	-0.029785	0.999782	-0.015026	0.004983	-0.013618	
12472	    0	9.682413	-19.999889	-2.120423	-1.994794	0.947804	-2.399360	0.094318	-0.201342	-0.019651	0.999866	-0.009974	0.004739	-0.011996	
12473	    0	8.049431	-18.458024	-3.693834	-1.229129	0.534263	-2.188933	0.078369	-0.185669	-0.036011	0.999917	-0.006145	0.002671	-0.010944	
12474	    0	6.745838	-14.632993	-6.367196	-0.849740	0.237469	-1.939810	0.065958	-0.147243	-0.063127	0.999943	-0.004249	0.001187	-0.009699	
12475	    0	5.124144	-12.158233	-6.889588	-0.488859	0.263980	-1.506822	0.050232	-0.122131	-0.068665	0.999968	-0.002444	0.001320	-0.007534	
12476	    0	5.195706	-11.967181	-5.340775	-0.100518	0.341036	-0.992017	0.051271	-0.119954	-0.053435	0.999986	-0.000503	0.001705	-0.004960	
12477	    0	5.668436	-8.432874	-4.316059	0.194741	0.326539	-0.659181	0.056335	-0.084473	-0.043335	0.999992	0.000974	0.001633	-0.003296	
12478	    0	6.391977	-2.487601	-3.396760	0.107575	0.201035	-0.564004	0.063815	-0.025038	-0.034045	0.999995	0.000538	0.001005	-0.002820	
12479	    0	6.386049	-0.644941	-2.265325	-0.303650	0.002480	-0.529481	0.063843	-0.006653	-0.022644	0.999995	-0.001518	0.000012	-0.002647	
12480	    0	5.672814	-1.417037	-2.040276	-0.458718	-0.223542	-0.461961	0.056718	-0.014348	-0.020307	0.999993	-0.002294	-0.001118	-0.002310	
12481	    0	5.224369	-1.592377	-2.085695	-0.338746	-0.298119	-0.357056	0.052246	-0.016052	-0.020752	0.999995	-0.001694	-0.001491	-0.001785	
12482	    0	5.926123	-1.413914	-1.838463	-0.316811	-0.235176	-0.288391	0.059262	-0.014254	-0.018292	0.999996	-0.001584	-0.001176	-0.001442	
12483	    0	6.868146	-1.171388	-0.937437	-0.193787	-0.071526	-0.343323	0.068665	-0.011841	-0.009338	0.999997	-0.000969	-0.000358	-0.001717	
12484	    0	6.876374	-0.742735	-0.446179	-0.078011	0.001526	-0.405121	0.068748	-0.007568	-0.004459	0.999997	-0.000390	0.000008	-0.002026	
12485	    0	6.099501	-1.086359	-0.910189	-0.038910	-0.018120	-0.396729	0.060974	-0.010986	-0.009094	0.999997	-0.000195	-0.000091	-0.001984	
12486	    0	5.400268	-2.068354	-1.621356	-0.105858	-0.037575	-0.313568	0.053973	-0.020777	-0.016192	0.999998	-0.000529	-0.000188	-0.001568	
12487	    0	5.257085	-3.156520	-1.968296	-0.170136	-0.010490	-0.130463	0.052551	-0.031616	-0.019653	0.999999	-0.000851	-0.000052	-0.000652	
12488	    0	5.252270	-4.351173	-1.285446	-0.168037	0.070572	0.125885	0.052546	-0.043489	-0.012836	0.999999	-0.000840	0.000353	0.000629	
12489	    0	5.548601	-5.699768	-0.788300	-0.184441	0.154877	0.432587	0.055603	-0.056885	-0.007874	0.999996	-0.000922	0.000774	0.002163	
12490	    0	5.674191	-6.399098	-0.304460	-0.243760	0.188065	0.755121	0.056980	-0.063780	-0.003020	0.999991	-0.001219	0.000940	0.003776	
12491	    0	5.654829	-6.134713	-0.214948	-0.252344	0.225068	1.108557	0.056885	-0.061035	-0.002136	0.999983	-0.001262	0.001125	0.005543	
12492	    0	6.215160	-5.327051	-0.630220	-0.141717	0.238421	1.506248	0.062543	-0.052805	-0.006339	0.999970	-0.000709	0.001192	0.007531	
12493	    0	7.587633	-4.571581	-1.375778	0.020027	0.243381	1.921112	0.076294	-0.044983	-0.013855	0.999952	0.000100	0.001217	0.009605	
12494	    0	9.908589	-4.212287	-2.761774	0.304991	0.168041	2.200935	0.099518	-0.040987	-0.027764	0.999937	0.001525	0.000840	0.011004	
12495	    0	13.789253	-4.845393	-5.359853	0.759906	-0.008965	2.253776	0.138428	-0.046692	-0.053772	0.999928	0.003799	-0.000045	0.011269	
12496	    0	18.633212	-5.921477	-8.534822	1.364173	-0.276001	2.132855	0.187063	-0.056640	-0.085483	0.999918	0.006821	-0.001380	0.010664	
12497	    0	22.502058	-6.363726	-10.913348	2.167025	-0.373855	2.176753	0.225891	-0.059998	-0.109375	0.999880	0.010835	-0.001869	0.010883	
12498	    0	24.554847	-5.342011	-10.539735	2.625417	-0.127799	2.471295	0.246240	-0.048992	-0.105903	0.999837	0.013126	-0.000639	0.012356	
12499	    0	26.102776	-2.360760	-8.145522	2.413508	0.064854	2.833721	0.261292	-0.018921	-0.081787	0.999826	0.012067	0.000324	0.014168	
12500	    0	26.720639	0.913526	-5.849207	1.855944	-0.007439	2.949673	0.267030	0.013617	-0.058370	0.999847	0.009279	-0.000037	0.014748	
12501	    0	25.363617	3.734381	-4.497309	1.419330	-0.248731	3.180093	0.253052	0.041687	-0.044373	0.999847	0.007096	-0.001244	0.015900	
12502	    0	24.250456	5.122826	-4.239738	0.954109	-0.539047	3.504187	0.241668	0.055667	-0.041487	0.999831	0.004770	-0.002695	0.017520	
12503	    0	23.795279	6.253853	-3.676462	0.519022	-0.852257	3.747793	0.236877	0.067078	-0.035583	0.999811	0.002595	-0.004261	0.018738	
12504	    0	22.232831	5.515783	-2.211528	0.268764	-1.150209	3.849480	0.221334	0.059453	-0.020762	0.999797	0.001344	-0.005751	0.019246	
12505	    0	19.999932	3.053476	-1.292885	0.379397	-1.393984	3.750863	0.199463	0.034302	-0.011475	0.999798	0.001897	-0.006969	0.018753	
12506	    0	19.111630	1.361531	-1.299477	0.844053	-1.468938	3.406349	0.190935	0.016919	-0.011525	0.999819	0.004220	-0.007344	0.017031	
12507	    0	17.958597	2.526484	-2.392961	1.361922	-1.362495	3.095417	0.179321	0.028198	-0.022522	0.999833	0.006809	-0.006812	0.015476	
12508	    0	17.602311	6.878182	-2.770162	1.677413	-1.157632	2.966850	0.175129	0.071608	-0.026093	0.999838	0.008387	-0.005788	0.014833	
12509	    0	15.956679	10.924673	-2.629231	1.619039	-1.005414	2.906946	0.158081	0.111755	-0.024597	0.999848	0.008095	-0.005027	0.014534	
12510	    0	14.041054	12.711479	-1.501124	1.415127	-0.935597	2.846276	0.138647	0.129195	-0.013451	0.999863	0.007075	-0.004678	0.014231	
12511	    0	11.870597	11.945094	-1.067312	1.236777	-0.897827	2.794002	0.117065	0.121155	-0.009399	0.999873	0.006184	-0.004489	0.013969	
12512	    0	8.512219	12.435782	-1.274220	1.191378	-0.845180	2.729525	0.083465	0.125576	-0.011642	0.999880	0.005957	-0.004226	0.013647	
12513	    0	5.939362	13.546815	-0.913298	1.222274	-0.632310	2.651313	0.057617	0.136292	-0.008118	0.999888	0.006111	-0.003161	0.013256	
12514	    0	4.298718	13.422847	0.202248	1.302574	-0.383963	2.545445	0.041269	0.134744	0.002979	0.999895	0.006513	-0.001920	0.012727	
12515	    0	3.527135	12.898445	1.251647	1.442952	-0.234992	2.233190	0.033813	0.129272	0.013489	0.999910	0.007215	-0.001175	0.011166	
12516	    0	2.846586	13.712075	0.179002	1.404985	-0.150493	1.854366	0.027191	0.137360	0.002775	0.999931	0.007025	-0.000752	0.009272	
12517	    0	2.045567	16.565029	1.114670	1.646460	-0.015068	1.630438	0.019104	0.165710	0.012512	0.999932	0.008232	-0.000075	0.008152	
12518	    0	0.271317	19.838030	-0.675935	0.996030	-0.062943	1.444835	0.001282	0.198423	-0.005771	0.999961	0.004980	-0.000315	0.007224	
12519	    0	-0.497653	21.532214	-1.243408	-0.185205	-0.028229	1.332102	-0.006409	0.215271	-0.012634	0.999977	-0.000926	-0.000141	0.006660	
12520	    0	-0.368366	19.704646	0.268233	-1.180661	0.312236	0.972376	-0.004639	0.197037	0.001526	0.999969	-0.005903	0.001561	0.004862	
12521	    0	-0.674818	16.557071	1.949760	-1.674675	0.488479	0.455481	-0.007080	0.165710	0.018127	0.999959	-0.008373	0.002442	0.002277	
12522	    0	-1.053914	16.812201	0.512339	-2.049676	0.649655	-0.060655	-0.010475	0.168166	0.003434	0.999942	-0.010248	0.003248	-0.000303	
12523	    0	-1.261160	14.386407	3.077306	-1.753262	0.503739	-0.626383	-0.012085	0.144165	0.029541	0.999953	-0.008766	0.002519	-0.003132	
12524	    0	-1.076972	10.588839	3.151560	-1.855506	-0.514422	-1.076720	-0.010278	0.106231	0.030504	0.999939	-0.009277	-0.002572	-0.005383	
12525	    0	0.933642	4.922420	-0.158264	-2.298066	-1.510490	-1.438962	0.009705	0.049133	-0.002075	0.999879	-0.011490	-0.007552	-0.007195	
12526	    0	3.369276	-2.717778	-4.707705	-2.060781	-1.590410	-1.639049	0.033837	-0.027936	-0.046523	0.999881	-0.010303	-0.007952	-0.008195	
12527	    0	6.271797	-8.088862	-9.489379	-1.319152	-0.374421	-1.863140	0.062134	-0.082092	-0.094238	0.999932	-0.006596	-0.001872	-0.009315	
12528	    0	10.460740	-19.392223	-2.013936	-1.029800	0.713364	-1.943059	0.102646	-0.195027	-0.019506	0.999932	-0.005149	0.003567	-0.009715	
12529	    0	14.424961	-31.698761	5.417600	0.491339	0.327496	-1.567859	0.141846	-0.318237	0.053162	0.999965	0.002457	0.001637	-0.007839	
12530	    0	15.971410	-38.178629	-7.756995	2.158794	-1.113921	-0.652330	0.158914	-0.381445	-0.080802	0.999921	0.010794	-0.005569	-0.003262	
12531	    0	15.976546	-32.207046	-28.910876	1.843479	0.220493	0.139620	0.159668	-0.319275	-0.292236	0.999956	0.009217	0.001102	0.000698	
12532	    0	11.226250	-20.682546	-14.968315	1.420079	2.748221	0.519392	0.110713	-0.205460	-0.152674	0.999877	0.007100	0.013741	0.002597	
12533	    0	5.268522	-11.990694	-1.047936	1.458986	2.538396	0.733976	0.052979	-0.119629	-0.012024	0.999886	0.007295	0.012691	0.003670	
12534	    0	0.119339	-3.524514	2.155300	1.632150	1.165222	0.826280	0.001464	-0.035414	0.021256	0.999941	0.008161	0.005826	0.004131	
12535	    0	-2.976227	5.923146	2.131388	2.550773	0.192266	0.769829	-0.029968	0.058838	0.022095	0.999910	0.012753	0.000961	0.003849	
12536	    0	-0.807430	11.237219	2.929843	3.692840	0.425554	0.085073	-0.008057	0.111802	0.031384	0.999826	0.018463	0.002128	0.000425	
12537	    0	4.756026	15.773757	7.066193	2.822230	0.755532	-1.191761	0.048767	0.156433	0.072693	0.999875	0.014111	0.003778	-0.005959	
12538	    0	13.251971	17.126371	-8.031645	0.525478	-0.373652	-1.112183	0.133619	0.170732	-0.079618	0.999979	0.002627	-0.001868	-0.005561	
12539	    0	22.217263	-11.060986	-12.423199	-2.314060	-1.165613	-0.084689	0.222839	-0.112122	-0.121643	0.999915	-0.011570	-0.005828	-0.000423	
12540	    0	29.682166	-7.102301	-5.240088	0.370410	-0.749785	-1.123438	0.296611	-0.072594	-0.051422	0.999975	0.001852	-0.003749	-0.005617	
12541	    0	14.794307	30.023950	-8.517384	2.734696	-0.753820	-1.831905	0.151001	0.299988	-0.080505	0.999857	0.013673	-0.003769	-0.009159	
12542	    0	8.958900	33.712841	0.666099	-0.565540	-0.719276	-2.005045	0.092940	0.336226	0.006040	0.999939	-0.002828	-0.003596	-0.010025	
12543	    0	12.352177	28.791639	-0.576770	-2.411597	-0.206768	-2.771152	0.127502	0.286072	-0.009094	0.999830	-0.012057	-0.001034	-0.013855	
12544	    0	15.157924	21.280757	-1.808244	-3.798174	0.139635	-3.762503	0.155527	0.209511	-0.022190	0.999642	-0.018989	0.000698	-0.018810	
12545	    0	18.689121	23.815729	-3.359165	-2.845902	0.566930	-4.396565	0.191956	0.233459	-0.037476	0.999653	-0.014228	0.002834	-0.021980	
12546	    0	24.349110	4.690477	-0.395851	-2.216914	0.620324	-3.952371	0.244339	0.042028	-0.005199	0.999738	-0.011084	0.003101	-0.019760	
12547	    0	31.381219	-6.787389	-1.366802	-1.019162	0.236526	-3.776792	0.312439	-0.073853	-0.013672	0.999807	-0.005095	0.001183	-0.018883	
12548	    0	28.685788	0.381151	-0.904652	0.168239	0.164996	-3.852893	0.286853	-0.001707	-0.009283	0.999813	0.000841	0.000825	-0.019263	
12549	    0	24.327952	-0.225473	-1.333278	-1.269422	0.256364	-3.696678	0.243164	-0.006836	-0.013611	0.999807	-0.006347	0.001282	-0.018482	
12550	    0	23.574173	-2.124255	-0.534536	-2.743186	0.527044	-3.490357	0.235308	-0.025428	-0.005636	0.999750	-0.013715	0.002635	-0.017450	
12551	    0	20.874963	-4.642717	-0.998479	-3.134992	0.698912	-3.152732	0.207947	-0.049866	-0.009949	0.999746	-0.015674	0.003494	-0.015762	
12552	    0	17.623529	-6.581733	-1.640383	-3.057327	0.765476	-2.831671	0.175216	-0.068550	-0.016042	0.999775	-0.015285	0.003827	-0.014157	
12553	    0	14.592612	-9.159873	-1.619657	-2.929874	0.752497	-2.480474	0.144714	-0.093628	-0.015381	0.999808	-0.014648	0.003762	-0.012402	
12554	    0	12.122291	-11.010226	-3.827181	-2.228833	0.745615	-2.202511	0.119857	-0.111848	-0.037480	0.999870	-0.011144	0.003728	-0.011012	
12555	    0	9.468601	-13.989915	-4.345996	-1.399270	0.663204	-2.081357	0.093079	-0.141174	-0.042786	0.999915	-0.006996	0.003316	-0.010406	
12556	    0	7.623189	-14.247929	-4.145733	-0.383385	0.396927	-2.132840	0.074624	-0.143360	-0.041332	0.999939	-0.001917	0.001985	-0.010664	
12557	    0	6.418689	-10.667852	-3.438298	0.230603	0.124361	-2.084389	0.063049	-0.107300	-0.034546	0.999945	0.001153	0.000622	-0.010422	
12558	    0	4.395970	-8.929220	-4.332927	0.526054	-0.003433	-1.726555	0.043188	-0.089553	-0.043564	0.999959	0.002630	-0.000017	-0.008633	
12559	    0	4.088038	-8.984486	-5.119376	0.524144	0.114633	-1.262675	0.040283	-0.089966	-0.051453	0.999976	0.002621	0.000573	-0.006313	
12560	    0	4.981239	-6.035977	-5.639410	0.439646	0.185395	-0.944142	0.049475	-0.060470	-0.056573	0.999986	0.002198	0.000927	-0.004721	
12561	    0	5.932636	-1.067228	-4.299361	0.191498	0.087166	-0.786593	0.059265	-0.010864	-0.043030	0.999991	0.000957	0.000436	-0.003933	
12562	    0	6.234842	0.874827	-2.617717	-0.221825	-0.130654	-0.711824	0.062396	0.008497	-0.026146	0.999992	-0.001109	-0.000653	-0.003559	
12563	    0	6.295807	-0.617340	-2.687493	-0.626948	-0.386049	-0.674441	0.062988	-0.006470	-0.026733	0.999987	-0.003135	-0.001930	-0.003372	
12564	    0	6.734488	-2.862079	-2.255642	-1.021011	-0.523380	-0.638394	0.067311	-0.028950	-0.022233	0.999978	-0.005105	-0.002617	-0.003192	
12565	    0	7.627878	-4.684357	-1.777428	-1.133737	-0.455288	-0.623326	0.076172	-0.047180	-0.017334	0.999976	-0.005669	-0.002276	-0.003117	
12566	    0	7.310840	-5.630594	-0.711672	-0.881009	-0.255014	-0.567248	0.072957	-0.056543	-0.006775	0.999985	-0.004405	-0.001275	-0.002836	
12567	    0	5.761138	-5.462512	-0.044596	-0.608636	-0.122834	-0.425721	0.057495	-0.054749	-0.000244	0.999992	-0.003043	-0.000614	-0.002129	
12568	    0	4.920593	-4.915293	-0.326072	-0.511742	-0.109100	-0.209236	0.049156	-0.049212	-0.003108	0.999995	-0.002559	-0.000546	-0.001046	
12569	    0	4.788873	-5.481100	-0.890967	-0.340080	-0.114441	0.068665	0.047913	-0.054810	-0.008789	0.999998	-0.001700	-0.000572	0.000343	
12570	    0	4.990761	-6.362600	-1.447828	-0.103760	-0.045776	0.436974	0.050050	-0.063524	-0.014434	0.999997	-0.000519	-0.000229	0.002185	
12571	    0	5.603637	-7.038190	-1.770994	0.116158	0.037384	0.861361	0.056335	-0.070129	-0.017761	0.999990	0.000581	0.000187	0.004307	
12572	    0	6.408580	-7.436000	-1.244501	0.119973	0.112153	1.286134	0.064555	-0.073938	-0.012526	0.999978	0.000600	0.000561	0.006431	
12573	    0	7.073934	-6.487726	-0.658240	-0.068665	0.088693	1.714346	0.071289	-0.064270	-0.006592	0.999963	-0.000343	0.000443	0.008572	
12574	    0	8.031184	-5.182134	-0.460724	-0.315673	0.034905	2.172895	0.080868	-0.050952	-0.004540	0.999939	-0.001578	0.000175	0.010864	
12575	    0	9.862814	-4.980206	-1.388346	-0.420963	0.027467	2.518532	0.099243	-0.048584	-0.013794	0.999918	-0.002105	0.000137	0.012592	
12576	    0	12.773480	-5.434169	-3.332220	-0.322733	0.039102	2.592924	0.128419	-0.052733	-0.033261	0.999914	-0.001614	0.000196	0.012964	
12577	    0	16.317163	-5.201862	-5.790278	0.080111	-0.150112	2.379665	0.163818	-0.050049	-0.057800	0.999928	0.000401	-0.000751	0.011898	
12578	    0	20.199934	-4.299123	-8.119046	0.889801	-0.465214	2.242145	0.202650	-0.040361	-0.080903	0.999924	0.004449	-0.002326	0.011210	
12579	    0	23.309760	-4.130955	-10.595019	1.826549	-0.610948	2.403354	0.233887	-0.037537	-0.105591	0.999881	0.009132	-0.003055	0.012016	
12580	    0	25.749287	-3.303174	-11.442740	2.421132	-0.518446	2.679020	0.258188	-0.028193	-0.114120	0.999833	0.012105	-0.002592	0.013394	
12581	    0	28.872926	-0.739929	-9.485133	2.331096	-0.330371	2.711633	0.288940	-0.002380	-0.094421	0.999838	0.011655	-0.001652	0.013557	
12582	    0	28.256478	3.728526	-7.025194	2.065200	-0.259604	2.987454	0.282049	0.042221	-0.069467	0.999834	0.010325	-0.001298	0.014936	
12583	    0	26.112865	6.304721	-5.434453	1.706041	-0.379777	3.493722	0.260071	0.068054	-0.053284	0.999808	0.008530	-0.001899	0.017467	
12584	    0	24.534455	7.454085	-4.459288	1.175198	-0.623746	3.836132	0.243988	0.079487	-0.043373	0.999793	0.005876	-0.003119	0.019179	
12585	    0	22.318771	5.860445	-4.170658	0.518835	-0.971099	3.954593	0.222168	0.063110	-0.040466	0.999789	0.002594	-0.004855	0.019772	
12586	    0	19.268708	4.047632	-3.791792	0.222603	-1.137432	3.947346	0.192049	0.044312	-0.036777	0.999788	0.001113	-0.005687	0.019735	
12587	    0	16.448585	3.309763	-2.155416	0.567662	-1.004663	3.700488	0.163940	0.036194	-0.020630	0.999812	0.002838	-0.005023	0.018501	
12588	    0	14.527888	4.875875	-0.726036	1.207419	-0.785299	3.368948	0.144456	0.051237	-0.006388	0.999832	0.006037	-0.003926	0.016844	
12589	    0	14.067209	7.171370	-1.307728	1.676268	-0.715485	3.083203	0.139587	0.073975	-0.011963	0.999839	0.008381	-0.003577	0.015415	
12590	    0	12.624590	9.088418	-1.078871	1.849456	-0.709568	2.798027	0.124992	0.092731	-0.009492	0.999852	0.009247	-0.003548	0.013989	
12591	    0	11.273553	9.954207	-0.391646	1.719740	-0.873413	2.583425	0.111450	0.101013	-0.002563	0.999869	0.008598	-0.004367	0.012917	
12592	    0	9.812500	10.220426	-0.809667	1.697988	-0.767738	2.441121	0.096895	0.103454	-0.006848	0.999882	0.008490	-0.003839	0.012205	
12593	    0	7.670240	10.531169	-0.736980	1.799836	-0.503367	2.185897	0.075562	0.106201	-0.006226	0.999896	0.008999	-0.002517	0.010929	
12594	    0	6.286242	10.591717	-0.640098	1.611176	-0.431643	1.734966	0.061953	0.106503	-0.005410	0.999928	0.008056	-0.002158	0.008675	
12595	    0	4.179941	10.648652	-0.869724	0.891315	-0.503546	1.393908	0.041077	0.106812	-0.008118	0.999962	0.004457	-0.002518	0.006969	
12596	    0	2.356805	11.812404	0.256111	0.643736	-0.367740	1.210795	0.022847	0.118255	0.002984	0.999974	0.003219	-0.001839	0.006054	
12597	    0	2.043004	13.136558	1.424290	0.872238	-0.156404	1.071939	0.019714	0.131409	0.014832	0.999975	0.004361	-0.000782	0.005360	
12598	    0	2.066247	15.451740	1.428254	1.060495	0.004959	0.947388	0.019931	0.154534	0.015101	0.999974	0.005302	0.000025	0.004737	
12599	    0	1.582772	17.586890	0.559928	0.849347	-0.018311	0.785069	0.015137	0.175903	0.006348	0.999983	0.004247	-0.000092	0.003925	
12600	    0	0.257061	18.480266	-0.693915	0.129128	-0.009918	0.685121	0.001938	0.184814	-0.006820	0.999993	0.000646	-0.000050	0.003426	
12601	    0	-0.293873	18.076408	-0.823058	-0.755885	0.159455	0.387574	-0.003296	0.180725	-0.008911	0.999990	-0.003779	0.000797	0.001938	
12602	    0	-1.355385	15.217866	-0.348926	-1.818492	0.271610	0.083352	-0.013623	0.152133	-0.004854	0.999957	-0.009092	0.001358	0.000417	
12603	    0	-1.169035	13.010893	0.093748	-2.414574	0.400553	-0.331887	-0.011475	0.130127	-0.000610	0.999924	-0.012073	0.002003	-0.001659	
12604	    0	-0.239556	10.647939	2.730888	-1.977007	0.481043	-0.884837	-0.001860	0.106751	0.026259	0.999938	-0.009885	0.002405	-0.004424	
12605	    0	0.604963	9.478085	4.447175	-1.349662	0.237469	-1.417564	0.006775	0.095032	0.043823	0.999951	-0.006748	0.001187	-0.007088	
12606	    0	1.952348	7.238646	3.723760	-1.165602	-0.394256	-1.695092	0.020064	0.072433	0.036855	0.999945	-0.005828	-0.001971	-0.008475	
12607	    0	4.065914	1.335219	0.033318	-1.389918	-0.909446	-1.740307	0.040771	0.013000	0.000427	0.999928	-0.006949	-0.004547	-0.008701	
12608	    0	6.702934	-6.125743	-5.073495	-1.402885	-0.523769	-1.724853	0.066628	-0.062186	-0.050126	0.999934	-0.007014	-0.002619	-0.008624	
12609	    0	9.642394	-17.076511	-5.482779	-1.475557	0.056649	-1.747169	0.094910	-0.171997	-0.053589	0.999934	-0.007378	0.000283	-0.008736	
12610	    0	13.471520	-28.833896	-2.556078	-0.369458	-0.176813	-1.692412	0.132291	-0.289512	-0.024909	0.999962	-0.001847	-0.000884	-0.008462	
12611	    0	13.706180	-33.184764	-5.248342	1.806107	-0.720230	-1.169611	0.135315	-0.332153	-0.054993	0.999935	0.009030	-0.003601	-0.005848	
12612	    0	14.812174	-32.994868	-23.534248	2.302222	-0.320251	-0.262648	0.148071	-0.327407	-0.238884	0.999931	0.011511	-0.001601	-0.001313	
12613	    0	13.036515	-28.111268	-18.500132	1.777896	2.093572	0.229652	0.128723	-0.279297	-0.188843	0.999905	0.008889	0.010468	0.001148	
12614	    0	6.623381	-15.035635	-3.077990	1.624169	2.497768	0.464838	0.066181	-0.149941	-0.032825	0.999886	0.008121	0.012488	0.002324	
12615	    0	2.533928	-3.190479	1.948374	1.570353	1.489289	0.572979	0.025574	-0.031982	0.019043	0.999937	0.007852	0.007446	0.002865	
12616	    0	1.580630	3.639211	2.347758	1.807815	0.362974	0.720990	0.015718	0.036235	0.023777	0.999950	0.009039	0.001815	0.003605	
12617	    0	4.448327	2.322099	-0.013458	2.862841	0.344861	0.427261	0.044434	0.023315	0.000122	0.999893	0.014314	0.001724	0.002136	
12618	    0	9.880267	1.997125	4.404671	0.914387	0.062943	-0.507548	0.098866	0.019519	0.044106	0.999986	0.004572	0.000315	-0.002538	
12619	    0	20.994606	5.404214	-16.047978	-0.421144	-0.879482	0.063324	0.210632	0.053772	-0.159668	0.999988	-0.002106	-0.004397	0.000317	
12620	    0	24.487505	-4.042055	0.909979	-0.381662	-0.924687	-0.319292	0.244764	-0.040792	0.010309	0.999986	-0.001908	-0.004623	-0.001596	
12621	    0	13.643060	23.560108	-4.243825	1.503976	-0.739304	-1.518282	0.138367	0.234863	-0.040161	0.999935	0.007520	-0.003696	-0.007591	
12622	    0	6.044857	34.262732	-2.054975	0.502212	-0.462920	-1.776341	0.063535	0.342122	-0.019546	0.999954	0.002511	-0.002315	-0.008882	
12623	    0	6.759680	31.269507	-0.400701	-1.599754	-0.443285	-2.514744	0.071533	0.311768	-0.006348	0.999886	-0.007998	-0.002216	-0.012573	
12624	    0	12.122395	28.028983	-5.074189	-2.356515	0.012780	-3.523900	0.126126	0.277472	-0.054030	0.999775	-0.011782	0.000064	-0.017618	
12625	    0	19.404755	24.881413	-2.780599	-2.699370	0.313601	-4.196604	0.199158	0.244263	-0.031433	0.999687	-0.013495	0.001568	-0.020981	
12626	    0	25.994909	14.194897	-0.826138	-2.074613	0.402486	-4.057094	0.262736	0.136539	-0.010223	0.999738	-0.010372	0.002012	-0.020284	
12627	    0	30.479687	0.492558	-0.506588	-1.078871	0.197043	-3.933989	0.304810	-0.001099	-0.005371	0.999791	-0.005394	0.000985	-0.019669	
12628	    0	29.012498	2.338714	-0.836613	-0.662658	0.143633	-3.981289	0.290507	0.017578	-0.008639	0.999796	-0.003313	0.000718	-0.019905	
12629	    0	25.264933	3.293553	0.378651	-1.748792	0.327517	-3.911892	0.253235	0.028015	0.003113	0.999768	-0.008743	0.001637	-0.019558	
12630	    0	23.967257	-1.070475	0.912838	-2.708486	0.631198	-3.704593	0.239449	-0.015023	0.008556	0.999731	-0.013541	0.003156	-0.018521	
12631	    0	21.729785	-4.259102	0.485559	-3.249669	0.874603	-3.403035	0.216553	-0.046204	0.004639	0.999713	-0.016247	0.004373	-0.017014	
12632	    0	19.321890	-7.023307	0.104492	-3.230762	1.053331	-3.111161	0.192101	-0.073209	0.001198	0.999734	-0.016152	0.005266	-0.015554	
12633	    0	17.142920	-9.379893	-0.951473	-2.965577	1.167385	-2.788752	0.170044	-0.096313	-0.009094	0.999775	-0.014827	0.005836	-0.013943	
12634	    0	15.559886	-11.006665	-1.891213	-2.382035	1.224589	-2.591092	0.154039	-0.112291	-0.018530	0.999825	-0.011909	0.006123	-0.012955	
12635	    0	13.449994	-11.447062	-3.492570	-1.609873	1.194243	-2.555197	0.132812	-0.116455	-0.034790	0.999867	-0.008049	0.005971	-0.012775	
12636	    0	10.361290	-11.581855	-4.820560	-0.880653	1.007496	-2.553838	0.101878	-0.117339	-0.048207	0.999896	-0.004403	0.005037	-0.012769	
12637	    0	7.026999	-10.287722	-6.058480	-0.254638	0.623339	-2.500985	0.068787	-0.103821	-0.060669	0.999916	-0.001273	0.003117	-0.012505	
12638	    0	3.946836	-7.604641	-6.902368	0.232511	0.336273	-2.264454	0.038488	-0.076406	-0.069178	0.999933	0.001163	0.001681	-0.011322	
12639	    0	1.975665	-7.471672	-7.002875	0.512894	0.323491	-1.770045	0.018982	-0.074707	-0.070251	0.999956	0.002564	0.001617	-0.008850	
12640	    0	2.943296	-11.226374	-6.046732	0.418666	0.236894	-1.220140	0.028676	-0.112313	-0.060737	0.999978	0.002093	0.001184	-0.006101	
12641	    0	5.115568	-8.749240	-4.975325	0.315858	0.138283	-0.915531	0.050720	-0.087646	-0.049927	0.999988	0.001579	0.000691	-0.004578	
12642	    0	6.133161	-1.828870	-3.791796	0.195122	0.022698	-0.749208	0.061258	-0.018481	-0.037943	0.999992	0.000976	0.000113	-0.003746	
12643	    0	6.131491	0.327980	-2.993551	-0.237275	-0.104332	-0.627900	0.061340	0.003052	-0.029907	0.999993	-0.001186	-0.000522	-0.003139	
12644	    0	6.451295	-1.251678	-2.766668	-0.568964	-0.203324	-0.558473	0.064506	-0.012775	-0.027565	0.999991	-0.002845	-0.001017	-0.002792	
12645	    0	6.670329	-3.224972	-2.476451	-0.787166	-0.302125	-0.555422	0.066650	-0.032532	-0.024536	0.999987	-0.003936	-0.001511	-0.002777	
12646	    0	6.859595	-4.934025	-2.472786	-0.727275	-0.242806	-0.502016	0.068501	-0.049602	-0.024465	0.999989	-0.003636	-0.001214	-0.002510	
12647	    0	6.639927	-6.145684	-2.288014	-0.446130	-0.113678	-0.415803	0.066284	-0.061646	-0.022705	0.999994	-0.002231	-0.000568	-0.002079	
12648	    0	5.720098	-6.156358	-1.315345	-0.293541	-0.091934	-0.259590	0.057127	-0.061657	-0.013037	0.999997	-0.001468	-0.000460	-0.001298	
12649	    0	4.846585	-5.619303	-0.709410	-0.364685	-0.138664	-0.031281	0.048462	-0.056213	-0.006958	0.999997	-0.001823	-0.000693	-0.000156	
12650	    0	4.429798	-5.607730	-1.047137	-0.321961	-0.195313	0.240135	0.044375	-0.056041	-0.010338	0.999997	-0.001610	-0.000977	0.001201	
12651	    0	5.127824	-6.438369	-1.627632	-0.174713	-0.178337	0.497437	0.051453	-0.064270	-0.016174	0.999995	-0.000874	-0.000892	0.002487	
12652	    0	6.634930	-6.423964	-1.397877	0.007439	-0.049591	0.813105	0.066613	-0.063969	-0.013965	0.999991	0.000037	-0.000248	0.004066	
12653	    0	8.504769	-6.429828	-0.626840	0.012970	0.032997	1.067357	0.085388	-0.063843	-0.006287	0.999986	0.000065	0.000165	0.005337	
12654	    0	9.806293	-6.048772	-0.437922	-0.141335	0.036049	1.216896	0.098428	-0.059893	-0.004354	0.999981	-0.000707	0.000180	0.006084	
12655	    0	9.892890	-4.278370	-0.930519	-0.215723	0.035858	1.493850	0.099243	-0.042053	-0.009277	0.999971	-0.001079	0.000179	0.007469	
12656	    0	11.271702	-3.029135	-2.732685	-0.225452	0.018120	1.843288	0.112988	-0.029282	-0.027304	0.999956	-0.001127	0.000091	0.009216	
12657	    0	14.620562	-2.332067	-5.346955	0.041199	-0.176814	2.076759	0.146484	-0.021790	-0.053345	0.999946	0.000206	-0.000884	0.010384	
12658	    0	19.052204	-3.155467	-7.371471	0.637641	-0.443469	2.208379	0.191016	-0.029213	-0.073387	0.999931	0.003188	-0.002217	0.011042	
12659	    0	23.743878	-3.900240	-8.881513	1.177246	-0.601021	2.128657	0.238098	-0.035950	-0.088318	0.999921	0.005886	-0.003005	0.010643	
12660	    0	24.556266	-1.708517	-9.727864	1.568275	-0.615904	2.284317	0.246029	-0.013517	-0.096637	0.999899	0.007841	-0.003079	0.011421	
12661	    0	25.193405	1.702677	-8.797744	1.677014	-0.518631	2.714657	0.251892	0.021179	-0.087158	0.999869	0.008385	-0.002593	0.013573	
12662	    0	25.383513	4.803717	-6.972794	1.543703	-0.428224	3.289597	0.253141	0.052738	-0.068790	0.999832	0.007718	-0.002141	0.016447	
12663	    0	25.277037	6.665118	-5.892556	1.397230	-0.504338	3.794360	0.251587	0.071838	-0.057800	0.999792	0.006986	-0.002522	0.018970	
12664	    0	25.447713	6.960959	-5.578096	1.117981	-0.723702	4.029386	0.253201	0.075027	-0.054454	0.999774	0.005589	-0.003618	0.020145	
12665	    0	23.985987	6.183977	-4.838863	0.779020	-1.002388	4.072880	0.238770	0.066895	-0.046936	0.999772	0.003895	-0.005012	0.020363	
12666	    0	20.839383	4.748762	-4.566821	0.657705	-1.136487	4.116188	0.207610	0.051913	-0.044321	0.999766	0.003288	-0.005682	0.020579	
12667	    0	19.209689	3.772836	-3.389643	0.915786	-1.039963	3.972156	0.191467	0.041687	-0.032715	0.999779	0.004579	-0.005199	0.019859	
12668	    0	17.634863	3.306761	-2.293583	1.279153	-0.986356	3.661018	0.175812	0.036431	-0.021842	0.999800	0.006395	-0.004931	0.018304	
12669	    0	16.096387	5.553702	-1.869602	1.798361	-0.902423	3.306786	0.160095	0.058350	-0.017456	0.999812	0.008991	-0.004512	0.016533	
12670	    0	14.735778	8.384142	-1.937523	2.015230	-0.896315	3.000814	0.146158	0.086226	-0.017858	0.999826	0.010076	-0.004481	0.015003	
12671	    0	12.757705	10.363426	-1.378306	1.888370	-0.828403	2.803181	0.126160	0.105530	-0.012268	0.999848	0.009441	-0.004142	0.014015	
12672	    0	10.370031	10.831570	0.771916	1.792227	-0.774229	2.694636	0.102196	0.109622	0.009095	0.999861	0.008961	-0.003871	0.013473	
12673	    0	8.346619	10.000575	1.566861	1.708290	-0.769646	2.484231	0.082153	0.100891	0.016846	0.999879	0.008541	-0.003848	0.012421	
12674	    0	6.581677	9.644573	0.876347	1.557779	-0.690672	2.100818	0.064767	0.097056	0.009743	0.999908	0.007789	-0.003453	0.010504	
12675	    0	4.500800	10.858314	0.964420	1.375608	-0.475893	1.684605	0.044067	0.108887	0.010498	0.999938	0.006878	-0.002379	0.008423	
12676	    0	2.722827	11.495620	1.344923	0.958263	-0.303844	1.359384	0.026425	0.115071	0.014041	0.999964	0.004791	-0.001519	0.006797	
12677	    0	1.263136	11.802174	2.390128	0.428966	-0.254824	1.184090	0.011902	0.118042	0.024170	0.999979	0.002145	-0.001274	0.005920	
12678	    0	0.929412	12.348237	3.112317	0.494388	-0.107575	1.160057	0.008561	0.123456	0.031433	0.999980	0.002472	-0.000538	0.005800	
12679	    0	0.949997	12.919371	2.777008	0.665479	0.035858	1.108559	0.008789	0.129150	0.028198	0.999979	0.003327	0.000179	0.005543	
12680	    0	0.633144	14.066905	0.593334	0.648884	0.004387	0.975042	0.005646	0.140677	0.006390	0.999983	0.003244	0.000022	0.004875	
12681	    0	0.374838	17.075153	-1.359890	0.199128	-0.067711	0.678255	0.003174	0.170776	-0.013428	0.999993	0.000996	-0.000339	0.003391	
12682	    0	0.190211	15.060904	-1.410967	-1.035505	-0.050926	0.378038	0.001621	0.150537	-0.014889	0.999985	-0.005177	-0.000255	0.001890	
12683	    0	-0.278437	13.086453	-1.981070	-2.375850	0.071909	0.117495	-0.002869	0.130615	-0.021362	0.999928	-0.011879	0.000360	0.000587	
12684	    0	-0.302801	10.973181	-0.611079	-2.486676	0.228125	-0.216490	-0.002917	0.109648	-0.007471	0.999921	-0.012433	0.001141	-0.001082	
12685	    0	0.208949	9.196778	0.252684	-2.040139	0.148204	-0.629437	0.002380	0.091980	0.001587	0.999942	-0.010201	0.000741	-0.003147	
12686	    0	0.448242	7.532549	0.497591	-1.674681	-0.313955	-1.104755	0.004891	0.075337	0.004353	0.999948	-0.008373	-0.001570	-0.005524	
12687	    0	0.348323	5.132027	-1.066874	-1.553380	-1.030564	-1.431307	0.003906	0.051208	-0.011047	0.999930	-0.007767	-0.005153	-0.007156	
12688	    0	1.563473	-0.118865	-3.596885	-1.249727	-1.505509	-1.538316	0.015894	-0.001534	-0.035841	0.999922	-0.006248	-0.007527	-0.007691	
12689	    0	6.239491	-7.693100	-5.445292	-0.148585	-0.632486	-1.750971	0.061890	-0.077515	-0.054199	0.999956	-0.000743	-0.003162	-0.008755	
12690	    0	11.915717	-18.489864	-2.571814	0.634970	0.986693	-1.987501	0.117182	-0.185986	-0.026889	0.999933	0.003175	0.004933	-0.009937	
12691	    0	14.759674	-27.009893	3.675299	2.121836	1.838963	-1.905151	0.145325	-0.271851	0.032532	0.999856	0.010609	0.009194	-0.009525	
12692	    0	14.016621	-29.264627	2.306932	3.553419	0.703092	-1.302990	0.138322	-0.293894	0.017366	0.999814	0.017766	0.003515	-0.006515	
12693	    0	14.299930	-27.627258	-15.717915	2.684295	-0.231178	-0.395978	0.142639	-0.274414	-0.160706	0.999907	0.013421	-0.001156	-0.001980	
12694	    0	11.762067	-18.865874	-18.484268	1.263066	1.477074	0.212101	0.116445	-0.187359	-0.186892	0.999951	0.006315	0.007385	0.001060	
12695	    0	5.858176	-8.114902	-5.184203	1.053838	2.227078	0.420391	0.058167	-0.080750	-0.052917	0.999922	0.005269	0.011135	0.002102	
12696	    0	1.778181	-0.463154	1.720213	0.931943	1.408977	0.577362	0.017916	-0.004660	0.017055	0.999960	0.004660	0.007045	0.002887	
12697	    0	-0.050062	6.917657	2.518198	1.130113	0.457767	0.663000	-0.000671	0.069031	0.025574	0.999975	0.005651	0.002289	0.003315	
12698	    0	1.209330	7.773745	6.979541	0.933652	-0.154305	0.499537	0.011846	0.077440	0.070167	0.999985	0.004668	-0.000772	0.002498	
12699	    0	8.794151	5.965306	-0.433871	0.692751	-0.374414	0.196076	0.087891	0.059753	-0.003967	0.999991	0.003464	-0.001872	0.000980	
12700	    0	20.510970	1.587305	-12.828293	-1.542497	-1.145190	-0.175670	0.205853	0.014709	-0.127222	0.999953	-0.007712	-0.005726	-0.000878	
12701	    0	31.960986	-8.566369	-10.403956	-1.478593	-0.654418	-0.000763	0.319946	-0.086426	-0.102356	0.999967	-0.007393	-0.003272	-0.000004	
12702	    0	21.660652	11.981993	4.593278	-0.596054	-0.657471	-1.492328	0.217341	0.118338	0.046292	0.999962	-0.002980	-0.003287	-0.007462	
12703	    0	9.341033	35.981220	0.682129	0.049782	-0.355534	-1.554887	0.096191	0.359070	0.007080	0.999968	0.000249	-0.001778	-0.007774	
12704	    0	9.347483	26.659704	-1.013648	-0.911355	-0.129894	-2.310431	0.096553	0.265444	-0.011286	0.999922	-0.004557	-0.000649	-0.011552	
12705	    0	10.825335	25.519948	-3.039981	-1.410749	0.065044	-3.248003	0.112366	0.253174	-0.032227	0.999843	-0.007053	0.000325	-0.016239	
12706	    0	15.395583	30.544503	-3.760271	-1.280874	0.402669	-3.868183	0.159742	0.302142	-0.039863	0.999790	-0.006404	0.002013	-0.019340	
12707	    0	23.413494	17.255061	-3.775303	-1.967576	0.473058	-3.708161	0.237183	0.167786	-0.039978	0.999777	-0.009837	0.002365	-0.018539	
12708	    0	31.930117	3.615469	-2.452805	-1.128840	0.330183	-3.704495	0.319855	0.030092	-0.025237	0.999811	-0.005644	0.001651	-0.018521	
12709	    0	29.054917	0.597508	-0.439497	-0.742194	0.203717	-3.722606	0.290588	0.000549	-0.004700	0.999819	-0.003711	0.001019	-0.018612	
12710	    0	24.155918	2.669100	-1.173908	-1.782930	0.253505	-3.796094	0.241991	0.021993	-0.012256	0.999779	-0.008914	0.001267	-0.018979	
12711	    0	22.337161	2.350262	-1.644233	-2.540800	0.617460	-3.631132	0.223694	0.019226	-0.017395	0.999749	-0.012703	0.003087	-0.018154	
12712	    0	21.436378	-2.551440	-1.448251	-3.206169	0.824242	-3.362395	0.213831	-0.029349	-0.014915	0.999722	-0.016029	0.004121	-0.016810	
12713	    0	19.569084	-5.242813	-1.287293	-3.167811	0.955284	-3.170291	0.194763	-0.055725	-0.012939	0.999737	-0.015838	0.004776	-0.015850	
12714	    0	17.294430	-7.955728	-0.387172	-2.920564	1.022607	-2.948413	0.171727	-0.082149	-0.003565	0.999771	-0.014602	0.005113	-0.014741	
12715	    0	15.347882	-9.960547	-1.387651	-2.405697	1.007333	-2.832969	0.151978	-0.101929	-0.013428	0.999814	-0.012028	0.005036	-0.014164	
12716	    0	12.897065	-11.531035	-4.605229	-1.870249	0.950670	-2.769419	0.127136	-0.117507	-0.045568	0.999848	-0.009351	0.004753	-0.013846	
12717	    0	9.848180	-12.864653	-6.644717	-1.302198	0.775940	-2.663526	0.096497	-0.130371	-0.065979	0.999882	-0.006511	0.003880	-0.013317	
12718	    0	6.828498	-13.569822	-6.587867	-0.762389	0.448049	-2.493931	0.066437	-0.136785	-0.065509	0.999912	-0.003812	0.002240	-0.012469	
12719	    0	4.184284	-13.224405	-5.863629	-0.237088	0.262456	-2.144665	0.040344	-0.132751	-0.058533	0.999941	-0.001185	0.001312	-0.010723	
12720	    0	3.063572	-13.869903	-5.613261	0.086595	0.227931	-1.630229	0.029440	-0.138918	-0.056227	0.999966	0.000433	0.001140	-0.008151	
12721	    0	4.372048	-11.591759	-4.899880	0.359538	0.222017	-1.201638	0.042969	-0.116089	-0.049255	0.999979	0.001798	0.001110	-0.006008	
12722	    0	6.074247	-3.626222	-3.796908	0.500872	0.217057	-0.973516	0.060524	-0.036462	-0.038126	0.999984	0.002504	0.001085	-0.004868	
12723	    0	6.294013	0.032838	-2.211734	0.070191	0.122261	-0.874331	0.062927	0.000061	-0.022156	0.999990	0.000351	0.000611	-0.004372	
12724	    0	5.420616	-1.319607	-1.528367	-0.468065	-0.029183	-0.822070	0.054153	-0.013454	-0.015244	0.999989	-0.002340	-0.000146	-0.004110	
12725	    0	5.375295	-3.033531	-1.157820	-0.778774	-0.170899	-0.740055	0.053650	-0.030579	-0.011414	0.999985	-0.003894	-0.000854	-0.003700	
12726	    0	5.577661	-2.894558	-0.987640	-0.748065	-0.157548	-0.701907	0.055682	-0.029178	-0.009724	0.999986	-0.003740	-0.000788	-0.003510	
12727	    0	6.168523	-3.144693	-1.308261	-0.482942	-0.018883	-0.645449	0.061584	-0.031677	-0.013000	0.999991	-0.002415	-0.000094	-0.003227	
12728	    0	6.637231	-4.012369	-1.200524	-0.271416	0.114823	-0.630761	0.066238	-0.040349	-0.011989	0.999993	-0.001357	0.000574	-0.003154	
12729	    0	5.853896	-4.181627	-0.816358	-0.185204	0.184632	-0.576020	0.058411	-0.041992	-0.008179	0.999994	-0.000926	0.000923	-0.002880	
12730	    0	4.273142	-4.450986	-1.261892	-0.066757	0.164032	-0.369263	0.042639	-0.044593	-0.012639	0.999997	-0.000334	0.000820	-0.001846	
12731	    0	4.077016	-5.794397	-2.153860	-0.045776	0.098610	-0.169373	0.040710	-0.057983	-0.021545	0.999999	-0.000229	0.000493	-0.000847	
12732	    0	4.716751	-6.439435	-2.013618	0.070000	0.117493	0.096893	0.047187	-0.064364	-0.020186	0.999999	0.000350	0.000587	0.000484	
12733	    0	5.191300	-7.142482	-1.310195	0.250244	0.205422	0.458527	0.052063	-0.071289	-0.013245	0.999995	0.001251	0.001027	0.002293	
12734	    0	5.972599	-7.568988	-0.630046	0.345231	0.311280	0.836757	0.060032	-0.075428	-0.006524	0.999988	0.001726	0.001556	0.004184	
12735	    0	7.044906	-6.849716	-0.383485	0.361827	0.370791	1.232156	0.070862	-0.068054	-0.004089	0.999977	0.001809	0.001854	0.006161	
12736	    0	8.329113	-5.057620	-0.419365	0.208857	0.353245	1.655408	0.083698	-0.049880	-0.004394	0.999963	0.001044	0.001766	0.008277	
12737	    0	10.024774	-3.487547	-1.467556	0.024605	0.302130	2.110330	0.100586	-0.033813	-0.014832	0.999943	0.000123	0.001511	0.010551	
12738	    0	13.503532	-3.207840	-3.859526	0.132183	0.224882	2.444901	0.135370	-0.030399	-0.038768	0.999924	0.000661	0.001124	0.012224	
12739	    0	19.235778	-4.357239	-6.826567	0.735494	0.000954	2.455969	0.192871	-0.040955	-0.068420	0.999917	0.003677	0.000005	0.012280	
12740	    0	23.524315	-5.852510	-8.905137	1.516396	-0.219544	2.473918	0.236035	-0.054933	-0.089218	0.999893	0.007582	-0.001098	0.012369	
12741	    0	25.757090	-6.205865	-9.958368	2.221213	-0.205240	2.534605	0.258423	-0.057678	-0.099976	0.999857	0.011106	-0.001026	0.012672	
12742	    0	27.130982	-3.310465	-9.136509	2.525476	-0.026323	2.743689	0.271731	-0.028222	-0.091706	0.999825	0.012627	-0.000132	0.013718	
12743	    0	27.772323	1.274961	-7.076463	2.360109	0.031282	3.054236	0.277466	0.017822	-0.070618	0.999813	0.011800	0.000156	0.015270	
12744	    0	27.258567	5.208421	-5.786514	1.909381	-0.031855	3.469694	0.271630	0.057351	-0.057291	0.999804	0.009546	-0.000159	0.017347	
12745	    0	25.173033	7.093213	-5.517044	1.393415	-0.215164	3.825643	0.250366	0.076111	-0.054382	0.999792	0.006967	-0.001076	0.019127	
12746	    0	23.781555	6.712815	-4.669819	0.910249	-0.465043	3.917199	0.236545	0.071980	-0.045827	0.999795	0.004551	-0.002325	0.019585	
12747	    0	22.225528	4.909569	-3.666580	0.519785	-0.854546	3.748557	0.221436	0.053345	-0.035583	0.999811	0.002599	-0.004272	0.018742	
12748	    0	19.978923	3.227684	-3.371766	0.547442	-1.080197	3.606060	0.199341	0.035964	-0.032545	0.999819	0.002737	-0.005401	0.018029	
12749	    0	18.187385	3.423879	-3.498776	0.949151	-1.170225	3.386119	0.181458	0.037476	-0.033752	0.999827	0.004745	-0.005851	0.016930	
12750	    0	16.675951	4.933917	-3.938765	1.338840	-1.128258	3.144243	0.166171	0.052213	-0.038106	0.999838	0.006694	-0.005641	0.015720	
12751	    0	15.345869	7.993513	-3.638514	1.639834	-0.972036	3.003088	0.152405	0.082520	-0.034973	0.999842	0.008199	-0.004860	0.015015	
12752	    0	13.637550	11.033647	-2.792168	1.653181	-0.835460	2.917244	0.134857	0.112534	-0.026432	0.999850	0.008265	-0.004177	0.014585	
12753	    0	12.364852	11.699296	-1.388380	1.336917	-0.849188	2.764247	0.122070	0.118774	-0.012573	0.999872	0.006684	-0.004246	0.013821	
12754	    0	9.586006	11.048525	-0.125582	1.055755	-0.935969	2.557464	0.094440	0.111702	-0.000224	0.999893	0.005279	-0.004680	0.012787	
12755	    0	6.144283	10.253147	-0.144332	0.988799	-1.067193	2.223271	0.060303	0.103210	-0.000610	0.999911	0.004944	-0.005336	0.011116	
12756	    0	3.726302	10.980806	-0.957065	1.007868	-0.886367	2.029469	0.036186	0.110225	-0.008854	0.999926	0.005039	-0.004432	0.010147	
12757	    0	2.808675	12.361611	0.636120	1.248198	-0.502598	1.961564	0.026855	0.123840	0.007202	0.999928	0.006241	-0.002513	0.009808	
12758	    0	3.197228	12.265660	2.206473	1.650091	-0.126461	1.902631	0.030790	0.122766	0.023097	0.999920	0.008250	-0.000632	0.009513	
12759	    0	2.827760	14.858036	1.291099	1.864673	0.107005	1.676985	0.027039	0.148682	0.014282	0.999921	0.009323	0.000535	0.008385	
12760	    0	2.008309	16.832902	1.462437	1.984456	0.059702	1.464690	0.018855	0.168314	0.016289	0.999924	0.009922	0.000299	0.007323	
12761	    0	1.038122	19.425762	-0.605155	0.630956	-0.134088	1.265727	0.009155	0.194336	-0.005432	0.999974	0.003155	-0.000670	0.006329	
12762	    0	0.154288	19.713163	-0.859576	-0.838859	-0.046540	1.092538	0.000468	0.197098	-0.009422	0.999976	-0.004194	-0.000233	0.005463	
12763	    0	0.721488	16.730485	0.417076	-1.766995	0.198558	0.748455	0.006592	0.167358	0.002686	0.999953	-0.008835	0.000993	0.003742	
12764	    0	0.084947	15.415863	1.337532	-2.250720	0.206570	0.200276	0.000708	0.154297	0.011639	0.999935	-0.011253	0.001033	0.001001	
12765	    0	-0.228155	15.355498	1.150450	-2.506896	0.369273	-0.323495	-0.002014	0.153687	0.009583	0.999918	-0.012534	0.001846	-0.001617	
12766	    0	-0.800228	12.886229	4.310054	-2.114914	0.206380	-0.858326	-0.007404	0.129341	0.041742	0.999934	-0.010574	0.001032	-0.004292	
12767	    0	-0.211362	10.170634	4.100635	-1.648744	-0.552951	-1.252771	-0.001587	0.102051	0.040161	0.999942	-0.008244	-0.002765	-0.006264	
12768	    0	1.342323	5.160738	-1.412320	-1.643805	-1.632551	-1.493883	0.013925	0.051387	-0.014434	0.999905	-0.008219	-0.008162	-0.007469	
12769	    0	3.986640	-2.327004	-8.866846	-1.411486	-1.812615	-1.676997	0.040466	-0.024231	-0.088135	0.999898	-0.007057	-0.009063	-0.008385	
12770	    0	7.181562	-9.480520	-9.049606	-0.720800	-0.257306	-1.947248	0.071002	-0.095824	-0.090060	0.999945	-0.003604	-0.001287	-0.009736	
12771	    0	11.079942	-20.150189	1.509174	-0.403413	0.775164	-2.130174	0.108704	-0.202637	0.015076	0.999933	-0.002017	0.003876	-0.010651	
12772	    0	13.826319	-27.952625	7.504494	1.100178	0.446137	-1.686698	0.136062	-0.281086	0.073196	0.999947	0.005501	0.002231	-0.008433	
12773	    0	14.792814	-33.534728	-7.990123	2.385780	-0.875689	-0.639362	0.147217	-0.334839	-0.083252	0.999913	0.011929	-0.004378	-0.003197	
12774	    0	15.444776	-33.029230	-28.763079	1.528947	0.434499	0.286296	0.154289	-0.327858	-0.290479	0.999967	0.007645	0.002172	0.001431	
12775	    0	10.674687	-21.066990	-15.004048	1.042979	2.742302	0.881230	0.105591	-0.209412	-0.152588	0.999883	0.005215	0.013711	0.004406	
12776	    0	4.627788	-10.972310	1.668863	0.875693	2.452552	1.146164	0.047102	-0.109525	0.015635	0.999898	0.004378	0.012262	0.005731	
12777	    0	0.992467	-1.842223	3.738679	1.046198	1.153583	1.233693	0.010254	-0.018555	0.037231	0.999950	0.005231	0.005768	0.006168	
12778	    0	-1.129246	8.618670	5.061330	2.066280	0.374803	1.161985	-0.011695	0.085590	0.051521	0.999928	0.010331	0.001874	0.005810	
12779	    0	-0.803207	9.036876	8.703933	2.954405	0.437181	0.484485	-0.008057	0.089050	0.088379	0.999886	0.014771	0.002186	0.002422	
12780	    0	5.359821	11.889399	7.793363	1.540394	0.131418	-0.775347	0.054109	0.118080	0.078810	0.999962	0.007702	0.000657	-0.003877	
12781	    0	16.142755	16.964040	-13.990902	-0.627140	-0.749020	-0.692753	0.162537	0.168640	-0.139832	0.999982	-0.003136	-0.003745	-0.003464	
12782	    0	26.048456	-8.366492	-9.312057	-2.570995	-0.890950	0.041009	0.260910	-0.084789	-0.090874	0.999907	-0.012855	-0.004455	0.000205	
12783	    0	25.653665	10.851109	-3.930122	0.312045	-0.720031	-1.321424	0.257385	0.106873	-0.038208	0.999970	0.001560	-0.003600	-0.006607	
12784	    0	10.866962	32.430587	-5.303134	0.986307	-0.523767	-1.714164	0.111581	0.323613	-0.051145	0.999948	0.004931	-0.002619	-0.008571	
12785	    0	10.618703	30.960714	-0.221072	-1.520590	-0.413336	-2.376637	0.109863	0.308289	-0.004333	0.999898	-0.007603	-0.002067	-0.011883	
12786	    0	14.564977	25.532646	-0.919488	-2.537528	0.123796	-3.280112	0.149802	0.252748	-0.012505	0.999784	-0.012687	0.000619	-0.016399	
12787	    0	18.259017	26.715467	-5.095548	-2.662186	0.364916	-4.348465	0.188232	0.262390	-0.054810	0.999673	-0.013309	0.001824	-0.021740	
12788	    0	22.459681	20.950754	-4.509622	-2.272839	0.664970	-4.361791	0.228930	0.204010	-0.048192	0.999692	-0.011363	0.003325	-0.021807	
12789	    0	28.202406	0.945826	-1.896573	-1.837879	0.321223	-3.983628	0.282104	0.003662	-0.019470	0.999758	-0.009189	0.001606	-0.019917	
12790	    0	31.451786	-2.478185	-3.135566	-0.527228	0.016786	-4.070949	0.313923	-0.031259	-0.031305	0.999789	-0.002636	0.000084	-0.020353	
12791	    0	26.190738	0.982163	-3.506701	-0.903384	0.046733	-4.021739	0.262024	0.004395	-0.035156	0.999787	-0.004517	0.000234	-0.020107	
12792	    0	25.163028	-0.315371	-2.171484	-2.606825	0.278308	-3.924734	0.251470	-0.008375	-0.021978	0.999722	-0.013033	0.001391	-0.019622	
12793	    0	24.759948	-4.078396	-1.881025	-3.235776	0.618046	-3.795260	0.246704	-0.045776	-0.018860	0.999683	-0.016177	0.003090	-0.018974	
12794	    0	21.900865	-5.996260	-0.945974	-3.167079	0.757863	-3.567661	0.217855	-0.064004	-0.009295	0.999708	-0.015834	0.003789	-0.017837	
12795	    0	19.058326	-9.353797	-0.874884	-3.012144	0.853800	-3.182485	0.189026	-0.096680	-0.008118	0.999750	-0.015059	0.004269	-0.015911	
12796	    0	16.231837	-12.251727	-0.488016	-2.472078	1.050442	-2.776509	0.160573	-0.124809	-0.004193	0.999813	-0.012360	0.005252	-0.013882	
12797	    0	13.974736	-14.407919	-0.655565	-1.550932	1.062820	-2.610128	0.137817	-0.145935	-0.006165	0.999870	-0.007754	0.005314	-0.013050	
12798	    0	11.572053	-15.220586	-2.514208	-0.749996	0.920137	-2.654932	0.113570	-0.153817	-0.025093	0.999894	-0.003750	0.004601	-0.013274	
12799	    0	7.920248	-13.005191	-3.768592	-0.376903	0.561730	-2.513193	0.077454	-0.131104	-0.037659	0.999915	-0.001884	0.002809	-0.012566	
12800	    0	4.571942	-9.172991	-4.969972	-0.072481	0.275617	-2.141040	0.044665	-0.092230	-0.049728	0.999941	-0.000362	0.001378	-0.010705	
12801	    0	2.947556	-8.516677	-6.088485	0.241855	0.325970	-1.617450	0.028687	-0.085327	-0.061035	0.999965	0.001209	0.001630	-0.008087	
12802	    0	3.043489	-12.917751	-5.464880	0.308229	0.297929	-1.045996	0.029677	-0.129250	-0.054893	0.999984	0.001541	0.001490	-0.005230	
12803	    0	4.577634	-9.866860	-4.486251	0.385286	0.229836	-0.760653	0.045349	-0.098755	-0.045105	0.999990	0.001926	0.001149	-0.003803	
12804	    0	5.885493	-1.562978	-2.940409	0.238228	0.152207	-0.634958	0.058783	-0.015781	-0.029468	0.999993	0.001191	0.000761	-0.003175	
12805	    0	5.911803	0.884726	-2.257890	-0.247956	-0.022697	-0.514985	0.059143	0.008667	-0.022583	0.999995	-0.001240	-0.000113	-0.002575	
12806	    0	6.108170	-1.003606	-2.266154	-0.602342	-0.225449	-0.477983	0.061083	-0.010250	-0.022562	0.999991	-0.003012	-0.001127	-0.002390	
12807	    0	5.946381	-1.952354	-1.701279	-0.736239	-0.318719	-0.432588	0.059448	-0.019714	-0.016846	0.999990	-0.003681	-0.001594	-0.002163	
12808	    0	6.214155	-2.971368	-1.159555	-0.654413	-0.296403	-0.358010	0.062105	-0.029862	-0.011406	0.999991	-0.003272	-0.001482	-0.001790	
12809	    0	6.530487	-3.793470	-1.260698	-0.515557	-0.177002	-0.364686	0.065247	-0.038086	-0.012451	0.999994	-0.002578	-0.000885	-0.001823	
12810	    0	5.821421	-3.567229	-1.132638	-0.475693	-0.093079	-0.360108	0.058155	-0.035804	-0.011214	0.999995	-0.002378	-0.000465	-0.001801	
12811	    0	4.813426	-3.390986	-1.066206	-0.497437	-0.076866	-0.251007	0.048096	-0.033997	-0.010559	0.999995	-0.002487	-0.000384	-0.001255	
12812	    0	4.341048	-3.426668	-1.487472	-0.420952	-0.046539	-0.026703	0.043409	-0.034304	-0.014792	0.999997	-0.002105	-0.000233	-0.000134	
12813	    0	4.552534	-4.489946	-1.704793	-0.331116	-0.025749	0.292969	0.045593	-0.044861	-0.016968	0.999997	-0.001656	-0.000129	0.001465	
12814	    0	5.214633	-5.672933	-0.919768	-0.355531	0.058746	0.627901	0.052321	-0.056581	-0.009112	0.999993	-0.001778	0.000294	0.003139	
12815	    0	5.403461	-6.000980	-0.258297	-0.402071	0.146676	0.964360	0.054321	-0.059753	-0.002502	0.999986	-0.002010	0.000733	0.004822	
12816	    0	5.538143	-5.559285	0.003916	-0.453953	0.215341	1.306926	0.055743	-0.055229	0.000105	0.999975	-0.002270	0.001077	0.006535	
12817	    0	6.562054	-4.194980	0.016753	-0.460822	0.243572	1.723504	0.065979	-0.041382	0.000183	0.999959	-0.002304	0.001218	0.008617	
12818	    0	8.284391	-3.165240	-0.400326	-0.445565	0.220112	2.127117	0.083170	-0.030778	-0.004025	0.999940	-0.002228	0.001101	0.010635	
12819	    0	10.374138	-2.816503	-2.146159	-0.298317	0.122264	2.463595	0.104065	-0.026917	-0.021484	0.999923	-0.001492	0.000611	0.012318	
12820	    0	14.574033	-4.072501	-5.308971	0.208288	-0.050546	2.483814	0.146244	-0.038856	-0.053094	0.999922	0.001041	-0.000253	0.012419	
12821	    0	19.479684	-5.197496	-8.262731	0.868246	-0.333985	2.230889	0.195496	-0.049438	-0.082520	0.999927	0.004341	-0.001670	0.011154	
12822	    0	23.201119	-5.726567	-10.047680	1.602223	-0.465789	2.174064	0.232843	-0.053933	-0.100376	0.999906	0.008011	-0.002329	0.010870	
12823	    0	25.825905	-4.902513	-10.485741	2.124299	-0.379959	2.216427	0.258972	-0.045044	-0.104858	0.999880	0.010621	-0.001900	0.011082	
12824	    0	26.254978	-0.919752	-8.580808	2.223687	-0.191316	2.415384	0.262710	-0.005073	-0.085629	0.999865	0.011118	-0.000957	0.012076	
12825	    0	25.804378	2.989463	-5.904251	1.966187	-0.288977	2.687961	0.257690	0.033936	-0.058350	0.999860	0.009830	-0.001445	0.013439	
12826	    0	25.283721	5.195093	-5.566539	1.584325	-0.512340	3.080525	0.252133	0.056273	-0.054585	0.999846	0.007921	-0.002562	0.015402	
12827	    0	24.797004	5.959465	-5.590944	1.117964	-0.753829	3.531094	0.247070	0.064270	-0.054626	0.999821	0.005589	-0.003769	0.017654	
12828	    0	23.839371	5.841539	-5.036655	0.649115	-0.991890	3.888779	0.237441	0.063199	-0.048987	0.999793	0.003245	-0.004959	0.019443	
12829	    0	22.862834	4.715000	-4.290859	0.361088	-1.312352	3.972918	0.227905	0.051758	-0.041321	0.999779	0.001805	-0.006561	0.019863	
12830	    0	20.636987	3.826200	-4.583751	0.390845	-1.409825	3.941063	0.205877	0.042410	-0.044305	0.999779	0.001954	-0.007049	0.019704	
12831	    0	18.129337	3.910182	-3.661078	0.922650	-1.261229	3.822598	0.180725	0.042725	-0.035278	0.999786	0.004613	-0.006306	0.019112	
12832	    0	16.543312	5.085297	-3.079574	1.473910	-1.009820	3.655304	0.164616	0.054088	-0.029572	0.999793	0.007369	-0.005049	0.018275	
12833	    0	15.266649	8.003995	-2.367820	1.937431	-0.798854	3.540289	0.151306	0.082947	-0.022278	0.999788	0.009686	-0.003994	0.017700	
12834	    0	13.896864	10.722204	-1.732775	2.040426	-0.828798	3.331597	0.137222	0.109683	-0.015646	0.999800	0.010201	-0.004144	0.016657	
12835	    0	12.299781	11.650075	-1.453261	1.838215	-0.937705	3.028276	0.121277	0.118469	-0.012878	0.999832	0.009191	-0.004688	0.015141	
12836	    0	10.289578	11.033518	-0.708263	1.739395	-1.045659	2.716958	0.101416	0.111773	-0.005582	0.999856	0.008697	-0.005228	0.013584	
12837	    0	8.212338	10.283958	-0.443687	1.649731	-1.156662	2.340791	0.080933	0.103821	-0.003113	0.999880	0.008248	-0.005783	0.011703	
12838	    0	6.205868	11.121624	-0.704589	1.551486	-1.091037	1.969590	0.060993	0.111869	-0.005845	0.999906	0.007757	-0.005455	0.009848	
12839	    0	4.099931	12.884436	0.265624	1.624529	-0.698870	1.658671	0.039917	0.129150	0.003845	0.999926	0.008122	-0.003494	0.008293	
12840	    0	1.991034	14.397110	1.556549	1.543264	-0.272374	1.413753	0.018870	0.143981	0.016703	0.999944	0.007716	-0.001362	0.007069	
12841	    0	0.897882	15.369741	3.588200	1.683267	0.090029	1.302362	0.007996	0.153442	0.037170	0.999943	0.008416	0.000450	0.006512	
12842	    0	0.195878	17.459767	2.719917	1.494621	0.225071	1.182956	0.000958	0.174396	0.028502	0.999953	0.007473	0.001125	0.005915	
12843	    0	-0.648040	20.320302	1.006289	0.781256	0.217630	1.022346	-0.007507	0.203125	0.010864	0.999978	0.003906	0.001088	0.005112	
12844	    0	-0.605258	20.388704	0.699710	-0.369645	0.293542	0.786593	-0.006845	0.203874	0.006630	0.999989	-0.001848	0.001468	0.003933	
12845	    0	-0.578197	17.228990	1.066428	-1.763941	0.366407	0.393682	-0.006104	0.172363	0.009155	0.999957	-0.008820	0.001832	0.001968	
12846	    0	-1.366173	15.815863	-0.183184	-2.973858	0.325978	-0.033952	-0.013640	0.158111	-0.004161	0.999887	-0.014869	0.001630	-0.000170	
12847	    0	-1.556076	12.584610	0.338972	-3.176063	0.173958	-0.476858	-0.015259	0.125916	0.001404	0.999870	-0.015880	0.000870	-0.002384	
12848	    0	-1.163420	8.720153	2.385069	-2.894520	-0.618769	-1.018184	-0.011260	0.087592	0.022550	0.999877	-0.014472	-0.003094	-0.005091	
12849	    0	0.791192	5.645802	2.122950	-2.356825	-1.660040	-1.554177	0.008179	0.056641	0.020630	0.999866	-0.011784	-0.008300	-0.007771	
12850	    0	4.079262	0.409786	-1.445273	-1.785364	-2.190504	-1.879401	0.040983	0.003587	-0.014038	0.999856	-0.008926	-0.010952	-0.009397	
12851	    0	7.311503	-6.473652	-7.388235	-1.020841	-1.173242	-2.044734	0.072876	-0.065857	-0.073120	0.999917	-0.005104	-0.005866	-0.010223	
12852	    0	11.136385	-14.943162	-5.319486	-0.542081	0.710503	-2.151156	0.109558	-0.150761	-0.053179	0.999931	-0.002710	0.003552	-0.010756	
12853	    0	14.496154	-26.641731	2.619541	0.396930	1.574750	-1.976067	0.142517	-0.267883	0.024536	0.999918	0.001985	0.007874	-0.009880	
12854	    0	14.475401	-31.044911	1.284231	2.418029	0.715852	-1.360749	0.142673	-0.311545	0.008567	0.999897	0.012090	0.003579	-0.006804	
12855	    0	14.296721	-29.392568	-13.968844	2.715388	-0.324832	-0.423445	0.142578	-0.292297	-0.143433	0.999904	0.013577	-0.001624	-0.002117	
12856	    0	12.798425	-23.810594	-20.442979	1.574349	1.035897	0.186923	0.127138	-0.236364	-0.206955	0.999954	0.007872	0.005179	0.000935	
12857	    0	8.291252	-15.167932	-9.670699	1.487782	2.392087	0.467698	0.082092	-0.150757	-0.098816	0.999898	0.007439	0.011960	0.002338	
12858	    0	3.285122	-7.359192	0.255031	1.585623	1.957948	0.588815	0.033087	-0.073510	0.001644	0.999916	0.007928	0.009789	0.002944	
12859	    0	-0.058787	0.069568	2.318614	1.774629	0.873772	0.621807	-0.000488	0.000488	0.023193	0.999946	0.008873	0.004369	0.003109	
12860	    0	-1.422108	9.301920	3.454346	2.216959	0.247961	0.466738	-0.014394	0.092595	0.035589	0.999934	0.011085	0.001240	0.002334	
12861	    0	0.702781	11.030159	5.498095	2.248430	0.084879	0.170139	0.006958	0.109680	0.056213	0.999936	0.011242	0.000424	0.000851	
12862	    0	6.720629	9.478516	2.801039	1.968225	0.169185	-0.219349	0.067334	0.094430	0.028884	0.999950	0.009841	0.000846	-0.001097	
12863	    0	14.824684	2.603989	-6.633168	-0.452425	-0.717738	-0.591281	0.148560	0.025452	-0.065857	0.999986	-0.002262	-0.003589	-0.002956	
12864	    0	24.675394	-7.094376	-19.910372	-0.559809	-0.802997	0.002289	0.247551	-0.071496	-0.197911	0.999988	-0.002799	-0.004015	0.000011	
12865	    0	22.427277	14.937677	-2.341536	0.699622	-0.820740	-1.068125	0.225159	0.148254	-0.021973	0.999970	0.003498	-0.004104	-0.005341	
12866	    0	10.503425	36.175227	-7.590245	1.575122	-0.765244	-1.408607	0.107863	0.361580	-0.072645	0.999936	0.007875	-0.003826	-0.007043	
12867	    0	10.124228	26.858285	-1.912028	-1.290939	-0.656723	-2.516263	0.104675	0.267151	-0.020508	0.999894	-0.006454	-0.003284	-0.012581	
12868	    0	14.289661	29.387653	-1.930412	-2.958194	-0.142492	-3.713575	0.148332	0.290829	-0.023517	0.999718	-0.014790	-0.000712	-0.018566	
12869	    0	20.128304	31.289111	-3.888622	-2.998569	0.233491	-4.856007	0.208740	0.307251	-0.043762	0.999592	-0.014991	0.001167	-0.024277	
12870	    0	24.837963	21.357928	-1.976891	-2.814432	0.540224	-4.458759	0.252994	0.207661	-0.023398	0.999648	-0.014071	0.002701	-0.022291	
12871	    0	29.171142	-5.435812	-0.608589	-1.422219	0.170338	-3.847011	0.290588	-0.059998	-0.005920	0.999789	-0.007111	0.000852	-0.019234	
12872	    0	34.410515	-1.876815	1.500982	0.911969	-0.030138	-4.070196	0.343625	-0.025833	0.014955	0.999782	0.004560	-0.000151	-0.020350	
12873	    0	27.088227	2.125676	-1.326094	-0.166904	-0.067906	-4.011042	0.271240	0.015808	-0.013184	0.999798	-0.000834	-0.000340	-0.020054	
12874	    0	25.000208	3.367503	-0.770030	-2.428639	0.240346	-3.748634	0.250564	0.028883	-0.008371	0.999749	-0.012142	0.001202	-0.018742	
12875	    0	24.879934	-1.039971	-0.703252	-3.332096	0.562534	-3.613650	0.248535	-0.015015	-0.007507	0.999694	-0.016659	0.002812	-0.018066	
12876	    0	21.482246	-4.016723	-1.431468	-3.351539	0.733829	-3.417731	0.214039	-0.044070	-0.014384	0.999706	-0.016756	0.003669	-0.017087	
12877	    0	18.140367	-6.474429	-3.943370	-3.457765	0.737066	-3.051272	0.180237	-0.068176	-0.038940	0.999727	-0.017287	0.003685	-0.015255	
12878	    0	15.850825	-9.836165	-4.315750	-3.493220	0.849413	-2.676425	0.156986	-0.101211	-0.042075	0.999748	-0.017465	0.004247	-0.013381	
12879	    0	12.194817	-14.295978	-5.138340	-2.862724	0.809719	-2.422481	0.119995	-0.145142	-0.049805	0.999816	-0.014313	0.004048	-0.012112	
12880	    0	8.306475	-18.335261	-5.416629	-1.827308	0.629639	-2.285089	0.080791	-0.184771	-0.052739	0.999887	-0.009136	0.003148	-0.011425	
12881	    0	6.733427	-18.637496	-5.371509	-0.947592	0.267988	-2.091264	0.065308	-0.187317	-0.052917	0.999932	-0.004738	0.001340	-0.010456	
12882	    0	5.144707	-14.768201	-5.395920	-0.532730	0.098993	-1.739335	0.050133	-0.148265	-0.053590	0.999958	-0.002664	0.000495	-0.008697	
12883	    0	4.266953	-13.317235	-4.747575	-0.213434	0.141908	-1.239785	0.041809	-0.133484	-0.047363	0.999979	-0.001067	0.000710	-0.006199	
12884	    0	5.306780	-13.167250	-3.541944	0.126076	0.177002	-0.766565	0.052531	-0.131852	-0.035549	0.999991	0.000630	0.000885	-0.003833	
12885	    0	6.122779	-6.371560	-4.049824	0.129128	0.160217	-0.502015	0.061035	-0.063843	-0.040588	0.999996	0.000646	0.000801	-0.002510	
12886	    0	6.630364	-0.231735	-2.971027	-0.360108	0.095368	-0.431443	0.066284	-0.002514	-0.029737	0.999995	-0.001801	0.000477	-0.002157	
12887	    0	6.354098	-0.475466	-1.384522	-0.938992	-0.089264	-0.391390	0.063538	-0.004944	-0.013794	0.999987	-0.004695	-0.000446	-0.001957	
12888	    0	6.474498	-2.241445	-1.033396	-1.264200	-0.287440	-0.383952	0.064716	-0.022603	-0.010098	0.999977	-0.006321	-0.001437	-0.001920	
12889	    0	6.808305	-2.670514	-1.382184	-1.210794	-0.321772	-0.378421	0.068054	-0.026917	-0.013550	0.999978	-0.006054	-0.001609	-0.001892	
12890	    0	7.353452	-3.047521	-1.853093	-0.796511	-0.099182	-0.393106	0.073483	-0.030693	-0.018373	0.999990	-0.003983	-0.000496	-0.001966	
12891	    0	6.637432	-4.012600	-1.881728	-0.329399	0.144196	-0.380707	0.066284	-0.040283	-0.018799	0.999996	-0.001647	0.000721	-0.001904	
12892	    0	4.968747	-4.966618	-1.688689	-0.039864	0.250626	-0.302506	0.049591	-0.049745	-0.016939	0.999997	-0.000199	0.001253	-0.001513	
12893	    0	3.449203	-5.541395	-1.850708	0.241280	0.242615	-0.164795	0.034424	-0.055420	-0.018616	0.999998	0.001206	0.001213	-0.000824	
12894	    0	2.946466	-5.872530	-2.230389	0.513840	0.262833	0.042152	0.029448	-0.058661	-0.022493	0.999995	0.002569	0.001314	0.000211	
12895	    0	3.221653	-6.078842	-2.924695	0.843242	0.237275	0.349428	0.032288	-0.060608	-0.029541	0.999989	0.004216	0.001186	0.001747	
12896	    0	4.207849	-6.845967	-2.839838	1.039894	0.253107	0.789648	0.042312	-0.068144	-0.028807	0.999977	0.005199	0.001266	0.003948	
12897	    0	5.561101	-6.709792	-1.627174	0.902758	0.319675	1.334396	0.056030	-0.066650	-0.016663	0.999966	0.004514	0.001598	0.006672	
12898	    0	6.697465	-5.609546	0.130640	0.411231	0.333791	1.880676	0.067500	-0.055465	0.001080	0.999951	0.002056	0.001669	0.009403	
12899	    0	8.162112	-4.497412	1.178066	-0.173954	0.245100	2.336175	0.082153	-0.044006	0.011719	0.999930	-0.000870	0.001225	0.011681	
12900	    0	10.668341	-3.979826	0.694434	-0.494400	0.239380	2.665030	0.107209	-0.038355	0.006912	0.999907	-0.002472	0.001197	0.013325	
12901	    0	13.287375	-4.155122	-0.206568	-0.512712	0.261125	2.735990	0.133423	-0.039734	-0.002136	0.999902	-0.002563	0.001306	0.013680	
12902	    0	15.215296	-4.582476	-2.210384	-0.213629	0.207907	2.667889	0.152723	-0.043814	-0.022215	0.999909	-0.001068	0.001040	0.013339	
12903	    0	18.593120	-4.702093	-5.107469	0.580614	0.002480	2.617724	0.186523	-0.044434	-0.051208	0.999909	0.002903	0.000012	0.013088	
12904	    0	22.879842	-5.461437	-6.980376	1.631420	-0.120931	2.610882	0.229523	-0.051050	-0.070091	0.999881	0.008157	-0.000605	0.013054	
12905	    0	26.620047	-5.140002	-8.536477	2.302100	-0.125129	2.700185	0.266907	-0.046814	-0.085754	0.999842	0.011510	-0.000626	0.013500	
12906	    0	28.781820	-4.099310	-8.225615	2.588999	-0.061993	2.756665	0.288363	-0.035953	-0.082654	0.999821	0.012944	-0.000310	0.013783	
12907	    0	28.282564	-0.586422	-7.395891	2.362202	-0.095945	2.968013	0.282898	-0.000793	-0.073853	0.999820	0.011810	-0.000480	0.014839	
12908	    0	26.617822	3.845220	-6.777344	1.999223	-0.212493	3.420863	0.265532	0.043671	-0.067072	0.999803	0.009995	-0.001062	0.017103	
12909	    0	25.369801	6.501536	-6.496995	1.346873	-0.381496	3.846246	0.252502	0.070312	-0.064026	0.999790	0.006734	-0.001907	0.019230	
12910	    0	23.876697	8.204058	-5.919000	0.658653	-0.675058	3.983776	0.237265	0.086969	-0.058106	0.999790	0.003293	-0.003375	0.019917	
12911	    0	20.814905	7.799886	-4.980382	0.157368	-0.939247	4.090419	0.206726	0.082275	-0.048767	0.999779	0.000787	-0.004696	0.020451	
12912	    0	17.621816	6.472953	-4.318540	0.087173	-1.145263	4.217865	0.175044	0.068448	-0.042151	0.999761	0.000436	-0.005726	0.021088	
12913	    0	16.343532	5.417048	-3.249537	0.479351	-1.288697	3.914923	0.162537	0.057434	-0.031311	0.999784	0.002397	-0.006443	0.019573	
12914	    0	15.037976	5.156637	-2.943761	0.946294	-1.405612	3.451942	0.149659	0.054289	-0.028131	0.999815	0.004731	-0.007028	0.017259	
12915	    0	14.741105	6.652873	-2.972865	1.410750	-1.429634	2.964941	0.146606	0.068909	-0.028198	0.999839	0.007053	-0.007148	0.014824	
12916	    0	13.612562	8.800160	-3.477374	1.525567	-1.426190	2.570270	0.135218	0.090000	-0.033126	0.999863	0.007627	-0.007131	0.012851	
12917	    0	11.384764	11.350546	-3.279223	1.503049	-1.312879	2.311796	0.112732	0.115051	-0.031189	0.999883	0.007515	-0.006564	0.011559	
12918	    0	8.857447	13.315329	-1.738300	1.488926	-1.071202	2.141833	0.087229	0.134214	-0.015917	0.999900	0.007444	-0.005356	0.010709	
12919	    0	5.111229	14.378824	0.134366	1.475760	-0.867488	2.055420	0.049622	0.144287	0.002625	0.999910	0.007379	-0.004337	0.010277	
12920	    0	3.192337	13.843627	1.634286	1.455344	-0.799771	1.809547	0.030602	0.138593	0.017475	0.999924	0.007277	-0.003999	0.009048	
12921	    0	2.361692	13.037714	1.975425	1.130123	-0.677501	1.480127	0.022583	0.130432	0.020569	0.999950	0.005651	-0.003387	0.007401	
12922	    0	1.730869	13.774111	1.461129	0.965320	-0.361828	1.234831	0.016431	0.137772	0.015306	0.999968	0.004827	-0.001809	0.006174	
12923	    0	2.023235	14.914836	2.790234	1.464864	0.026131	1.109330	0.019409	0.149048	0.028992	0.999957	0.007324	0.000131	0.005547	
12924	    0	1.165735	17.708080	1.261158	1.237691	0.037384	0.961123	0.010809	0.177052	0.013705	0.999969	0.006188	0.000187	0.004806	
12925	    0	0.381937	22.433340	-1.274467	0.315095	-0.065422	0.742342	0.002991	0.224365	-0.012390	0.999991	0.001575	-0.000327	0.003712	
12926	    0	1.064568	20.107421	0.038197	-1.075560	0.047493	0.544170	0.010098	0.201100	-0.000702	0.999981	-0.005378	0.000237	0.002721	
12927	    0	0.647065	17.236898	0.557470	-2.425254	0.157169	0.146488	0.006348	0.172424	0.003479	0.999926	-0.012126	0.000786	0.000732	
12928	    0	-0.220808	15.661367	0.480998	-2.935136	0.373663	-0.296985	-0.001969	0.156665	0.002515	0.999889	-0.014675	0.001868	-0.001485	
12929	    0	0.385196	12.715722	2.980824	-2.517774	0.299272	-0.784325	0.004395	0.127502	0.028198	0.999911	-0.012589	0.001496	-0.003922	
12930	    0	1.654558	9.548060	4.450004	-2.053124	-0.411235	-1.395644	0.017123	0.095813	0.043552	0.999921	-0.010265	-0.002056	-0.006978	
12931	    0	2.367113	6.272723	2.524351	-1.918097	-1.155703	-1.854771	0.024109	0.062744	0.024780	0.999894	-0.009590	-0.005778	-0.009274	
12932	    0	3.940684	0.746488	-3.120885	-1.934331	-1.774678	-2.025316	0.039753	0.006763	-0.030925	0.999862	-0.009671	-0.008873	-0.010126	
12933	    0	6.899597	-6.536605	-11.490993	-1.615776	-1.393943	-2.107318	0.069092	-0.067017	-0.113892	0.999887	-0.008079	-0.006969	-0.010536	
12934	    0	10.478652	-14.775110	-9.046509	-1.085502	0.165372	-2.332370	0.102976	-0.149447	-0.089743	0.999916	-0.005427	0.000827	-0.011662	
12935	    0	14.870362	-24.751266	2.512591	-0.097468	0.968196	-2.323212	0.145935	-0.249207	0.024536	0.999920	-0.000487	0.004841	-0.011616	
12936	    0	16.385109	-27.962852	4.115106	2.165485	0.736261	-1.648385	0.161679	-0.281386	0.037513	0.999900	0.010827	0.003681	-0.008242	
12937	    0	16.165784	-30.077303	-14.762610	2.802373	0.036813	-0.657677	0.160645	-0.299194	-0.151855	0.999896	0.014011	0.000184	-0.003288	
12938	    0	14.645586	-27.361427	-21.813999	1.617658	1.635969	0.060464	0.144735	-0.271788	-0.221532	0.999933	0.008088	0.008180	0.000302	
12939	    0	8.545541	-16.471191	-6.848857	1.581839	2.959583	0.365465	0.084717	-0.164001	-0.071045	0.999857	0.007909	0.014797	0.001827	
12940	    0	3.375673	-7.454844	3.045849	1.549961	2.244831	0.520151	0.034286	-0.074691	0.029497	0.999903	0.007750	0.011224	0.002601	
12941	    0	0.051763	0.413593	3.359912	1.740487	0.984973	0.599681	0.000671	0.003845	0.033630	0.999945	0.008702	0.004925	0.002998	
12942	    0	-1.608566	6.757635	2.679836	2.185677	0.107004	0.485049	-0.016234	0.067239	0.027543	0.999937	0.010928	0.000535	0.002425	
12943	    0	1.268604	8.230867	5.230310	2.588155	0.272377	-0.293740	0.012878	0.081604	0.053345	0.999914	0.012940	0.001362	-0.001469	
12944	    0	10.877979	10.820631	4.713218	0.305558	-0.072670	-0.873950	0.109234	0.107657	0.047337	0.999989	0.001528	-0.000363	-0.004370	
12945	    0	21.155468	3.014293	-18.001760	-0.372316	-0.766566	-0.252534	0.212280	0.029541	-0.179260	0.999990	-0.001862	-0.003833	-0.001263	
12946	    0	18.574454	4.425707	-16.974607	-0.184632	-0.907903	-0.624469	0.186649	0.043519	-0.168941	0.999984	-0.000923	-0.004539	-0.003122	
12947	    0	13.039342	22.892938	-15.142221	0.726330	-1.228925	-1.361106	0.132874	0.228577	-0.149780	0.999951	0.003632	-0.006145	-0.006805	
12948	    0	8.399392	20.054797	-7.703696	-0.341041	-1.037429	-1.992650	0.086385	0.199564	-0.076934	0.999935	-0.001705	-0.005187	-0.009963	
12949	    0	12.064447	20.800498	-2.372776	-1.496970	-0.504903	-3.270901	0.124084	0.205811	-0.024963	0.999835	-0.007484	-0.002524	-0.016354	
12950	    0	21.689327	24.880758	1.732529	-2.574268	-0.227573	-4.623381	0.222552	0.243904	0.014416	0.999649	-0.012870	-0.001138	-0.023114	
12951	    0	27.551124	30.389420	1.012912	-1.335127	0.141925	-5.429022	0.283630	0.296326	0.007935	0.999609	-0.006675	0.000710	-0.027142	
12952	    0	23.290308	15.300851	3.114163	-1.374751	0.300626	-4.459024	0.236285	0.147973	0.029759	0.999726	-0.006873	0.001503	-0.022293	
12953	    0	26.782889	1.781111	2.089892	-0.586551	0.078588	-4.090410	0.268127	0.012390	0.020752	0.999786	-0.002933	0.000393	-0.020451	
12954	    0	35.881115	6.377451	4.414866	0.562518	0.261135	-4.140966	0.360085	0.056204	0.043844	0.999781	0.002812	0.001306	-0.020703	
12955	    0	28.776212	-1.589246	-1.350805	-1.515124	0.133525	-4.030921	0.287354	-0.021790	-0.013550	0.999767	-0.007575	0.000668	-0.020153	
12956	    0	26.841690	-0.655391	-1.320740	-3.179516	0.401159	-3.996523	0.268185	-0.012129	-0.013582	0.999672	-0.015896	0.002006	-0.019980	
12957	    0	24.549893	-2.490471	-2.784268	-3.843204	0.684440	-3.741911	0.244873	-0.030029	-0.028137	0.999634	-0.019214	0.003422	-0.018707	
12958	    0	20.149266	-7.551708	-2.718402	-3.957836	0.760359	-3.494868	0.200025	-0.079549	-0.026399	0.999644	-0.019787	0.003801	-0.017472	
12959	    0	15.867918	-12.713444	-4.876224	-3.878229	0.711896	-3.023077	0.156555	-0.130432	-0.046814	0.999691	-0.019389	0.003559	-0.015114	
12960	    0	12.020121	-17.676142	-4.831861	-3.253801	0.817742	-2.620513	0.117674	-0.179074	-0.045902	0.999773	-0.016268	0.004088	-0.013102	
12961	    0	8.381701	-20.150457	-3.016578	-2.249246	0.749431	-2.261454	0.081421	-0.202759	-0.028198	0.999866	-0.011246	0.003747	-0.011307	
12962	    0	7.418407	-19.541540	-2.676210	-1.419294	0.417529	-1.963474	0.072206	-0.196315	-0.025523	0.999924	-0.007096	0.002088	-0.009817	
12963	    0	6.251703	-15.784162	-4.706120	-0.894751	0.109865	-1.685359	0.061157	-0.158569	-0.046387	0.999954	-0.004474	0.000549	-0.008427	
12964	    0	4.858895	-12.433193	-5.762570	-0.591664	0.118066	-1.260386	0.047770	-0.124804	-0.057285	0.999975	-0.002958	0.000590	-0.006302	
12965	    0	5.304699	-11.934548	-4.789161	-0.369836	0.223542	-0.740054	0.052551	-0.119629	-0.047729	0.999990	-0.001849	0.001118	-0.003700	
12966	    0	6.004858	-8.270951	-3.770614	-0.174523	0.261116	-0.379753	0.059842	-0.082856	-0.037712	0.999996	-0.000873	0.001306	-0.001899	
12967	    0	6.603783	-2.246068	-2.718035	-0.192261	0.190926	-0.291443	0.065979	-0.022583	-0.027222	0.999997	-0.000961	0.000955	-0.001457	
12968	    0	6.422610	-1.123981	-1.868679	-0.555993	-0.054932	-0.257874	0.064217	-0.011374	-0.018638	0.999995	-0.002780	-0.000275	-0.001289	
12969	    0	6.103353	-2.069933	-1.180756	-0.970463	-0.360681	-0.186921	0.061035	-0.020813	-0.011597	0.999986	-0.004852	-0.001803	-0.000935	
12970	    0	6.053487	-2.354162	-1.189698	-1.148994	-0.471500	-0.107957	0.060550	-0.023642	-0.011619	0.999980	-0.005745	-0.002357	-0.000540	
12971	    0	6.938737	-2.582808	-1.357176	-1.116950	-0.350000	-0.106812	0.069397	-0.025940	-0.013306	0.999982	-0.005585	-0.001750	-0.000534	
12972	    0	7.705367	-3.143630	-1.015806	-0.753405	-0.042153	-0.192833	0.077025	-0.031549	-0.010023	0.999992	-0.003767	-0.000211	-0.000964	
12973	    0	6.932083	-3.787896	-0.458608	-0.348664	0.166512	-0.222016	0.069275	-0.037964	-0.004578	0.999997	-0.001743	0.000833	-0.001110	
12974	    0	5.636948	-4.355815	-1.075315	-0.049210	0.209045	-0.139427	0.056328	-0.043600	-0.010801	0.999999	-0.000246	0.001045	-0.000697	
12975	    0	4.786694	-4.720562	-1.605429	0.261116	0.244141	0.018311	0.047852	-0.047180	-0.016174	0.999998	0.001306	0.001221	0.000092	
12976	    0	4.318817	-4.963780	-1.380756	0.472642	0.286293	0.280190	0.043238	-0.049544	-0.013987	0.999994	0.002363	0.001431	0.001401	
12977	    0	4.530326	-5.578456	-1.013529	0.588419	0.338746	0.666049	0.045471	-0.055603	-0.010376	0.999989	0.002942	0.001694	0.003330	
12978	    0	5.177967	-6.755159	-0.851312	0.592236	0.444606	1.114281	0.052135	-0.067236	-0.008828	0.999977	0.002961	0.002223	0.005571	
12979	    0	5.385547	-6.690065	-0.094803	0.428014	0.480086	1.589985	0.054382	-0.066467	-0.001221	0.999963	0.002140	0.002400	0.007950	
12980	    0	6.155301	-5.282014	0.295157	0.164416	0.418289	2.037467	0.062093	-0.052192	0.002779	0.999945	0.000822	0.002091	0.010187	
12981	    0	8.536227	-4.567370	-0.466262	0.016785	0.362595	2.323204	0.085876	-0.044678	-0.004822	0.999930	0.000084	0.001813	0.011616	
12982	    0	10.786718	-4.487325	-0.615480	0.050165	0.383579	2.559352	0.108418	-0.043487	-0.006373	0.999916	0.000251	0.001918	0.012796	
12983	    0	13.080203	-4.330630	-0.631134	0.154881	0.377857	2.647479	0.131348	-0.041565	-0.006592	0.999909	0.000774	0.001889	0.013237	
12984	    0	14.583393	-3.264418	-1.959488	0.366985	0.270280	2.686584	0.146228	-0.030645	-0.019850	0.999907	0.001835	0.001351	0.013433	
12985	    0	18.050928	-3.093113	-4.114000	0.774599	-0.060274	2.644432	0.180908	-0.028381	-0.041199	0.999905	0.003873	-0.000301	0.013222	
12986	    0	23.384456	-3.418744	-6.612725	1.188885	-0.351535	2.326079	0.234334	-0.031072	-0.065907	0.999912	0.005944	-0.001758	0.011630	
12987	    0	25.722731	-2.697591	-8.033453	1.518305	-0.390449	2.512451	0.257690	-0.023132	-0.080017	0.999890	0.007591	-0.001952	0.012562	
12988	    0	27.370487	-1.680118	-8.774152	1.719750	-0.350397	2.957871	0.274059	-0.011997	-0.087379	0.999851	0.008598	-0.001752	0.014789	
12989	    0	27.165788	0.199293	-8.578424	1.622876	-0.257699	3.548658	0.271667	0.007507	-0.085388	0.999808	0.008114	-0.001288	0.017742	
12990	    0	26.748007	3.697843	-7.697924	1.500430	-0.373868	3.883072	0.266830	0.042737	-0.076174	0.999782	0.007502	-0.001869	0.019414	
12991	    0	26.171313	6.343617	-7.491452	1.012688	-0.599716	4.093480	0.260559	0.069153	-0.073792	0.999773	0.005063	-0.002998	0.020466	
12992	    0	24.438353	8.407451	-6.812906	0.456656	-0.879931	4.284632	0.242802	0.089441	-0.066858	0.999758	0.002283	-0.004399	0.021421	
12993	    0	22.154811	9.246832	-5.791233	0.145734	-1.201543	4.393386	0.219788	0.097351	-0.056519	0.999740	0.000729	-0.006007	0.021965	
12994	    0	18.818888	8.000554	-5.145674	0.094804	-1.425492	4.459407	0.186703	0.084204	-0.050083	0.999725	0.000474	-0.007127	0.022295	
12995	    0	16.223649	6.511155	-3.648889	0.518079	-1.434255	4.211015	0.161072	0.068604	-0.035156	0.999749	0.002590	-0.007171	0.021053	
12996	    0	14.417295	5.566153	-2.357329	1.101761	-1.393796	3.665796	0.143277	0.058418	-0.022256	0.999792	0.005508	-0.006968	0.018328	
12997	    0	12.920155	7.328344	-2.109469	1.574798	-1.327401	3.108395	0.128174	0.075439	-0.019653	0.999825	0.007874	-0.006637	0.015541	
12998	    0	11.452897	10.173932	-2.325024	1.772204	-1.232398	2.657829	0.113298	0.103447	-0.021638	0.999853	0.008861	-0.006162	0.013288	
12999	    0	10.733012	12.332379	-2.072576	1.618260	-1.157998	2.392675	0.105957	0.124756	-0.019104	0.999879	0.008091	-0.005790	0.011963	
13000	    0	9.476004	13.956271	-0.683744	1.491978	-1.027905	2.189710	0.093254	0.140633	-0.005309	0.999899	0.007460	-0.005139	0.010948	
13001	    0	7.145175	13.854652	0.233077	1.209291	-1.045827	1.966911	0.070068	0.139221	0.003540	0.999919	0.006046	-0.005229	0.009834	
13002	    0	5.214770	12.722705	0.427443	1.004622	-1.080917	1.686131	0.051046	0.127636	0.005193	0.999937	0.005023	-0.005404	0.008430	
13003	    0	3.704565	13.037968	1.291935	1.226255	-0.744642	1.415277	0.036072	0.130554	0.013855	0.999949	0.006131	-0.003723	0.007076	
13004	    0	2.428268	14.416194	2.243340	1.800572	-0.268751	1.178383	0.023402	0.144092	0.023763	0.999941	0.009003	-0.001344	0.005892	
13005	    0	1.513588	15.448712	2.562418	1.982348	-0.088503	1.011679	0.014343	0.154297	0.027161	0.999937	0.009912	-0.000443	0.005058	
13006	    0	1.113255	18.188992	0.553963	1.200687	-0.165750	0.808341	0.010392	0.181895	0.006640	0.999973	0.006003	-0.000829	0.004042	
13007	    0	1.019725	19.114295	0.271008	0.419808	-0.029755	0.514985	0.009705	0.191162	0.003113	0.999994	0.002099	-0.000149	0.002575	
13008	    0	0.751052	20.223459	0.512069	-0.592805	0.047493	0.180626	0.007329	0.202255	0.004519	0.999994	-0.002964	0.000237	0.000903	
13009	    0	1.019127	18.041721	0.921988	-1.824214	0.107004	-0.199893	0.010376	0.180481	0.007568	0.999957	-0.009121	0.000535	-0.000999	
13010	    0	0.803092	16.308684	0.401336	-2.598077	0.221831	-0.599879	0.008523	0.163095	0.001885	0.999910	-0.012990	0.001109	-0.002999	
13011	    0	0.313139	12.787911	1.962969	-2.727414	0.018311	-1.017034	0.003784	0.128113	0.017883	0.999893	-0.013637	0.000092	-0.005085	
13012	    0	2.467451	8.533711	3.178349	-2.410216	-0.749425	-1.607764	0.025245	0.085511	0.030848	0.999887	-0.012051	-0.003747	-0.008039	
13013	    0	4.044441	5.104585	3.022991	-1.904186	-1.399289	-2.110379	0.040771	0.050903	0.030029	0.999874	-0.009521	-0.006996	-0.010551	
13014	    0	5.957153	-1.089255	-1.565428	-1.851170	-1.679882	-2.277483	0.059569	-0.011712	-0.015048	0.999857	-0.009255	-0.008399	-0.011387	
13015	    0	8.914053	-9.411191	-9.092208	-2.161319	-1.342837	-2.221022	0.088684	-0.096069	-0.089294	0.999857	-0.010806	-0.006714	-0.011105	
13016	    0	12.797588	-18.420225	-7.723738	-1.446194	-0.040246	-2.207057	0.125944	-0.186152	-0.075871	0.999912	-0.007231	-0.000201	-0.011035	
13017	    0	15.863565	-26.417088	-1.454122	0.018502	0.883501	-1.933325	0.156006	-0.265686	-0.015259	0.999943	0.000093	0.004417	-0.009666	
13018	    0	15.428135	-26.718030	-2.233267	2.307779	0.960764	-1.349113	0.152356	-0.267925	-0.026156	0.999899	0.011539	0.004804	-0.006745	
13019	    0	13.851959	-25.488028	-12.893708	2.918357	0.691441	-0.579094	0.137329	-0.253357	-0.133118	0.999883	0.014591	0.003457	-0.002895	
13020	    0	11.453770	-20.610997	-14.955920	1.776547	1.616135	-0.099185	0.113213	-0.204822	-0.152301	0.999928	0.008883	0.008080	-0.000496	
13021	    0	6.893646	-12.923040	-5.828628	1.586205	2.367672	0.103000	0.068298	-0.128723	-0.060120	0.999898	0.007931	0.011838	0.000515	
13022	    0	2.637209	-8.124561	1.041809	1.689764	1.823282	0.115398	0.026508	-0.081313	0.009490	0.999922	0.008449	0.009116	0.000577	
13023	    0	-0.195255	-0.973696	2.713014	2.010386	0.869959	0.075533	-0.001831	-0.010010	0.027039	0.999940	0.010052	0.004350	0.000378	
13024	    0	-0.706802	6.675537	2.987419	2.517767	0.129894	0.035478	-0.007060	0.066371	0.030716	0.999920	0.012589	0.000649	0.000177	
13025	    0	1.640533	10.245122	2.761551	3.003047	0.428216	-0.383773	0.016663	0.101990	0.029114	0.999883	0.015015	0.002141	-0.001919	
13026	    0	7.555918	13.409385	6.297737	0.518040	0.199510	-1.197633	0.076423	0.133474	0.063248	0.999978	0.002590	0.000998	-0.005988	
13027	    0	17.361238	0.607032	-23.764509	-0.491335	-0.896267	-0.273897	0.174683	0.005249	-0.236877	0.999986	-0.002457	-0.004481	-0.001369	
13028	    0	28.122050	-13.903802	-6.184724	-0.660518	-0.657276	-0.623706	0.280985	-0.140116	-0.060462	0.999984	-0.003303	-0.003286	-0.003119	
13029	    0	17.915524	27.182722	-9.858179	2.144712	-0.774988	-2.188201	0.182495	0.270874	-0.094971	0.999875	0.010723	-0.003875	-0.010941	
13030	    0	9.900566	28.427490	-0.244378	-0.348290	-0.683228	-2.228025	0.102173	0.283144	-0.002592	0.999930	-0.001741	-0.003416	-0.011140	
13031	    0	11.430578	28.529241	-0.842531	-1.765546	-0.427081	-3.304487	0.119019	0.283264	-0.010681	0.999822	-0.008827	-0.002135	-0.016521	
13032	    0	18.546898	23.683884	-1.962435	-2.583775	-0.045400	-4.302476	0.190507	0.232497	-0.022604	0.999684	-0.012918	-0.000227	-0.021510	
13033	    0	24.097198	27.455377	-2.094854	-2.105217	0.356529	-5.085636	0.247803	0.268066	-0.024231	0.999619	-0.010525	0.001782	-0.025425	
13034	    0	24.269395	10.079882	-0.314536	-2.045451	0.401918	-4.390767	0.244820	0.095397	-0.004630	0.999704	-0.010226	0.002009	-0.021952	
13035	    0	29.841574	0.106642	-0.577652	-0.354605	0.059514	-4.430754	0.298340	-0.005554	-0.005859	0.999752	-0.001773	0.000298	-0.022152	
13036	    0	32.384031	3.413843	0.780365	0.876123	0.099954	-4.528066	0.324506	0.026762	0.007770	0.999734	0.004380	0.000500	-0.022638	
13037	    0	27.578105	0.890297	-3.752785	-1.163583	0.030711	-4.393383	0.275879	0.002625	-0.037598	0.999742	-0.005817	0.000154	-0.021965	
13038	    0	26.849453	-1.572867	-1.278900	-2.578049	0.251987	-4.260695	0.268060	-0.021608	-0.012874	0.999689	-0.012889	0.001260	-0.021301	
13039	    0	22.632775	-6.618435	-2.367771	-3.303911	0.480898	-4.080673	0.224854	-0.071167	-0.023071	0.999652	-0.016518	0.002404	-0.020401	
13040	    0	16.811828	-10.381638	-2.210093	-3.419094	0.495772	-3.672035	0.166118	-0.107241	-0.020700	0.999681	-0.017094	0.002479	-0.018358	
13041	    0	12.967520	-15.352629	-3.100571	-3.622769	0.480887	-2.945980	0.127319	-0.155945	-0.028503	0.999724	-0.018112	0.002404	-0.014729	
13042	    0	11.240505	-20.377456	-2.329385	-3.136648	0.512729	-2.345047	0.109948	-0.205408	-0.020365	0.999804	-0.015682	0.002563	-0.011724	
13043	    0	8.933920	-22.648152	-1.707091	-2.466682	0.445765	-1.836469	0.087219	-0.227478	-0.014465	0.999879	-0.012333	0.002229	-0.009182	
13044	    0	7.269085	-20.373325	-3.188119	-1.881452	0.197034	-1.412043	0.071218	-0.204528	-0.030030	0.999929	-0.009407	0.000985	-0.007060	
13045	    0	5.469868	-16.197046	-4.444091	-1.365487	0.009155	-0.988781	0.053894	-0.162537	-0.043335	0.999964	-0.006827	0.000046	-0.004944	
13046	    0	4.772015	-13.715880	-4.283979	-0.902752	0.021553	-0.476839	0.047388	-0.137464	-0.042225	0.999987	-0.004514	0.000108	-0.002384	
13047	    0	5.869640	-11.188842	-3.846905	-0.517083	0.096893	-0.041199	0.058655	-0.112000	-0.038208	0.999996	-0.002585	0.000484	-0.000206	
13048	    0	6.633302	-5.289427	-4.480179	-0.226021	0.073624	0.122833	0.066349	-0.052904	-0.044766	0.999999	-0.001130	0.000368	0.000614	
13049	    0	7.726694	-0.855872	-3.621268	-0.247955	-0.021172	-0.006104	0.077271	-0.008606	-0.036194	0.999999	-0.001240	-0.000106	-0.000031	
13050	    0	7.119881	-0.381299	-2.415757	-0.365830	-0.215912	-0.130081	0.071222	-0.003903	-0.024074	0.999997	-0.001829	-0.001080	-0.000650	
13051	    0	6.167002	-0.834431	-2.198361	-0.371361	-0.380707	-0.122833	0.061707	-0.008423	-0.021851	0.999996	-0.001857	-0.001904	-0.000614	
13052	    0	6.193437	-0.913867	-2.624012	-0.295449	-0.444794	-0.162888	0.061985	-0.009228	-0.026089	0.999995	-0.001477	-0.002224	-0.000814	
13053	    0	7.071036	-1.013887	-3.348358	-0.100708	-0.260735	-0.277710	0.070740	-0.010254	-0.033386	0.999997	-0.000504	-0.001304	-0.001389	
13054	    0	7.141025	-1.938564	-3.024462	0.086784	-0.047112	-0.319100	0.071386	-0.019486	-0.030236	0.999998	0.000434	-0.000236	-0.001595	
13055	    0	5.997982	-2.893092	-2.169008	0.162697	0.049591	-0.261688	0.059937	-0.028992	-0.021729	0.999998	0.000813	0.000248	-0.001308	
13056	    0	4.741639	-3.218146	-1.401918	0.272751	0.091744	-0.106239	0.047393	-0.032187	-0.014085	0.999998	0.001364	0.000459	-0.000531	
13057	    0	3.856086	-3.360664	-0.814991	0.446320	0.077248	0.098419	0.038574	-0.033569	-0.008240	0.999997	0.002232	0.000386	0.000492	
13058	    0	3.881490	-4.077290	-0.021925	0.515557	0.073815	0.420380	0.038900	-0.040690	-0.000339	0.999994	0.002578	0.000369	0.002102	
13059	    0	4.532623	-4.844765	0.964738	0.382425	0.147248	0.823215	0.045532	-0.048279	0.009521	0.999989	0.001912	0.000736	0.004116	
13060	    0	4.852698	-5.063670	1.713848	0.118256	0.249292	1.306544	0.048878	-0.050328	0.017048	0.999977	0.000591	0.001246	0.006533	
13061	    0	5.177593	-4.145628	1.670243	-0.168421	0.286107	1.873808	0.052185	-0.040955	0.016663	0.999954	-0.000842	0.001431	0.009369	
13062	    0	7.149196	-3.047929	1.009468	-0.295838	0.261504	2.499456	0.071878	-0.029568	0.010045	0.999920	-0.001479	0.001307	0.012497	
13063	    0	11.010553	-3.825062	0.304217	-0.213440	0.275431	2.944291	0.110657	-0.036621	0.002930	0.999889	-0.001067	0.001377	0.014721	
13064	    0	15.035830	-5.479326	-0.658065	-0.116162	0.211342	2.893740	0.151123	-0.052614	-0.006709	0.999894	-0.000581	0.001057	0.014468	
13065	    0	17.167297	-5.862506	-2.999320	0.243576	0.103000	2.687917	0.172424	-0.056274	-0.030151	0.999908	0.001218	0.000515	0.013439	
13066	    0	18.278369	-4.825066	-4.734268	1.055564	0.033952	2.698039	0.183402	-0.045528	-0.047619	0.999894	0.005278	0.000170	0.013490	
13067	    0	21.431039	-4.635415	-6.682800	1.521362	-0.193604	2.678787	0.214966	-0.042969	-0.066956	0.999881	0.007607	-0.000968	0.013393	
13068	    0	26.318600	-3.342806	-7.613760	1.971715	-0.151069	2.616046	0.263644	-0.029230	-0.076241	0.999866	0.009858	-0.000755	0.013080	
13069	    0	28.306251	-2.405706	-7.896827	2.318883	-0.120551	2.634565	0.283386	-0.019409	-0.079041	0.999846	0.011594	-0.000603	0.013172	
13070	    0	27.181081	-0.222007	-7.473977	2.211705	-0.098234	3.110693	0.271830	0.002833	-0.074594	0.999817	0.011058	-0.000491	0.015553	
13071	    0	26.485603	2.820323	-7.429950	1.967182	-0.286122	3.507470	0.264404	0.033569	-0.073608	0.999796	0.009835	-0.001431	0.017536	
13072	    0	26.384393	5.798045	-7.323210	1.356216	-0.536573	3.738845	0.262887	0.063393	-0.072108	0.999798	0.006781	-0.002683	0.018693	
13073	    0	24.354023	7.261663	-6.582895	0.694516	-0.765284	4.051504	0.242249	0.077759	-0.064636	0.999781	0.003472	-0.003826	0.020256	
13074	    0	21.850795	8.318847	-5.515464	0.259611	-0.970348	4.321262	0.216906	0.087957	-0.053988	0.999754	0.001298	-0.004851	0.021605	
13075	    0	20.110920	7.714657	-3.894762	0.087936	-1.252849	4.254499	0.199646	0.081421	-0.037659	0.999754	0.000440	-0.006264	0.021271	
13076	    0	16.666680	5.800615	-3.758240	0.203148	-1.398956	4.027482	0.165710	0.061387	-0.036360	0.999772	0.001016	-0.006994	0.020136	
13077	    0	14.536271	5.995699	-2.616209	0.706528	-1.354878	3.643273	0.144409	0.062683	-0.024963	0.999804	0.003532	-0.006774	0.018215	
13078	    0	13.625479	7.294584	-1.841229	1.153247	-1.341703	3.191171	0.135184	0.075210	-0.017074	0.999833	0.005766	-0.006708	0.015955	
13079	    0	12.971829	9.360701	-2.100928	1.410931	-1.254331	2.748235	0.128540	0.095520	-0.019531	0.999861	0.007054	-0.006271	0.013741	
13080	    0	10.658012	12.368393	-2.174106	1.441821	-1.144454	2.444935	0.105175	0.125125	-0.020238	0.999883	0.007209	-0.005722	0.012224	
13081	    0	8.826990	13.207192	-1.225489	1.319356	-1.039157	2.223277	0.086853	0.133118	-0.010925	0.999903	0.006597	-0.005196	0.011116	
13082	    0	5.949708	14.152323	-0.070061	1.272429	-0.879504	2.108253	0.058001	0.142139	0.000460	0.999914	0.006362	-0.004397	0.010541	
13083	    0	3.482912	14.297604	1.008480	1.341475	-0.735494	2.045496	0.033325	0.143250	0.011169	0.999918	0.006707	-0.003677	0.010227	
13084	    0	3.538730	13.143950	2.015234	1.528586	-0.510609	1.771016	0.034169	0.131586	0.021246	0.999928	0.007643	-0.002553	0.008855	
13085	    0	2.176570	14.341871	1.496017	1.548222	-0.405128	1.284050	0.020813	0.143433	0.016113	0.999947	0.007741	-0.002026	0.006420	
13086	    0	2.476825	13.975299	1.176731	1.167310	-0.413136	1.052868	0.024007	0.139809	0.012633	0.999967	0.005836	-0.002066	0.005264	
13087	    0	1.846859	16.897951	-0.574225	0.182534	-0.376131	0.921635	0.017700	0.169067	-0.005554	0.999987	0.000913	-0.001881	0.004608	
13088	    0	1.250982	19.750139	0.569034	0.009155	-0.043678	0.664521	0.011852	0.197541	0.005702	0.999994	0.000046	-0.000218	0.003323	
13089	    0	0.479497	20.979999	1.442618	-0.425721	0.110054	0.389100	0.004395	0.209839	0.013977	0.999995	-0.002129	0.000550	0.001945	
13090	    0	1.427276	17.720662	1.417877	-1.688215	0.152018	0.064088	0.014226	0.177322	0.012671	0.999964	-0.008441	0.000760	0.000320	
13091	    0	0.764039	16.019394	0.994115	-2.409997	0.366220	-0.499738	0.008057	0.160278	0.007996	0.999922	-0.012050	0.001831	-0.002499	
13092	    0	0.022714	13.956748	1.708367	-2.319209	0.524917	-0.986889	0.000958	0.139750	0.015462	0.999917	-0.011596	0.002625	-0.004934	
13093	    0	0.898295	11.068880	2.971415	-1.946307	0.211530	-1.467169	0.009827	0.110901	0.028625	0.999925	-0.009731	0.001058	-0.007336	
13094	    0	2.118868	6.203263	1.690023	-1.848853	-0.572414	-2.002209	0.021762	0.061970	0.016389	0.999903	-0.009244	-0.002862	-0.010011	
13095	    0	2.442532	1.771258	-3.092880	-2.199665	-1.410555	-2.286644	0.024841	0.017090	-0.030945	0.999848	-0.010998	-0.007052	-0.011433	
13096	    0	5.301024	-4.607944	-8.386981	-1.966577	-1.737111	-2.325559	0.053186	-0.047516	-0.082946	0.999846	-0.009832	-0.008685	-0.011627	
13097	    0	10.087039	-11.504603	-6.063060	-1.059567	-0.524157	-2.548302	0.099548	-0.116638	-0.059753	0.999901	-0.005298	-0.002621	-0.012741	
13098	    0	16.399411	-23.148739	5.034031	-0.498786	0.655575	-2.514340	0.161233	-0.233400	0.050389	0.999912	-0.002494	0.003278	-0.012571	
13099	    0	19.221370	-31.055292	7.999491	1.607748	0.738545	-1.835682	0.189636	-0.312927	0.076782	0.999918	0.008039	0.003693	-0.009178	
13100	    0	18.050409	-34.164351	-12.595865	2.952312	-0.422876	-0.826106	0.179369	-0.340481	-0.130610	0.999880	0.014761	-0.002114	-0.004130	
13101	    0	16.566781	-30.185891	-27.495154	1.796757	1.187347	-0.012970	0.164001	-0.299377	-0.278625	0.999942	0.008984	0.005937	-0.000065	
13102	    0	10.889230	-19.347414	-13.038259	1.792619	3.019871	0.290123	0.107169	-0.192129	-0.133736	0.999845	0.008963	0.015099	0.001451	
13103	    0	4.196746	-8.576181	-0.493319	1.635815	2.815563	0.390643	0.042053	-0.085632	-0.006226	0.999866	0.008179	0.014077	0.001953	
13104	    0	-1.141213	-0.620712	3.474471	1.375986	1.487186	0.399406	-0.011141	-0.006469	0.034784	0.999947	0.006880	0.007436	0.001997	
13105	    0	-3.571540	5.308858	2.224134	1.438346	0.464635	0.391392	-0.035767	0.052856	0.022705	0.999969	0.007192	0.002323	0.001957	
13106	    0	-3.221679	12.105877	4.728224	1.732467	0.147440	-0.021553	-0.032168	0.120646	0.048352	0.999962	0.008662	0.000737	-0.000108	
13107	    0	0.436881	15.111083	2.908384	2.236419	0.389108	-0.684373	0.004944	0.150757	0.030762	0.999929	0.011182	0.001945	-0.003422	
13108	    0	8.610296	12.090873	2.603365	0.539021	0.446895	-1.130303	0.086843	0.120349	0.026165	0.999977	0.002695	0.002234	-0.005651	
13109	    0	18.272771	-3.133461	-16.774569	-1.500534	-0.888838	-0.738536	0.183350	-0.033264	-0.166687	0.999954	-0.007503	-0.004444	-0.003693	
13110	    0	34.002633	-23.824395	-16.013362	-0.844578	-0.576785	-0.447085	0.339950	-0.239675	-0.158143	0.999984	-0.004223	-0.002884	-0.002235	
13111	    0	23.315795	16.335274	-6.250802	2.246943	-0.586532	-1.957015	0.234924	0.161743	-0.059998	0.999885	0.011234	-0.002933	-0.009785	
13112	    0	8.741611	31.437764	-6.688361	1.622626	-0.747320	-1.840070	0.090549	0.314081	-0.064000	0.999917	0.008113	-0.003736	-0.009200	
13113	    0	8.573961	27.016224	-0.387044	-0.926055	-0.669125	-2.900813	0.089661	0.268860	-0.004822	0.999878	-0.004630	-0.003345	-0.014503	
13114	    0	13.041028	28.702085	-1.978076	-2.375232	-0.091942	-3.831616	0.135883	0.284191	-0.023106	0.999745	-0.011875	-0.000460	-0.019156	
13115	    0	19.395597	31.837870	-1.010247	-2.679586	0.386858	-4.750653	0.201416	0.313477	-0.014709	0.999626	-0.013396	0.001934	-0.023750	
13116	    0	23.167981	14.886459	-1.527019	-3.308501	0.460680	-4.183506	0.234682	0.143691	-0.018214	0.999641	-0.016541	0.002303	-0.020915	
13117	    0	30.684141	-5.042962	0.641777	-1.204004	0.379398	-3.922549	0.305786	-0.056396	0.006165	0.999787	-0.006020	0.001897	-0.019611	
13118	    0	33.652983	-0.991495	4.510231	1.267343	0.188842	-4.163499	0.336265	-0.017201	0.044691	0.999763	0.006336	0.000944	-0.020816	
13119	    0	27.913806	2.994808	-1.981668	0.171674	0.161183	-4.146874	0.279663	0.024170	-0.020020	0.999784	0.000858	0.000806	-0.020733	
13120	    0	27.235843	3.309345	-2.621615	-1.967787	0.454941	-4.025036	0.272886	0.027341	-0.027124	0.999746	-0.009838	0.002275	-0.020123	
13121	    0	25.171230	-1.320846	-3.029773	-3.357314	0.642659	-3.940266	0.251282	-0.018677	-0.030823	0.999660	-0.016785	0.003213	-0.019699	
13122	    0	20.580314	-4.594809	-3.918502	-3.594428	0.674706	-3.746270	0.204754	-0.050492	-0.038997	0.999657	-0.017970	0.003373	-0.018729	
13123	    0	15.614270	-8.831826	-4.785318	-3.448825	0.596105	-3.360315	0.154480	-0.091736	-0.046753	0.999705	-0.017242	0.002980	-0.016800	
13124	    0	11.841078	-13.514572	-5.549694	-3.330128	0.566721	-2.951679	0.116237	-0.137774	-0.053549	0.999748	-0.016649	0.002833	-0.014757	
13125	    0	8.721988	-19.140395	-4.071497	-2.735114	0.579869	-2.609412	0.084595	-0.193054	-0.038330	0.999817	-0.013675	0.002899	-0.013046	
13126	    0	7.545274	-19.818451	-3.138131	-2.043423	0.394265	-2.265066	0.073140	-0.199329	-0.029494	0.999882	-0.010217	0.001971	-0.011325	
13127	    0	7.023484	-18.267609	-3.753293	-1.558532	0.081636	-1.830336	0.068542	-0.183594	-0.036133	0.999928	-0.007792	0.000408	-0.009151	
13128	    0	6.137517	-16.143405	-4.097327	-1.207940	-0.092698	-1.319903	0.060326	-0.162078	-0.039968	0.999959	-0.006040	-0.000463	-0.006599	
13129	    0	6.238809	-12.941920	-4.793205	-0.621798	-0.140191	-0.820164	0.061890	-0.129822	-0.047485	0.999986	-0.003109	-0.000701	-0.004101	
13130	    0	6.555575	-6.506948	-5.260677	-0.200653	-0.118256	-0.551988	0.065407	-0.065303	-0.052503	0.999995	-0.001003	-0.000591	-0.002760	
13131	    0	6.775015	-2.920000	-3.034659	-0.389863	-0.047112	-0.472260	0.067688	-0.029419	-0.030273	0.999995	-0.001949	-0.000236	-0.002361	
13132	    0	6.224909	-3.518235	-1.144545	-0.741389	-0.120163	-0.464822	0.062174	-0.035369	-0.011277	0.999990	-0.003707	-0.000601	-0.002324	
13133	    0	5.243706	-3.410938	-0.412777	-0.785068	-0.333215	-0.441744	0.052368	-0.034241	-0.003906	0.999988	-0.003925	-0.001666	-0.002209	
13134	    0	4.403690	-1.828201	-1.422023	-0.435830	-0.424767	-0.275612	0.044042	-0.018373	-0.014087	0.999994	-0.002179	-0.002124	-0.001378	
13135	    0	5.484577	-1.362819	-3.088627	0.050545	-0.244141	-0.187683	0.054871	-0.013672	-0.030823	0.999998	0.000253	-0.001221	-0.000938	
13136	    0	6.798002	-2.093700	-3.044738	0.407982	0.002289	-0.208092	0.067958	-0.020946	-0.030491	0.999997	0.002040	0.000011	-0.001040	
13137	    0	6.430455	-3.363312	-2.303223	0.512124	0.043488	-0.175476	0.064270	-0.033630	-0.023132	0.999996	0.002561	0.000217	-0.000877	
13138	    0	5.027049	-4.329396	-1.724132	0.479317	-0.040245	-0.092888	0.050254	-0.043276	-0.017335	0.999996	0.002397	-0.000201	-0.000464	
13139	    0	3.921558	-4.349040	-0.857429	0.299263	-0.170136	0.104523	0.039246	-0.043457	-0.008606	0.999998	0.001496	-0.000851	0.000523	
13140	    0	3.798317	-3.849110	0.520327	0.055122	-0.236130	0.403023	0.038054	-0.038416	0.005238	0.999997	0.000276	-0.001181	0.002015	
13141	    0	4.684528	-4.333102	0.865727	-0.092316	-0.216485	0.746157	0.046997	-0.043152	0.008728	0.999991	-0.000462	-0.001082	0.003731	
13142	    0	5.815135	-5.991955	0.951249	-0.160981	-0.078583	1.101690	0.058476	-0.059590	0.009583	0.999984	-0.000805	-0.000393	0.005508	
13143	    0	6.483669	-6.468872	1.194621	-0.105096	0.052643	1.453413	0.065308	-0.064209	0.011963	0.999973	-0.000525	0.000263	0.007267	
13144	    0	7.566553	-5.796848	0.622947	0.101282	0.146868	1.838138	0.076199	-0.057273	0.006145	0.999957	0.000506	0.000734	0.009191	
13145	    0	10.147748	-5.557918	-0.344064	0.261884	0.173953	2.101175	0.102051	-0.054504	-0.003601	0.999943	0.001309	0.000870	0.010506	
13146	    0	12.226372	-5.124242	-0.437987	0.354202	0.217633	2.264645	0.122828	-0.049846	-0.004602	0.999933	0.001771	0.001088	0.011323	
13147	    0	12.987737	-4.631331	-0.664612	0.418865	0.239760	2.489538	0.130432	-0.044678	-0.006897	0.999919	0.002094	0.001199	0.012447	
13148	    0	13.663287	-3.646378	-1.550189	0.542467	0.161558	2.722256	0.137099	-0.034557	-0.015708	0.999903	0.002712	0.000808	0.013611	
13149	    0	15.722520	-3.119910	-3.348242	0.833162	0.031472	2.935142	0.157654	-0.028748	-0.033630	0.999883	0.004166	0.000157	0.014675	
13150	    0	18.519949	-3.819649	-4.724098	1.134923	-0.111776	3.048650	0.185777	-0.035099	-0.047342	0.999867	0.005674	-0.000559	0.015243	
13151	    0	22.743996	-4.628149	-5.937098	1.552653	-0.230228	2.930585	0.228149	-0.042480	-0.059448	0.999862	0.007763	-0.001151	0.014652	
13152	    0	27.223222	-4.341863	-6.864683	1.966567	-0.300421	2.665833	0.272876	-0.039109	-0.068636	0.999861	0.009832	-0.001502	0.013329	
13153	    0	28.385615	-1.762353	-7.529280	2.086932	-0.175485	2.702463	0.284119	-0.013000	-0.075195	0.999853	0.010434	-0.000877	0.013512	
13154	    0	27.362701	1.189051	-7.362689	2.087329	-0.160036	3.023509	0.273457	0.016791	-0.073250	0.999830	0.010436	-0.000800	0.015117	
13155	    0	26.474360	4.051131	-7.204400	1.790734	-0.180638	3.499066	0.264038	0.045776	-0.071411	0.999806	0.008953	-0.000903	0.017494	
13156	    0	25.355031	5.905830	-6.833220	1.389413	-0.317596	3.912636	0.252432	0.064475	-0.067495	0.999783	0.006947	-0.001588	0.019562	
13157	    0	23.795348	7.415716	-6.631102	0.944783	-0.537151	4.168260	0.236511	0.079407	-0.065308	0.999767	0.004724	-0.002686	0.020840	
13158	    0	21.797933	8.130084	-5.766128	0.614408	-0.815840	4.327368	0.216382	0.086169	-0.056517	0.999752	0.003072	-0.004079	0.021635	
13159	    0	18.436879	7.504410	-5.150012	0.512166	-0.965962	4.349119	0.182922	0.079163	-0.050415	0.999748	0.002561	-0.004829	0.021744	
13160	    0	15.817446	6.848987	-3.982012	0.809542	-0.991708	4.135264	0.156905	0.071901	-0.038754	0.999765	0.004047	-0.004958	0.020675	
13161	    0	14.447292	6.973767	-3.050551	1.228607	-1.069714	3.689062	0.143311	0.072571	-0.029297	0.999796	0.006143	-0.005348	0.018444	
13162	    0	13.664689	8.455549	-3.483466	1.648621	-1.216771	3.200533	0.135473	0.087008	-0.033298	0.999819	0.008243	-0.006083	0.016002	
13163	    0	12.681385	10.615655	-3.642899	1.880934	-1.190247	2.742147	0.125549	0.108215	-0.034668	0.999844	0.009404	-0.005951	0.013710	
13164	    0	10.461509	12.271464	-3.448429	1.660987	-1.115654	2.422051	0.103303	0.124249	-0.032878	0.999876	0.008305	-0.005578	0.012110	
13165	    0	8.022625	13.097593	-2.040871	1.410146	-0.949126	2.127904	0.078918	0.131958	-0.019104	0.999907	0.007051	-0.004745	0.010639	
13166	    0	4.628435	14.297658	-0.328652	1.206043	-0.723473	1.829951	0.044983	0.143408	-0.002258	0.999933	0.006030	-0.003617	0.009150	
13167	    0	2.441865	14.483650	0.121983	0.705921	-0.842298	1.596857	0.023254	0.145020	0.001831	0.999952	0.003530	-0.004211	0.007984	
13168	    0	2.987373	14.580708	0.231145	0.388531	-0.731667	1.387993	0.028852	0.146005	0.002702	0.999967	0.001943	-0.003658	0.006940	
13169	    0	2.440386	16.474595	1.304153	0.640875	-0.347713	1.292431	0.023315	0.164856	0.013611	0.999972	0.003204	-0.001739	0.006462	
13170	    0	2.180296	17.169699	2.795011	1.052488	-0.061417	1.354043	0.020632	0.171689	0.028860	0.999963	0.005262	-0.000307	0.006770	
13171	    0	2.626367	16.642004	2.212310	1.052104	-0.090600	1.110088	0.025330	0.166443	0.023010	0.999970	0.005260	-0.000453	0.005550	
13172	    0	1.192543	19.310276	0.004129	0.477602	-0.316812	0.646021	0.011301	0.193139	0.000521	0.999990	0.002388	-0.001584	0.003230	
13173	    0	-0.597219	20.768919	-0.870574	-0.777438	-0.274468	0.373842	-0.006348	0.207642	-0.009521	0.999990	-0.003887	-0.001372	0.001869	
13174	    0	0.480404	17.090248	1.086315	-1.955826	0.027848	-0.008011	0.004812	0.170998	0.009191	0.999951	-0.009779	0.000139	-0.000040	
13175	    0	1.465401	13.180047	2.924084	-2.289635	0.265700	-0.582137	0.015076	0.132080	0.027710	0.999928	-0.011448	0.001328	-0.002911	
13176	    0	1.587266	12.044433	3.300630	-2.023553	0.502407	-1.087405	0.016609	0.120681	0.031745	0.999930	-0.010118	0.002512	-0.005437	
13177	    0	1.910957	11.847608	4.070580	-1.677743	0.384721	-1.610602	0.020142	0.118652	0.039673	0.999930	-0.008389	0.001924	-0.008053	
13178	    0	2.535302	9.006371	1.763678	-1.742606	-0.129704	-2.043404	0.026261	0.089948	0.016870	0.999909	-0.008713	-0.000648	-0.010217	
13179	    0	2.280535	3.360502	-2.848150	-2.278815	-0.971267	-2.233227	0.023315	0.033020	-0.028748	0.999861	-0.011394	-0.004856	-0.011166	
13180	    0	4.297705	-5.272263	-8.271632	-2.462718	-1.643465	-2.207309	0.043058	-0.054208	-0.081701	0.999829	-0.012313	-0.008217	-0.011036	
13181	    0	10.028948	-14.628094	-7.676978	-2.123366	-1.119860	-2.485017	0.098877	-0.148315	-0.074646	0.999850	-0.010616	-0.005599	-0.012424	
13182	    0	18.833074	-28.784089	1.705746	-1.285975	0.181967	-2.439195	0.184819	-0.289992	0.018748	0.999904	-0.006430	0.000910	-0.012196	
13183	    0	20.145311	-37.725457	4.413444	1.631965	0.152019	-1.680794	0.198303	-0.379272	0.040894	0.999930	0.008160	0.000760	-0.008404	
13184	    0	20.376749	-40.917943	-20.997341	2.930374	-0.700024	-0.521108	0.203453	-0.406582	-0.215231	0.999883	0.014651	-0.003500	-0.002605	
13185	    0	18.023786	-32.154849	-27.905079	2.437115	1.866223	0.122838	0.177795	-0.317993	-0.284607	0.999882	0.012185	0.009331	0.000614	
13186	    0	10.120351	-13.601127	-8.923183	2.419655	3.485180	0.398285	0.099878	-0.134705	-0.092615	0.999773	0.012097	0.017425	0.001991	
13187	    0	3.211546	-1.705577	3.560636	2.118030	2.775146	0.581390	0.032654	-0.017334	0.034973	0.999843	0.010590	0.013875	0.002907	
13188	    0	-1.420143	1.396421	3.655886	1.594003	1.293589	0.730147	-0.014014	0.013620	0.036759	0.999940	0.007970	0.006468	0.003651	
13189	    0	-3.449093	4.743429	2.508412	1.543637	0.370793	0.690469	-0.034607	0.047119	0.025513	0.999962	0.007718	0.001854	0.003452	
13190	    0	-1.532014	8.467748	6.081979	1.913100	0.193027	0.189593	-0.015341	0.084076	0.061641	0.999953	0.009565	0.000965	0.000948	
13191	    0	3.330569	13.156954	4.792034	2.025833	0.325781	-0.560008	0.033752	0.130981	0.049194	0.999943	0.010129	0.001629	-0.002800	
13192	    0	10.937561	12.628488	-1.653683	-0.395968	-0.358774	-0.950055	0.110003	0.125731	-0.016589	0.999985	-0.001980	-0.001794	-0.004750	
13193	    0	22.122510	-12.442822	-22.989937	-1.103981	-0.569729	0.074006	0.221924	-0.125610	-0.228577	0.999980	-0.005520	-0.002849	0.000370	
13194	    0	27.720917	2.868673	-4.418440	0.201417	-0.501636	-1.203546	0.277485	0.027061	-0.043461	0.999978	0.001007	-0.002508	-0.006018	
13195	    0	15.635233	31.712118	-10.779640	2.445498	-0.431839	-1.524407	0.158997	0.317200	-0.103577	0.999893	0.012227	-0.002159	-0.007622	
13196	    0	11.619842	17.386964	0.100125	-0.310142	-0.703637	-2.232794	0.118126	0.172560	0.001146	0.999929	-0.001551	-0.003518	-0.011164	
13197	    0	10.394018	30.240702	-2.686462	-1.717474	-0.285928	-3.258700	0.108887	0.300415	-0.029297	0.999829	-0.008587	-0.001430	-0.016293	
13198	    0	17.129635	28.239869	-3.093353	-3.389797	0.057991	-4.420852	0.177464	0.277943	-0.035721	0.999612	-0.016947	0.000290	-0.022101	
13199	    0	21.415723	28.837285	-3.413581	-3.514446	0.605104	-4.898821	0.221008	0.282349	-0.039795	0.999540	-0.017570	0.003025	-0.024490	
13200	    0	24.807129	1.400268	-1.154755	-3.428303	0.536221	-4.135825	0.248255	0.008662	-0.012392	0.999636	-0.017139	0.002681	-0.020677	
13201	    0	32.997336	-5.840144	-0.223807	-0.840821	0.321412	-4.116363	0.328674	-0.065186	-0.002502	0.999778	-0.004204	0.001607	-0.020580	
13202	    0	31.689728	0.321207	1.758066	1.133059	0.294519	-4.302381	0.316893	-0.003703	0.017106	0.999751	0.005665	0.001472	-0.021510	
13203	    0	26.521825	0.858643	-3.735056	-0.208106	0.320457	-4.051488	0.265259	0.003174	-0.037781	0.999792	-0.001040	0.001602	-0.020256	
13204	    0	27.055687	-1.742516	-1.404389	-2.206033	0.520750	-3.860415	0.270114	-0.022800	-0.014516	0.999749	-0.011029	0.002604	-0.019300	
13205	    0	23.331898	-3.858473	-0.939885	-2.938373	0.683853	-3.856281	0.232483	-0.043213	-0.009583	0.999700	-0.014690	0.003419	-0.019279	
13206	    0	17.699724	-5.215467	-1.190003	-3.163086	0.764924	-3.704828	0.175943	-0.055607	-0.011713	0.999696	-0.015814	0.003824	-0.018522	
13207	    0	13.880748	-6.383946	-2.244403	-3.051261	0.767012	-3.318313	0.137634	-0.066467	-0.021973	0.999738	-0.015255	0.003835	-0.016590	
13208	    0	10.833146	-11.472139	-4.480978	-3.006584	0.795614	-2.826326	0.106515	-0.116896	-0.043489	0.999779	-0.015032	0.003978	-0.014131	
13209	    0	7.578311	-16.705150	-3.881270	-2.252881	0.836223	-2.474335	0.073547	-0.168396	-0.037231	0.999851	-0.011264	0.004181	-0.012371	
13210	    0	6.367747	-18.076440	-2.965172	-1.423305	0.521103	-2.176730	0.061628	-0.181648	-0.028523	0.999911	-0.007116	0.002605	-0.010883	
13211	    0	6.685588	-17.138392	-3.160940	-0.946633	0.081636	-1.786835	0.065308	-0.172119	-0.030823	0.999949	-0.004733	0.000408	-0.008934	
13212	    0	6.649902	-15.424191	-4.192871	-0.798424	-0.101663	-1.323904	0.065496	-0.154843	-0.041278	0.999969	-0.003992	-0.000508	-0.006619	
13213	    0	6.707019	-11.642359	-5.610304	-0.363161	-0.131798	-0.887302	0.066589	-0.116821	-0.055847	0.999988	-0.001816	-0.000659	-0.004436	
13214	    0	6.506143	-6.296318	-5.651265	-0.044441	-0.091362	-0.652505	0.064881	-0.063188	-0.056469	0.999994	-0.000222	-0.000457	-0.003263	
13215	    0	6.099313	-4.165703	-4.598617	-0.236512	-0.125694	-0.521088	0.060913	-0.041870	-0.045898	0.999995	-0.001183	-0.000628	-0.002605	
13216	    0	5.998404	-5.826424	-3.218159	-0.692942	-0.291444	-0.459291	0.059896	-0.058513	-0.031892	0.999990	-0.003465	-0.001457	-0.002296	
13217	    0	5.788906	-7.302065	-2.360789	-0.900273	-0.505641	-0.403597	0.057800	-0.073242	-0.023132	0.999984	-0.004501	-0.002528	-0.002018	
13218	    0	5.567167	-6.858470	-2.659302	-0.614168	-0.540163	-0.332070	0.055629	-0.068758	-0.026232	0.999990	-0.003071	-0.002701	-0.001660	
13219	    0	6.424254	-6.089456	-3.194484	0.061798	-0.321770	-0.278473	0.064209	-0.060974	-0.031860	0.999997	0.000309	-0.001609	-0.001392	
13220	    0	6.902709	-5.989538	-2.557732	0.527001	-0.105667	-0.160408	0.068993	-0.059883	-0.025699	0.999995	0.002635	-0.000528	-0.000802	
13221	    0	5.698579	-6.360574	-1.517635	0.691225	-0.053215	0.053406	0.057007	-0.063538	-0.015381	0.999993	0.003456	-0.000266	0.000267	
13222	    0	4.442676	-5.789586	-0.533484	0.807383	-0.102043	0.317384	0.044521	-0.057803	-0.005546	0.999990	0.004037	-0.000510	0.001587	
13223	    0	4.287672	-4.378037	0.308151	0.821881	-0.128937	0.709537	0.043030	-0.043640	0.002930	0.999985	0.004109	-0.000645	0.003548	
13224	    0	4.992763	-3.430043	0.909529	0.661092	-0.080681	1.173219	0.050124	-0.034037	0.009003	0.999977	0.003305	-0.000403	0.005866	
13225	    0	6.137364	-4.099204	2.125468	0.373082	-0.001335	1.637287	0.061707	-0.040527	0.021179	0.999965	0.001865	-0.000007	0.008186	
13226	    0	7.967528	-4.732569	2.508506	0.026703	0.016785	1.886777	0.080119	-0.046575	0.025072	0.999955	0.000134	0.000084	0.009434	
13227	    0	9.746536	-4.138656	1.892687	-0.161746	0.079538	2.101174	0.097900	-0.040344	0.018921	0.999944	-0.000809	0.000398	0.010506	
13228	    0	10.971706	-3.901814	1.004037	-0.130084	0.159649	2.421057	0.110187	-0.037680	0.009977	0.999926	-0.000650	0.000798	0.012105	
13229	    0	12.305545	-4.012477	1.027797	-0.079348	0.261887	2.703941	0.123596	-0.038452	0.010132	0.999907	-0.000397	0.001309	0.013519	
13230	    0	13.125972	-3.780833	0.889507	-0.098804	0.260935	2.936279	0.131807	-0.035872	0.008741	0.999890	-0.000494	0.001305	0.014681	
13231	    0	14.450243	-3.937317	0.197466	0.049021	0.185401	3.041194	0.145081	-0.037170	0.001831	0.999884	0.000245	0.000927	0.015205	
13232	    0	16.478361	-3.971304	-0.720169	0.294696	0.131230	2.938950	0.165339	-0.037275	-0.007366	0.999890	0.001473	0.000656	0.014694	
13233	    0	17.827630	-3.259556	-2.142666	0.519772	0.180060	2.948109	0.178711	-0.029907	-0.021667	0.999887	0.002599	0.000900	0.014740	
13234	    0	20.470661	-2.933584	-4.210204	0.989955	0.119024	2.999621	0.205089	-0.026052	-0.042358	0.999875	0.004950	0.000595	0.014997	
13235	    0	27.267682	-3.668718	-6.662319	1.691698	-0.189980	2.675741	0.273193	-0.032471	-0.066650	0.999874	0.008458	-0.000950	0.013378	
13236	    0	30.439312	-2.378029	-10.350304	2.074717	-0.265133	2.552339	0.304791	-0.018820	-0.103312	0.999864	0.010373	-0.001326	0.012761	
13237	    0	28.507487	-0.139016	-12.450799	2.325582	-0.191319	3.043552	0.285156	0.004395	-0.124207	0.999816	0.011627	-0.000957	0.015217	
13238	    0	27.797813	4.278844	-12.550518	2.239393	-0.267812	3.560139	0.277308	0.049128	-0.124607	0.999778	0.011196	-0.001339	0.017799	
13239	    0	26.427788	8.393446	-10.842103	1.631487	-0.491373	4.054587	0.262756	0.090149	-0.107056	0.999758	0.008157	-0.002457	0.020271	
13240	    0	23.315420	11.188021	-9.752199	1.038261	-0.721804	4.400256	0.230959	0.117479	-0.096086	0.999738	0.005191	-0.003609	0.021999	
13241	    0	19.239783	12.760645	-8.286881	0.566920	-0.874225	4.771135	0.189636	0.132385	-0.081665	0.999701	0.002834	-0.004371	0.023853	
13242	    0	15.723571	11.842842	-6.691673	0.299867	-1.013293	4.969559	0.154563	0.122391	-0.065948	0.999677	0.001499	-0.005066	0.024845	
13243	    0	12.961790	8.691957	-3.727546	0.211545	-1.252865	4.588751	0.127808	0.089905	-0.036377	0.999716	0.001058	-0.006264	0.022942	
13244	    0	11.030995	5.658492	-1.197876	0.532951	-1.606674	3.771097	0.109307	0.058682	-0.010943	0.999786	0.002665	-0.008033	0.018854	
13245	    0	9.860279	5.188698	-0.765346	1.185672	-1.773739	2.887881	0.097900	0.053345	-0.006470	0.999839	0.005928	-0.008868	0.014439	
13246	    0	7.966582	8.012094	-1.570548	1.601477	-1.710964	2.150435	0.078924	0.081091	-0.014381	0.999873	0.008007	-0.008554	0.010752	
13247	    0	6.369790	11.364168	-1.366259	1.660207	-1.418157	1.616718	0.062866	0.114258	-0.012268	0.999907	0.008301	-0.007091	0.008083	
13248	    0	4.618132	14.091455	0.370098	1.545367	-1.009581	1.321249	0.045226	0.141180	0.005021	0.999935	0.007727	-0.005048	0.006606	
13249	    0	3.431642	14.510459	2.131307	1.291104	-0.888838	1.062791	0.033447	0.145142	0.022400	0.999954	0.006455	-0.004444	0.005314	
13250	    0	3.504881	13.217390	2.805648	1.027881	-0.828751	0.825509	0.034385	0.132170	0.028879	0.999969	0.005139	-0.004144	0.004128	
13251	    0	3.028425	13.858682	3.553653	1.081285	-0.611882	0.649267	0.029724	0.138489	0.036377	0.999975	0.005406	-0.003059	0.003246	
13252	    0	2.799913	13.726691	3.423950	0.981146	-0.437358	0.563816	0.027536	0.137175	0.034973	0.999981	0.004906	-0.002187	0.002819	
13253	    0	2.703366	14.911936	2.618664	0.493814	-0.421907	0.409699	0.026672	0.149109	0.026611	0.999992	0.002469	-0.002110	0.002048	
13254	    0	3.325416	15.530791	3.282159	0.177956	-0.427056	0.153160	0.033065	0.155304	0.033031	0.999996	0.000890	-0.002135	0.000766	
13255	    0	3.668638	15.694178	2.861816	-0.458527	-0.337792	-0.133515	0.036743	0.156982	0.028320	0.999995	-0.002293	-0.001689	-0.000668	
13256	    0	3.382554	16.107582	2.244757	-1.270304	-0.067711	-0.421527	0.034158	0.161142	0.021436	0.999977	-0.006351	-0.000339	-0.002108	
13257	    0	1.819977	15.930796	1.411697	-1.776722	0.065614	-0.669871	0.018738	0.159363	0.012695	0.999954	-0.008883	0.000328	-0.003349	
13258	    0	0.730987	14.365329	0.597434	-2.203801	0.062944	-0.798434	0.007885	0.143677	0.004389	0.999930	-0.011019	0.000315	-0.003992	
13259	    0	1.765774	8.805052	1.169031	-2.200183	-0.230414	-1.095609	0.018127	0.088074	0.010742	0.999924	-0.011001	-0.001152	-0.005478	
13260	    0	3.421732	4.597320	0.925795	-1.966532	-0.659389	-1.592300	0.034553	0.045788	0.008921	0.999914	-0.009832	-0.003297	-0.007961	
13261	    0	4.257190	2.338379	-0.979864	-1.446575	-0.934437	-1.987515	0.042847	0.022888	-0.009766	0.999913	-0.007233	-0.004672	-0.009937	
13262	    0	6.235044	-1.988828	-5.971042	-1.306381	-1.038963	-2.055800	0.062448	-0.020918	-0.059252	0.999912	-0.006532	-0.005195	-0.010279	
13263	    0	10.271395	-10.259472	-6.502190	-0.915356	-0.305945	-2.062270	0.101746	-0.103943	-0.064392	0.999935	-0.004577	-0.001530	-0.010311	
13264	    0	15.061976	-19.541218	1.475493	-0.173000	0.869387	-1.989022	0.148729	-0.196885	0.014276	0.999940	-0.000865	0.004347	-0.009945	
13265	    0	16.384000	-23.802800	5.556116	0.787560	1.341274	-1.548035	0.162354	-0.239502	0.053528	0.999939	0.003938	0.006706	-0.007740	
13266	    0	14.357648	-22.982524	-4.304725	1.899946	0.195888	-0.938815	0.142453	-0.230072	-0.045372	0.999943	0.009500	0.000979	-0.004694	
13267	    0	13.715899	-24.194257	-21.652411	2.311950	-0.094607	-0.299842	0.136902	-0.239624	-0.219238	0.999931	0.011559	-0.000473	-0.001499	
13268	    0	11.916253	-21.692016	-18.183713	1.501310	1.879928	0.141529	0.117589	-0.215458	-0.184568	0.999927	0.007506	0.009399	0.000708	
13269	    0	6.127005	-11.240137	-3.393994	1.233147	2.718455	0.210579	0.060913	-0.112122	-0.035461	0.999887	0.006166	0.013592	0.001053	
13270	    0	2.319294	-4.273187	2.189799	1.117157	1.886215	0.253683	0.023451	-0.042823	0.021439	0.999939	0.005586	0.009431	0.001268	
13271	    0	-0.106540	0.840115	2.380486	1.338974	0.866900	0.350193	-0.000977	0.008240	0.023865	0.999967	0.006695	0.004334	0.001751	
13272	    0	-1.476885	6.831077	3.081098	1.601618	0.222018	0.221255	-0.014810	0.068045	0.031373	0.999967	0.008008	0.001110	0.001106	
13273	    0	1.196062	7.579620	1.939455	1.674863	0.146486	-0.128938	0.012024	0.075623	0.020020	0.999964	0.008374	0.000732	-0.000645	
13274	    0	8.916592	5.565660	4.165695	-0.211525	0.202752	-0.713732	0.089406	0.055382	0.041508	0.999992	-0.001058	0.001014	-0.003569	
13275	    0	19.416031	-2.562608	-21.303412	-1.852454	-1.143478	0.003052	0.195374	-0.027588	-0.211670	0.999940	-0.009262	-0.005717	0.000015	
13276	    0	36.818966	-24.176349	-8.969723	-0.901417	-0.528910	0.253488	0.368730	-0.241694	-0.087633	0.999985	-0.004507	-0.002645	0.001267	
13277	    0	21.673940	17.665442	-5.755283	2.251705	-0.533314	-1.770845	0.218445	0.175354	-0.054993	0.999893	0.011258	-0.002666	-0.008854	
13278	    0	9.162354	31.523094	0.900810	0.865188	-0.524530	-1.769096	0.094380	0.314361	0.010614	0.999948	0.004326	-0.002623	-0.008845	
13279	    0	9.480413	30.417468	0.855990	-0.918615	-0.321782	-2.895468	0.099182	0.302795	0.007324	0.999883	-0.004593	-0.001609	-0.014477	
13280	    0	11.638278	27.217550	-2.356918	-2.371989	0.064474	-3.830471	0.121554	0.269575	-0.026815	0.999745	-0.011859	0.000322	-0.019151	
13281	    0	16.191899	29.536337	-4.720356	-2.530018	0.515046	-4.685770	0.168640	0.290833	-0.051331	0.999641	-0.012649	0.002575	-0.023426	
13282	    0	21.863153	11.658564	-2.682676	-2.980731	0.660011	-3.932596	0.220768	0.111835	-0.029243	0.999690	-0.014902	0.003300	-0.019661	
13283	    0	31.595807	-4.639367	-1.472008	-0.994178	0.423651	-3.897360	0.314941	-0.052612	-0.015137	0.999795	-0.004971	0.002118	-0.019485	
13284	    0	33.476804	-2.820027	1.280537	1.020891	0.136004	-4.162726	0.334092	-0.035223	0.012410	0.999769	0.005104	0.000680	-0.020812	
13285	    0	28.215608	1.051303	-4.269030	0.036814	0.025179	-4.124743	0.282288	0.004700	-0.042725	0.999786	0.000184	0.000126	-0.020622	
13286	    0	27.310552	0.146342	-3.178129	-1.883278	0.379402	-3.972185	0.272998	-0.004262	-0.032277	0.999756	-0.009416	0.001897	-0.019859	
13287	    0	23.952686	-3.956548	-3.160954	-2.969475	0.591339	-3.937172	0.238586	-0.044739	-0.031677	0.999691	-0.014846	0.002956	-0.019684	
13288	    0	18.914229	-6.965736	-2.962125	-3.206968	0.682330	-3.771221	0.187678	-0.073675	-0.029103	0.999687	-0.016033	0.003411	-0.018854	
13289	    0	13.633201	-10.302220	-2.530079	-3.136540	0.669159	-3.414466	0.134460	-0.105713	-0.024109	0.999725	-0.015681	0.003345	-0.017071	
13290	    0	9.838047	-15.075099	-3.564492	-2.911592	0.706534	-2.955464	0.096012	-0.152682	-0.033773	0.999778	-0.014557	0.003532	-0.014776	
13291	    0	6.615948	-20.226506	-3.348235	-2.285116	0.651010	-2.479675	0.063538	-0.203430	-0.031372	0.999852	-0.011425	0.003255	-0.012398	
13292	    0	5.967205	-21.254352	-3.467382	-1.441995	0.324830	-2.082881	0.057398	-0.213392	-0.033232	0.999918	-0.007210	0.001624	-0.010414	
13293	    0	6.007310	-20.006086	-3.601261	-0.842869	-0.038910	-1.604484	0.058472	-0.200684	-0.035156	0.999958	-0.004214	-0.000195	-0.008022	
13294	    0	6.112639	-16.438285	-4.152678	-0.449565	-0.216867	-1.038557	0.060316	-0.164790	-0.041091	0.999983	-0.002248	-0.001084	-0.005193	
13295	    0	6.905917	-9.768033	-5.699418	0.046539	-0.206566	-0.677492	0.068787	-0.097900	-0.056946	0.999993	0.000233	-0.001033	-0.003387	
13296	    0	6.826726	-3.191259	-4.406900	0.054360	-0.019074	-0.558663	0.068182	-0.032091	-0.044071	0.999995	0.000272	-0.000095	-0.002793	
13297	    0	5.828340	-2.124837	-2.053142	-0.315094	0.034523	-0.489808	0.058228	-0.021423	-0.020508	0.999995	-0.001575	0.000173	-0.002449	
13298	    0	5.072908	-2.721151	-0.319063	-0.713541	-0.129891	-0.429155	0.050673	-0.027331	-0.003060	0.999990	-0.003568	-0.000649	-0.002146	
13299	    0	4.349252	-2.032472	0.186152	-0.844386	-0.306703	-0.318910	0.043457	-0.020386	0.002014	0.999989	-0.004222	-0.001534	-0.001595	
13300	    0	4.730253	-0.867951	-0.801542	-0.656892	-0.321389	-0.211716	0.047306	-0.008756	-0.007911	0.999992	-0.003284	-0.001607	-0.001059	
13301	    0	6.280332	-0.834806	-1.695074	-0.323296	-0.096893	-0.151062	0.062805	-0.008423	-0.016907	0.999998	-0.001616	-0.000484	-0.000755	
13302	    0	6.735015	-1.879191	-1.452061	-0.068283	0.050354	-0.110626	0.067336	-0.018834	-0.014531	0.999999	-0.000341	0.000252	-0.000553	
13303	    0	5.432144	-2.906204	-0.881858	0.051117	0.088692	0.025940	0.054321	-0.029053	-0.008850	0.999999	0.000256	0.000443	0.000130	
