// Start Time: Unknown
// Update Rate: 100.0Hz
// Filter Profile: human (34.3)
// Firmware Version: 2.1.4
PacketCounter	SampleTimeFine	Acc_X	Acc_Y	Acc_Z	Gyr_X	Gyr_Y	Gyr_Z	VelInc_X	VelInc_Y	VelInc_Z	OriInc_q0	OriInc_q1	OriInc_q2	OriInc_q3	
55175	    0	18.141208	-2.364742	5.882430	-1.219875	0.027469	-4.818459	0.180786	-0.027649	0.058960	0.999691	-0.006099	0.000137	-0.024090	
55176	    0	18.481297	6.468792	3.536106	-1.221973	0.072296	-4.801478	0.186311	0.060441	0.034916	0.999693	-0.006109	0.000361	-0.024005	
55177	    0	19.967332	1.756862	1.991136	-2.228755	0.274875	-4.178248	0.200012	0.013611	0.019470	0.999719	-0.011143	0.001374	-0.020889	
55178	    0	19.140391	-8.829072	1.079432	-2.660963	0.249120	-3.455437	0.189857	-0.091428	0.011760	0.999761	-0.013304	0.001245	-0.017276	
55179	    0	17.620975	-4.651476	0.200832	-2.209426	0.115974	-3.287721	0.175415	-0.049377	0.002441	0.999804	-0.011046	0.000580	-0.016438	
55180	    0	18.335180	0.325524	0.080259	-2.194729	0.158129	-3.122901	0.183373	0.000400	0.000643	0.999817	-0.010973	0.000791	-0.015614	
55181	    0	14.376751	-7.132485	0.082971	-2.114197	0.097851	-2.441512	0.142883	-0.073059	0.001526	0.999869	-0.010571	0.000489	-0.012207	
55182	    0	9.712083	-5.837683	-1.836015	-1.690150	-0.010109	-1.989040	0.096534	-0.059491	-0.017856	0.999914	-0.008451	-0.000051	-0.009945	
55183	    0	8.174492	-3.769211	-2.129513	-1.807443	-0.036431	-1.396973	0.081482	-0.038452	-0.020935	0.999934	-0.009037	-0.000182	-0.006985	
55184	    0	8.092834	-4.517395	-2.551968	-1.771953	-0.039101	-0.677691	0.080779	-0.045671	-0.025101	0.999954	-0.008860	-0.000196	-0.003388	
55185	    0	8.466354	-5.405473	-2.248318	-1.483740	0.032807	-0.240328	0.084595	-0.054321	-0.022095	0.999971	-0.007419	0.000164	-0.001202	
55186	    0	8.027866	-1.101078	-2.502935	-1.359760	0.236704	-0.242045	0.080235	-0.011278	-0.025048	0.999975	-0.006799	0.001184	-0.001210	
55187	    0	12.395998	13.527920	-5.374601	-0.733003	0.524146	-1.485462	0.124817	0.134155	-0.054565	0.999962	-0.003665	0.002621	-0.007427	
55188	    0	15.127220	17.129358	-11.078203	-0.075342	0.521480	-2.154585	0.152816	0.169611	-0.111243	0.999938	-0.000377	0.002607	-0.010773	
55189	    0	14.437060	11.992409	-9.407433	-0.138858	0.448808	-2.167555	0.145447	0.118286	-0.094482	0.999938	-0.000694	0.002244	-0.010838	
55190	    0	11.785138	4.559824	-5.016346	-0.228695	0.475129	-2.055970	0.118192	0.044327	-0.050495	0.999943	-0.001143	0.002376	-0.010280	
55191	    0	10.491966	0.678134	-3.048181	0.005341	0.417527	-2.108042	0.104919	0.005676	-0.030701	0.999942	0.000027	0.002088	-0.010540	
55192	    0	9.683094	0.206532	-2.755771	0.141719	0.365837	-2.116435	0.096795	0.001060	-0.027734	0.999942	0.000709	0.001829	-0.010582	
55193	    0	10.258343	-0.949119	-2.822528	-0.029755	0.426682	-2.075997	0.102417	-0.010559	-0.028442	0.999944	-0.000149	0.002133	-0.010380	
55194	    0	11.970586	-3.524061	-2.841695	-0.303084	0.531970	-2.081530	0.119254	-0.036527	-0.028680	0.999941	-0.001515	0.002660	-0.010407	
55195	    0	12.342481	-5.352899	-3.207405	-0.267797	0.465592	-2.011908	0.122803	-0.054810	-0.032288	0.999946	-0.001339	0.002328	-0.010059	
55196	    0	12.010995	-6.113493	-3.845637	-0.290494	0.423820	-1.899368	0.119440	-0.062327	-0.038620	0.999951	-0.001452	0.002119	-0.009497	
55197	    0	12.254027	-6.402044	-4.468976	-0.262265	0.419624	-1.912720	0.121826	-0.065247	-0.044861	0.999950	-0.001311	0.002098	-0.009563	
55198	    0	12.284732	-6.572632	-4.721237	-0.229076	0.430496	-1.914437	0.122108	-0.066952	-0.047400	0.999950	-0.001145	0.002152	-0.009572	
55199	    0	12.116336	-6.605181	-4.681408	-0.080873	0.348097	-1.972231	0.120422	-0.067261	-0.046997	0.999949	-0.000404	0.001740	-0.009861	
55200	    0	11.896063	-5.589228	-4.669942	0.146106	0.234417	-2.078285	0.118317	-0.057090	-0.046880	0.999945	0.000731	0.001172	-0.010391	
55201	    0	12.623589	-3.744699	-4.241190	0.227551	0.136569	-2.157635	0.125793	-0.038757	-0.042542	0.999941	0.001138	0.000683	-0.010788	
55202	    0	14.148031	-2.022368	-3.503677	0.043870	0.074770	-2.182432	0.141235	-0.021758	-0.035094	0.999940	0.000219	0.000374	-0.010912	
55203	    0	15.013087	-0.784962	-3.596629	-0.212864	0.071908	-2.095833	0.150024	-0.009460	-0.036011	0.999944	-0.001064	0.000360	-0.010479	
55204	    0	13.806793	-1.308014	-2.595852	-0.485429	0.018311	-1.987110	0.137926	-0.014514	-0.025937	0.999948	-0.002427	0.000092	-0.009935	
55205	    0	11.822395	-2.011343	-1.793539	-0.721561	-0.064088	-1.799039	0.118042	-0.021240	-0.017822	0.999952	-0.003608	-0.000320	-0.008995	
55206	    0	10.300135	-1.926352	-1.372798	-0.833332	-0.116922	-1.614784	0.102849	-0.020151	-0.013585	0.999958	-0.004167	-0.000585	-0.008074	
55207	    0	9.326690	-1.952624	-1.053467	-0.885019	-0.150873	-1.352707	0.093140	-0.020203	-0.010376	0.999967	-0.004425	-0.000754	-0.006763	
55208	    0	9.918499	-2.653365	-0.789651	-0.704770	-0.041962	-0.963408	0.099057	-0.027039	-0.007781	0.999982	-0.003524	-0.000210	-0.004817	
55209	    0	10.243306	-2.879841	-1.521944	-0.362969	-0.058746	-0.562287	0.102356	-0.029114	-0.015137	0.999994	-0.001815	-0.000294	-0.002811	
55210	    0	10.254050	-3.072720	-1.533755	0.016022	-0.057983	-0.149727	0.102522	-0.030803	-0.015310	0.999999	0.000080	-0.000290	-0.000749	
55211	    0	9.821880	-2.106402	-2.023820	0.329781	-0.142670	0.318909	0.098267	-0.020874	-0.020203	0.999996	0.001649	-0.000713	0.001595	
55212	    0	9.254720	-0.954628	-1.627803	0.421907	-0.175667	0.807765	0.092599	-0.009138	-0.016216	0.999989	0.002110	-0.000878	0.004039	
55213	    0	8.733040	-0.077276	-0.826749	0.444988	-0.205232	1.308452	0.087341	-0.000183	-0.008179	0.999975	0.002225	-0.001026	0.006542	
55214	    0	8.330320	0.401714	0.050111	0.475700	-0.209049	1.818875	0.083261	0.004773	0.000599	0.999955	0.002378	-0.001045	0.009094	
55215	    0	7.959219	0.434658	0.607056	0.527204	-0.203519	2.309472	0.079529	0.005249	0.006165	0.999928	0.002636	-0.001018	0.011547	
55216	    0	7.430614	0.689408	0.738012	0.625823	-0.240334	2.801992	0.074191	0.007911	0.007493	0.999896	0.003129	-0.001202	0.014009	
55217	    0	6.941107	1.083817	0.469020	0.592259	-0.280775	3.287660	0.069214	0.011963	0.004822	0.999859	0.002961	-0.001404	0.016438	
55218	    0	6.265985	0.934626	0.482369	0.518639	-0.303477	3.712301	0.062465	0.010494	0.004945	0.999823	0.002593	-0.001517	0.018560	
55219	    0	5.487282	0.803752	0.243290	0.476299	-0.400572	4.104909	0.054688	0.009155	0.002563	0.999784	0.002381	-0.002003	0.020523	
55220	    0	5.191439	0.649809	0.046819	0.369294	-0.478594	4.455942	0.051751	0.007651	0.000606	0.999746	0.001846	-0.002393	0.022278	
55221	    0	5.788473	0.258640	0.014682	0.222991	-0.534109	4.776462	0.057800	0.003967	0.000305	0.999710	0.001115	-0.002670	0.023880	
55222	    0	6.824305	-0.089088	0.020714	0.149552	-0.633308	5.054449	0.068235	0.000834	0.000423	0.999675	0.000748	-0.003166	0.025270	
55223	    0	8.151053	0.264492	-0.537846	0.055892	-0.764558	5.341224	0.081421	0.004822	-0.005066	0.999636	0.000279	-0.003822	0.026703	
55224	    0	9.600862	0.991946	-0.905905	-0.224716	-0.833814	5.617325	0.095716	0.012601	-0.008673	0.999596	-0.001123	-0.004169	0.028083	
55225	    0	10.449694	0.767008	-0.774910	-0.524025	-0.863010	5.809099	0.104248	0.010681	-0.007324	0.999565	-0.002620	-0.004314	0.029041	
55226	    0	10.965752	-0.218661	-0.699461	-0.531086	-0.941228	5.930082	0.109690	0.001048	-0.006478	0.999545	-0.002655	-0.004705	0.029646	
55227	    0	11.127838	-1.478977	-0.828608	-0.234258	-1.041381	5.959467	0.111694	-0.011475	-0.007690	0.999541	-0.001171	-0.005206	0.029793	
55228	    0	11.677723	-1.618790	-1.195043	0.311328	-1.220703	5.990964	0.117262	-0.012662	-0.011257	0.999531	0.001556	-0.006103	0.029950	
55229	    0	12.420877	-0.847145	-1.935248	0.664819	-1.313995	6.060247	0.124512	-0.004639	-0.018555	0.999514	0.003324	-0.006569	0.030296	
55230	    0	13.626866	0.100607	-2.216776	0.933427	-1.391651	6.218268	0.136297	0.005344	-0.021201	0.999481	0.004666	-0.006957	0.031086	
55231	    0	15.494512	1.197430	-2.271357	1.048666	-1.405597	6.463305	0.154602	0.017090	-0.021545	0.999439	0.005242	-0.007027	0.032310	
55232	    0	17.618953	2.703779	-1.779456	1.025024	-1.401419	6.712923	0.175266	0.033018	-0.016405	0.999398	0.005124	-0.007006	0.033558	
55233	    0	18.772743	4.116990	-1.018308	1.030186	-1.372627	6.909113	0.186218	0.047668	-0.008667	0.999366	0.005150	-0.006862	0.034538	
55234	    0	19.179803	4.934931	-0.989249	1.244628	-1.391526	7.025931	0.189967	0.056100	-0.008231	0.999339	0.006222	-0.006956	0.035122	
55235	    0	19.857665	5.687191	-1.473793	1.682845	-1.422434	6.953446	0.196533	0.063843	-0.012817	0.999334	0.008412	-0.007111	0.034760	
55236	    0	21.829285	9.052374	-1.978776	1.992843	-1.363474	6.748118	0.215194	0.098001	-0.017362	0.999357	0.009962	-0.006816	0.033733	
55237	    0	22.735650	12.204392	-2.309196	2.083237	-1.230674	6.452693	0.223389	0.129517	-0.020386	0.999406	0.010414	-0.006152	0.032257	
55238	    0	21.867758	12.663560	-2.941470	2.268233	-1.192682	5.940520	0.214947	0.133370	-0.026638	0.999476	0.011339	-0.005962	0.029697	
55239	    0	19.872184	13.263624	-5.369031	2.733249	-1.248161	5.110917	0.195557	0.138367	-0.050598	0.999560	0.013664	-0.006240	0.025551	
55240	    0	19.192156	17.306627	-6.653527	2.930205	-1.280355	4.061960	0.188751	0.177859	-0.062737	0.999665	0.014649	-0.006401	0.020308	
55241	    0	17.796462	24.017739	-5.008299	2.708633	-1.235099	2.948977	0.174683	0.243408	-0.045715	0.999780	0.013542	-0.006175	0.014744	
55242	    0	16.058515	28.668708	-1.433112	2.134782	-1.027335	1.770656	0.158098	0.288219	-0.010444	0.999890	0.010674	-0.005136	0.008853	
55243	    0	14.399621	28.834336	-0.303023	1.355757	-0.646026	0.478368	0.143311	0.288696	-0.000610	0.999969	0.006779	-0.003230	0.002392	
55244	    0	12.538470	25.017506	-1.378121	0.905233	-0.326349	-0.774388	0.126373	0.249745	-0.012444	0.999981	0.004526	-0.001632	-0.003872	
55245	    0	12.195822	21.634141	-2.807440	0.642595	-0.160220	-1.781490	0.123901	0.215332	-0.027283	0.999954	0.003213	-0.000801	-0.008907	
55246	    0	11.470457	18.311189	-2.535204	0.300606	-0.077822	-2.486866	0.116980	0.181705	-0.025033	0.999921	0.001503	-0.000389	-0.012434	
55247	    0	10.670840	15.181005	-1.250994	0.064280	-0.019074	-2.969470	0.108948	0.150208	-0.012451	0.999889	0.000321	-0.000095	-0.014847	
55248	    0	10.720326	13.539507	-1.427961	0.043680	-0.081638	-3.294522	0.109420	0.133608	-0.014206	0.999864	0.000218	-0.000408	-0.016472	
55249	    0	10.549135	13.488372	-1.281966	0.013161	-0.215922	-3.415847	0.107788	0.133057	-0.012695	0.999853	0.000066	-0.001080	-0.017078	
55250	    0	9.472553	17.512465	-8.836974	-0.340481	-0.848627	-3.563128	0.098198	0.173245	-0.088254	0.999830	-0.001702	-0.004243	-0.017815	
55251	    0	6.933717	75.565558	-62.272501	8.102078	-5.150889	-5.269204	0.105103	0.777527	-0.589111	0.998501	0.040490	-0.025742	-0.026333	
55252	    0	81.411794	120.035720	-14.309615	-5.121988	2.861439	-14.985037	0.898189	1.130727	-0.185128	0.996764	-0.025582	0.014292	-0.074844	
55253	    0	58.887264	-21.491071	27.651334	-10.093162	0.995442	-5.856618	0.583923	-0.217834	0.284546	0.998285	-0.050437	0.004974	-0.029266	
55254	    0	16.203525	-73.733389	19.966868	-1.125897	0.004960	-6.088085	0.139525	-0.740670	0.203829	0.999520	-0.005629	0.000025	-0.030436	
55255	    0	-3.066367	17.810318	4.545432	2.287971	0.387656	-6.768717	-0.024536	0.178467	0.047546	0.999359	0.011437	0.001938	-0.033836	
55256	    0	14.141140	14.157259	-10.779588	0.747058	-0.017360	-6.677358	0.146049	0.137149	-0.107265	0.999435	0.003735	-0.000087	-0.033381	
55257	    0	16.665666	8.509478	-3.930995	-1.287088	0.387633	-5.948798	0.169006	0.079834	-0.040161	0.999535	-0.006434	0.001938	-0.029739	
55258	    0	20.124332	-2.750226	1.004393	-1.648141	0.251799	-5.016148	0.200483	-0.032454	0.010045	0.999650	-0.008240	0.001259	-0.025078	
55259	    0	22.016849	1.811884	1.081690	-0.713231	-0.090036	-4.900861	0.220520	0.012756	0.010864	0.999693	-0.003566	-0.000450	-0.024502	
55260	    0	22.660747	10.794060	-0.632492	-1.738543	0.193998	-4.743891	0.229074	0.102465	-0.007453	0.999680	-0.008692	0.000970	-0.023717	
55261	    0	20.610534	-3.032968	0.748632	-3.043471	0.346408	-3.736478	0.205505	-0.034058	0.007629	0.999708	-0.015216	0.001732	-0.018681	
55262	    0	21.236044	-6.906971	0.869799	-2.611175	0.172629	-3.464017	0.211131	-0.072614	0.009448	0.999763	-0.013055	0.000863	-0.017319	
55263	    0	22.543713	-0.042407	1.862623	-2.560619	0.149738	-3.408309	0.225403	-0.004028	0.018494	0.999772	-0.012802	0.000749	-0.017040	
55264	    0	19.691410	-5.765522	2.706770	-2.772327	0.164615	-2.898411	0.196077	-0.060120	0.027728	0.999798	-0.013861	0.000823	-0.014491	
55265	    0	15.061574	-6.082180	1.368276	-2.168946	0.096898	-2.520868	0.149841	-0.062561	0.014282	0.999861	-0.010844	0.000484	-0.012604	
55266	    0	10.850202	-2.168882	0.243121	-1.773317	0.107006	-2.075641	0.108271	-0.022791	0.002572	0.999907	-0.008866	0.000535	-0.010378	
55267	    0	8.188958	-0.138583	-2.017331	-1.519807	0.256544	-1.606784	0.081848	-0.002197	-0.020264	0.999938	-0.007599	0.001283	-0.008034	
55268	    0	8.194265	-4.607932	-3.402490	-1.446361	0.373082	-0.938428	0.081661	-0.046708	-0.033841	0.999961	-0.007232	0.001865	-0.004692	
55269	    0	9.300652	-6.052061	-4.388111	-1.116759	0.343325	-0.318911	0.092834	-0.060913	-0.043701	0.999981	-0.005584	0.001717	-0.001595	
55270	    0	10.211047	-5.379647	-4.166213	-0.750925	0.354196	-0.135231	0.102000	-0.054022	-0.041640	0.999990	-0.003755	0.001771	-0.000676	
55271	    0	9.749817	-3.067732	-4.315090	-0.358391	0.491334	-0.264740	0.097351	-0.030884	-0.043335	0.999994	-0.001792	0.002457	-0.001324	
55272	    0	12.551647	7.783027	-4.342410	0.133897	0.557904	-1.223383	0.125868	0.077090	-0.043723	0.999977	0.000669	0.002789	-0.006117	
55273	    0	14.867923	15.627371	-9.762462	0.798814	0.464830	-2.021068	0.150024	0.155151	-0.097351	0.999938	0.003994	0.002324	-0.010105	
55274	    0	15.759156	13.664226	-9.239540	0.655190	0.526631	-2.218871	0.158854	0.135187	-0.092368	0.999929	0.003276	0.002633	-0.011094	
55275	    0	13.362980	6.781130	-6.408981	0.384720	0.552379	-2.099652	0.134155	0.066528	-0.064331	0.999939	0.001924	0.002762	-0.010498	
55276	    0	12.411682	1.457091	-4.836732	0.293929	0.433740	-2.190064	0.124162	0.013283	-0.048616	0.999936	0.001470	0.002169	-0.010950	
55277	    0	12.006669	-0.328642	-4.506145	0.025368	0.376900	-2.263691	0.119934	-0.004639	-0.045288	0.999933	0.000127	0.001884	-0.011318	
55278	    0	12.612313	-1.584982	-4.309584	-0.415430	0.452052	-2.274947	0.125834	-0.017372	-0.043345	0.999930	-0.002077	0.002260	-0.011374	
55279	    0	14.080068	-4.164046	-4.060431	-0.914598	0.517287	-2.322451	0.140198	-0.043457	-0.040771	0.999918	-0.004573	0.002586	-0.011612	
55280	    0	14.553834	-6.188373	-4.516458	-1.146731	0.473990	-2.303189	0.144704	-0.063812	-0.045146	0.999914	-0.005733	0.002370	-0.011516	
55281	    0	14.003740	-7.226638	-5.021365	-1.284827	0.441182	-2.251499	0.139099	-0.074158	-0.050049	0.999913	-0.006424	0.002206	-0.011257	
55282	    0	13.905397	-8.327160	-5.158441	-1.244963	0.344286	-2.311965	0.137988	-0.085191	-0.051296	0.999912	-0.006225	0.001721	-0.011559	
55283	    0	14.066608	-8.761801	-5.632938	-1.125369	0.287827	-2.381204	0.139526	-0.089600	-0.056030	0.999911	-0.005627	0.001439	-0.011906	
55284	    0	14.299318	-8.423074	-5.033566	-0.769064	0.198561	-2.461884	0.141891	-0.086175	-0.050148	0.999916	-0.003845	0.000993	-0.012309	
55285	    0	14.386152	-6.594715	-5.048630	-0.426495	0.015450	-2.535318	0.143005	-0.067871	-0.050354	0.999917	-0.002132	0.000077	-0.012676	
55286	    0	14.165351	-4.690261	-4.547101	-0.475897	-0.079157	-2.531503	0.141062	-0.048799	-0.045300	0.999916	-0.002379	-0.000396	-0.012657	
55287	    0	13.538977	-2.152531	-3.404521	-0.663776	-0.140957	-2.481148	0.135132	-0.023315	-0.033875	0.999917	-0.003319	-0.000705	-0.012405	
55288	    0	12.575530	-1.134836	-2.619250	-1.052695	-0.152211	-2.331798	0.125630	-0.012951	-0.026031	0.999917	-0.005263	-0.000761	-0.011659	
55289	    0	11.565624	-1.680069	-1.520893	-1.316105	-0.134853	-2.124842	0.115479	-0.018127	-0.015015	0.999921	-0.006580	-0.000674	-0.010624	
55290	    0	10.287673	-2.742109	-0.384831	-1.433979	-0.131992	-1.898620	0.102612	-0.028422	-0.003579	0.999928	-0.007170	-0.000660	-0.009493	
55291	    0	8.879758	-3.481022	0.313799	-1.400785	-0.211911	-1.660952	0.088501	-0.035522	0.003479	0.999940	-0.007004	-0.001060	-0.008305	
55292	    0	7.942798	-4.371059	0.595993	-1.213853	-0.299267	-1.323337	0.079127	-0.044197	0.006346	0.999958	-0.006069	-0.001496	-0.006617	
55293	    0	8.406625	-5.588451	1.126776	-0.748448	-0.283624	-0.886541	0.083801	-0.056213	0.011597	0.999982	-0.003742	-0.001418	-0.004433	
55294	    0	8.775388	-5.808557	0.254588	-0.054169	-0.384903	-0.423432	0.087626	-0.058270	0.002730	0.999995	-0.000271	-0.001925	-0.002117	
55295	    0	8.781553	-5.348946	-0.042608	0.460244	-0.416566	0.049591	0.087830	-0.053467	-0.000366	0.999994	0.002301	-0.002083	0.000248	
55296	    0	8.403750	-3.857915	-0.965067	0.894170	-0.443080	0.575832	0.084169	-0.038294	-0.009636	0.999983	0.004471	-0.002215	0.002879	
55297	    0	7.561190	-2.030996	-0.933969	1.085675	-0.451474	1.117719	0.075745	-0.019836	-0.009277	0.999967	0.005428	-0.002257	0.005589	
55298	    0	7.089324	-0.374130	-0.510999	1.111623	-0.386054	1.717789	0.070931	-0.003104	-0.004992	0.999946	0.005558	-0.001930	0.008589	
55299	    0	6.888385	0.786608	-0.037233	1.039343	-0.245673	2.323214	0.068787	0.008667	-0.000244	0.999918	0.005197	-0.001228	0.011616	
55300	    0	6.446128	0.986758	0.549769	0.950850	-0.106816	2.903670	0.064306	0.010776	0.005582	0.999883	0.004754	-0.000534	0.014518	
55301	    0	6.160750	1.095251	0.280865	0.860643	-0.031854	3.525737	0.061401	0.012024	0.002869	0.999835	0.004303	-0.000159	0.017628	
55302	    0	5.820628	1.102114	-0.217663	0.708823	0.044635	4.132001	0.057961	0.012228	-0.002148	0.999780	0.003544	0.000223	0.020658	
55303	    0	5.392013	1.069611	-0.581514	0.532771	0.051885	4.656646	0.053650	0.011963	-0.005798	0.999725	0.002664	0.000259	0.023281	
55304	    0	4.912401	0.808346	-0.894063	0.248936	0.053412	5.102713	0.048894	0.009344	-0.008943	0.999673	0.001245	0.000267	0.025511	
55305	    0	4.417500	0.313225	-1.067913	0.061806	0.014688	5.432034	0.044067	0.004333	-0.010681	0.999631	0.000309	0.000073	0.027157	
55306	    0	4.754833	0.026727	-1.442797	-0.012781	-0.119989	5.712523	0.047523	0.001624	-0.014400	0.999592	-0.000064	-0.000600	0.028559	
55307	    0	5.869966	-0.093227	-1.704577	-0.169970	-0.266305	5.927384	0.058716	0.000793	-0.016968	0.999559	-0.000850	-0.001331	0.029633	
55308	    0	7.105333	-0.918731	-1.626842	-0.173024	-0.371228	6.126603	0.071321	-0.007019	-0.016129	0.999528	-0.000865	-0.001856	0.030628	
55309	    0	8.169849	-2.238173	-1.681898	0.132201	-0.562381	6.316672	0.082397	-0.019775	-0.016602	0.999496	0.000661	-0.002811	0.031578	
55310	    0	9.573440	-3.057908	-2.028871	0.748198	-0.844346	6.499706	0.096744	-0.027370	-0.019988	0.999455	0.003740	-0.004221	0.032493	
55311	    0	11.772594	-2.500151	-2.101756	1.318053	-1.109538	6.746511	0.118591	-0.020874	-0.020508	0.999393	0.006589	-0.005547	0.033726	
55312	    0	14.232052	-1.849628	-1.998691	1.677313	-1.220020	6.996754	0.142966	-0.013338	-0.019242	0.999334	0.008385	-0.006099	0.034976	
55313	    0	16.884056	-0.420031	-1.683886	1.940051	-1.292731	7.244332	0.168945	0.002075	-0.015747	0.999275	0.009698	-0.006462	0.036213	
55314	    0	19.475228	1.313458	-1.827549	1.918135	-1.307247	7.451613	0.194192	0.020544	-0.016831	0.999238	0.009588	-0.006535	0.037249	
55315	    0	21.611420	2.851965	-2.389610	1.871411	-1.319469	7.608508	0.214966	0.036926	-0.022156	0.999210	0.009355	-0.006596	0.038033	
55316	    0	23.044636	4.238102	-3.728146	1.888399	-1.368889	7.665968	0.228834	0.051514	-0.035254	0.999197	0.009439	-0.006843	0.038320	
55317	    0	23.888931	5.946427	-4.479092	1.948300	-1.406279	7.599362	0.236694	0.068909	-0.042480	0.999206	0.009739	-0.007030	0.037987	
55318	    0	24.965022	8.640164	-5.056714	2.069041	-1.478377	7.351822	0.246598	0.096009	-0.047776	0.999243	0.010343	-0.007390	0.036750	
55319	    0	26.051671	12.572538	-6.126654	2.089606	-1.570496	7.009233	0.256348	0.135376	-0.057861	0.999300	0.010446	-0.007851	0.035038	
55320	    0	24.843989	13.807183	-5.577193	1.835042	-1.509011	6.469481	0.244196	0.146510	-0.052600	0.999406	0.009173	-0.007544	0.032341	
55321	    0	22.040311	15.606094	-5.486958	1.949800	-1.533743	5.532158	0.216370	0.162598	-0.051636	0.999540	0.009748	-0.007668	0.027657	
55322	    0	19.873091	20.547036	-6.589209	1.891139	-1.533665	4.319634	0.194711	0.210306	-0.062415	0.999692	0.009455	-0.007668	0.021596	
55323	    0	18.260555	28.710669	-2.957132	1.231449	-1.312897	3.073283	0.178345	0.290039	-0.026611	0.999841	0.006157	-0.006564	0.015366	
55324	    0	14.530248	31.934613	0.514265	0.425536	-0.840391	1.668956	0.142606	0.320531	0.006427	0.999953	0.002128	-0.004202	0.008345	
55325	    0	11.362760	26.024968	0.336056	0.173187	-0.349236	0.120545	0.113464	0.260315	0.003784	0.999997	0.000866	-0.001746	0.000603	
55326	    0	12.382369	22.328272	-1.745334	0.314524	-0.071526	-1.238831	0.125210	0.222537	-0.017058	0.999979	0.001573	-0.000358	-0.006194	
55327	    0	12.440488	19.315613	-1.989603	0.264936	0.019074	-2.144665	0.126465	0.191833	-0.019653	0.999941	0.001325	0.000095	-0.010723	
55328	    0	11.633044	15.728315	-0.601367	0.150304	0.074961	-2.801415	0.118516	0.155638	-0.005940	0.999901	0.000751	0.000375	-0.014007	
55329	    0	10.780054	13.179952	1.670080	0.323501	0.121503	-3.236532	0.109924	0.130005	0.016846	0.999867	0.001617	0.000607	-0.016182	
55330	    0	9.836918	13.184678	3.194455	0.540761	0.113875	-3.488531	0.100666	0.130017	0.032241	0.999844	0.002704	0.000569	-0.017442	
55331	    0	9.230619	13.249025	3.764710	0.705758	0.052074	-3.579147	0.094666	0.130676	0.038086	0.999833	0.003529	0.000260	-0.017895	
55332	    0	8.580129	12.504674	-1.159521	0.905277	-0.340099	-3.488159	0.087984	0.123575	-0.010885	0.999836	0.004526	-0.001700	-0.017440	
55333	    0	2.507891	45.679552	-38.019951	5.499368	-3.872929	-4.172079	0.041931	0.466248	-0.366760	0.999216	0.027490	-0.019360	-0.020855	
55334	    0	46.730109	138.501289	-46.453154	3.083033	-0.598132	-11.755756	0.549157	1.361256	-0.441855	0.998149	0.015406	-0.002989	-0.058743	
55335	    0	65.383600	40.192340	12.784967	-9.924718	1.584412	-9.892839	0.673706	0.374451	0.103516	0.997515	-0.049582	0.007915	-0.049423	
55336	    0	29.687552	-81.474930	10.870005	-3.777947	-0.464685	-3.692297	0.281518	-0.817785	0.124796	0.999648	-0.018888	-0.002323	-0.018459	
55337	    0	-7.498592	2.844198	5.137903	-0.371417	0.676830	-5.988458	-0.073914	0.030762	0.051575	0.999544	-0.001857	0.003384	-0.029938	
55338	    0	18.123719	11.337291	-1.665835	0.610828	0.235785	-6.068599	0.184546	0.107857	-0.016540	0.999534	0.003054	0.001179	-0.030338	
55339	    0	28.736322	9.782130	0.308249	-0.690568	0.519071	-6.070134	0.290161	0.089050	0.002014	0.999530	-0.003452	0.002595	-0.030346	
55340	    0	23.000998	-3.845627	8.070529	-1.167225	0.297195	-4.792701	0.229128	-0.043484	0.080608	0.999694	-0.005836	0.001486	-0.023961	
55341	    0	19.838082	-1.941325	4.979895	-0.388945	0.099954	-4.716169	0.197876	-0.023987	0.049744	0.999720	-0.001945	0.000500	-0.023579	
55342	    0	21.414133	9.774878	3.471376	-0.619566	0.215169	-4.730293	0.216412	0.092754	0.034189	0.999715	-0.003098	0.001076	-0.023649	
55343	    0	21.924565	0.277929	2.895888	-1.806017	0.358800	-3.884424	0.219299	-0.001221	0.028564	0.999768	-0.009029	0.001794	-0.019421	
55344	    0	20.593477	-8.123749	0.623048	-1.950389	0.281161	-3.400258	0.204524	-0.084659	0.006757	0.999806	-0.009751	0.001406	-0.017000	
55345	    0	21.126535	-2.491500	-1.031618	-1.992156	0.140580	-3.247267	0.210815	-0.028442	-0.010193	0.999818	-0.009960	0.000703	-0.016235	
55346	    0	19.702831	-2.808906	0.129952	-2.105443	0.129325	-2.871665	0.196599	-0.030899	0.001488	0.999841	-0.010527	0.000647	-0.014358	
55347	    0	14.940901	-6.248358	-0.835038	-1.991927	0.130468	-2.456768	0.148621	-0.064392	-0.007812	0.999874	-0.009959	0.000652	-0.012283	
55348	    0	11.562987	-5.145430	-1.768853	-1.719140	0.088503	-1.902823	0.115125	-0.052701	-0.017290	0.999917	-0.008595	0.000443	-0.009514	
55349	    0	9.770457	-2.937914	-3.041298	-1.281758	0.107767	-1.435111	0.097473	-0.030273	-0.030273	0.999953	-0.006409	0.000539	-0.007175	
55350	    0	10.391192	-5.626655	-4.242483	-1.169215	0.082780	-0.827987	0.103660	-0.056943	-0.042136	0.999974	-0.005846	0.000414	-0.004140	
55351	    0	11.190140	-5.730172	-5.035708	-1.053625	0.100899	-0.418856	0.111755	-0.057800	-0.050110	0.999984	-0.005268	0.000504	-0.002094	
55352	    0	9.909822	-2.941834	-6.971300	-0.762751	0.039673	-0.477792	0.099013	-0.029921	-0.069619	0.999990	-0.003814	0.000198	-0.002389	
55353	    0	11.715114	10.549165	-8.089544	-0.108338	0.070382	-1.520553	0.117920	0.104553	-0.080994	0.999970	-0.000542	0.000352	-0.007603	
55354	    0	13.695573	20.612048	-10.565663	-0.279625	0.353251	-2.611046	0.139442	0.204163	-0.106188	0.999911	-0.001398	0.001766	-0.013055	
55355	    0	14.016480	11.703666	-5.336083	-1.251072	0.769069	-2.422414	0.141357	0.114990	-0.054626	0.999899	-0.006255	0.003845	-0.012112	
55356	    0	13.792334	3.818231	-0.112684	-1.565417	0.984990	-2.270970	0.138336	0.036599	-0.002098	0.999892	-0.007827	0.004925	-0.011354	
55357	    0	12.792677	0.672949	0.036773	-1.322787	0.896482	-2.217934	0.127991	0.005310	-0.000244	0.999907	-0.006614	0.004482	-0.011089	
55358	    0	11.493982	-0.882192	-1.984328	-1.069287	0.789281	-2.084404	0.114759	-0.010126	-0.020245	0.999923	-0.005346	0.003946	-0.010422	
55359	    0	11.788155	-2.849403	-3.452577	-1.158173	0.843261	-2.061517	0.117432	-0.029907	-0.034851	0.999921	-0.005791	0.004216	-0.010307	
55360	    0	12.652346	-5.129692	-4.114367	-1.113540	0.844787	-2.097567	0.125800	-0.052849	-0.041385	0.999920	-0.005568	0.004224	-0.010488	
55361	    0	12.722923	-6.599315	-4.495364	-0.813886	0.669877	-2.194268	0.126343	-0.067566	-0.045105	0.999926	-0.004069	0.003349	-0.010971	
55362	    0	12.693655	-6.363996	-4.835055	-0.530637	0.562682	-2.292689	0.126059	-0.065217	-0.048534	0.999927	-0.002653	0.002813	-0.011463	
55363	    0	12.894366	-5.955134	-4.587894	-0.367746	0.489247	-2.369749	0.128113	-0.061157	-0.046082	0.999925	-0.001839	0.002446	-0.011848	
55364	    0	13.120761	-6.046564	-4.069412	-0.129512	0.410090	-2.442995	0.130372	-0.062088	-0.040922	0.999923	-0.000648	0.002050	-0.012215	
55365	    0	13.391974	-5.356035	-3.703756	0.036622	0.275619	-2.523109	0.133179	-0.055237	-0.037231	0.999919	0.000183	0.001378	-0.012615	
55366	    0	13.528521	-3.962212	-3.415765	0.013352	0.182729	-2.590824	0.134726	-0.041368	-0.034284	0.999915	0.000067	0.000914	-0.012954	
55367	    0	13.660294	-2.616376	-2.709400	-0.160222	0.129894	-2.594067	0.136230	-0.027954	-0.027161	0.999915	-0.000801	0.000649	-0.012970	
55368	    0	13.555897	-1.816995	-2.603263	-0.434506	0.078776	-2.552867	0.135302	-0.019955	-0.026044	0.999916	-0.002172	0.000394	-0.012764	
55369	    0	12.974781	-2.208503	-2.084081	-0.721570	0.086214	-2.442998	0.129456	-0.023743	-0.020813	0.999918	-0.003608	0.000431	-0.012215	
55370	    0	11.970935	-3.185552	-1.760392	-0.812169	0.020218	-2.275904	0.119334	-0.033286	-0.017483	0.999927	-0.004061	0.000101	-0.011379	
55371	    0	10.605218	-3.770018	-1.587872	-0.769059	-0.084497	-2.114913	0.105652	-0.038879	-0.015686	0.999936	-0.003845	-0.000422	-0.010574	
55372	    0	9.081681	-3.693993	-1.341323	-0.684559	-0.202182	-1.911959	0.090471	-0.037851	-0.013193	0.999948	-0.003423	-0.001011	-0.009560	
55373	    0	7.863486	-3.300782	-0.925584	-0.643739	-0.292973	-1.667808	0.078369	-0.033691	-0.009033	0.999958	-0.003219	-0.001465	-0.008339	
55374	    0	7.567651	-3.323169	-0.394446	-0.526624	-0.311473	-1.367582	0.075453	-0.033758	-0.003738	0.999971	-0.002633	-0.001557	-0.006838	
55375	    0	8.483480	-3.619864	-0.196137	-0.077057	-0.274469	-0.995640	0.084656	-0.036621	-0.001831	0.999986	-0.000385	-0.001372	-0.004978	
55376	    0	9.260977	-3.122217	-0.656234	0.389482	-0.258065	-0.596620	0.092525	-0.031486	-0.006504	0.999992	0.001947	-0.001290	-0.002983	
55377	    0	9.435860	-2.466277	-1.367575	0.840762	-0.227929	-0.112152	0.094360	-0.024658	-0.013672	0.999990	0.004204	-0.001140	-0.000561	
55378	    0	8.511884	-1.287505	-2.082398	1.095206	-0.265123	0.398829	0.085172	-0.012591	-0.020781	0.999982	0.005476	-0.001326	0.001994	
55379	    0	7.499564	0.123531	-1.817564	1.107799	-0.268367	0.995645	0.075012	0.001709	-0.018066	0.999970	0.005539	-0.001342	0.004978	
55380	    0	6.847856	0.879071	-1.444525	1.005951	-0.198939	1.614977	0.068419	0.009416	-0.014331	0.999954	0.005030	-0.000995	0.008075	
55381	    0	6.100320	0.820162	-0.850132	0.972962	-0.119021	2.193504	0.060913	0.008911	-0.008423	0.999928	0.004865	-0.000595	0.010967	
55382	    0	5.416509	0.855268	-0.596235	0.953135	-0.076487	2.727031	0.054044	0.009318	-0.005898	0.999895	0.004766	-0.000382	0.013635	
55383	    0	4.987226	1.111127	-0.890783	0.878948	-0.025750	3.267063	0.049683	0.011963	-0.008850	0.999856	0.004395	-0.000129	0.016335	
55384	    0	4.482609	1.354445	-1.253206	0.725028	-0.025942	3.780980	0.044560	0.014434	-0.012475	0.999814	0.003625	-0.000130	0.018904	
55385	    0	3.894254	1.982349	-1.666772	0.462377	-0.098236	4.288815	0.038513	0.020691	-0.016602	0.999766	0.002312	-0.000491	0.021442	
55386	    0	3.225281	2.167885	-1.768382	0.092324	-0.114070	4.736962	0.031737	0.022443	-0.017655	0.999719	0.000462	-0.000570	0.023683	
55387	    0	2.727695	1.415589	-1.246109	-0.189039	-0.175495	5.084778	0.026917	0.014832	-0.012451	0.999676	-0.000945	-0.000877	0.025421	
55388	    0	3.153784	1.099547	-1.417527	-0.267824	-0.383614	5.373653	0.031255	0.011819	-0.014131	0.999636	-0.001339	-0.001918	0.026865	
55389	    0	4.576976	0.900592	-1.468614	-0.511811	-0.543286	5.635830	0.045532	0.010254	-0.014587	0.999596	-0.002559	-0.002716	0.028175	
55390	    0	6.192983	0.557131	-1.306693	-0.754850	-0.744548	5.867492	0.061780	0.007337	-0.012862	0.999556	-0.003774	-0.003722	0.029333	
55391	    0	7.313327	0.126083	-1.390541	-0.832500	-1.003235	6.054892	0.073120	0.003418	-0.013550	0.999520	-0.004162	-0.005015	0.030270	
55392	    0	8.177200	-0.895043	-1.397766	-0.711561	-1.264213	6.188099	0.082084	-0.006462	-0.013433	0.999495	-0.003557	-0.006320	0.030935	
55393	    0	9.113732	-1.976161	-1.313525	-0.282909	-1.571930	6.273220	0.091797	-0.016907	-0.012390	0.999475	-0.001414	-0.007858	0.031361	
55394	    0	10.946102	-2.039645	-1.200148	0.273755	-1.876226	6.398816	0.110145	-0.016864	-0.010995	0.999443	0.001369	-0.009379	0.031988	
55395	    0	13.227972	-1.718564	-0.727788	0.689834	-2.028867	6.552659	0.132812	-0.012817	-0.005981	0.999406	0.003448	-0.010142	0.032757	
55396	    0	15.693165	-0.442056	-0.005922	1.004622	-2.117796	6.730360	0.156951	0.000856	0.001598	0.999365	0.005022	-0.010587	0.033645	
55397	    0	18.282863	1.324595	0.217190	1.168511	-2.057342	6.913006	0.182190	0.019531	0.004150	0.999332	0.005841	-0.010284	0.034557	
55398	    0	20.732791	3.134231	0.501982	1.256468	-1.915036	7.063390	0.205988	0.038593	0.007224	0.999310	0.006281	-0.009573	0.035309	
55399	    0	22.471456	5.277883	0.314361	1.378382	-1.800196	7.149656	0.222595	0.060730	0.005554	0.999296	0.006890	-0.008999	0.035740	
55400	    0	23.420938	8.154796	0.505519	1.314273	-1.607500	7.117566	0.231058	0.089766	0.007493	0.999312	0.006570	-0.008036	0.035580	
55401	    0	23.402864	10.291828	0.312803	1.189679	-1.275719	6.971715	0.230225	0.110962	0.005249	0.999354	0.005947	-0.006377	0.034851	
55402	    0	22.632743	9.709317	-0.211741	1.371653	-1.009567	6.655858	0.222935	0.104557	-0.000286	0.999410	0.006857	-0.005047	0.033273	
55403	    0	21.892139	9.534167	-2.536866	1.978837	-0.981311	6.077108	0.216003	0.102173	-0.023315	0.999477	0.009892	-0.004906	0.030380	
55404	    0	20.268435	11.848973	-7.145268	2.781527	-1.189985	5.218916	0.199898	0.124698	-0.068552	0.999545	0.013906	-0.005949	0.026091	
55405	    0	18.907771	17.099588	-8.232634	2.923343	-1.245258	4.130259	0.185974	0.176025	-0.078613	0.999660	0.014615	-0.006226	0.020649	
55406	    0	17.684319	24.597775	-4.093974	2.586358	-1.233570	2.977965	0.173385	0.249069	-0.036655	0.999786	0.012931	-0.006167	0.014889	
55407	    0	16.557440	28.917744	0.825929	1.882425	-1.039158	1.845612	0.162842	0.290588	0.011841	0.999899	0.009412	-0.005196	0.009228	
55408	    0	14.657696	29.155427	1.599985	1.102266	-0.570683	0.687033	0.145525	0.291960	0.018024	0.999974	0.005511	-0.002853	0.003435	
55409	    0	12.280138	25.399918	-0.682849	0.580789	-0.178528	-0.477601	0.123413	0.253723	-0.005981	0.999992	0.002904	-0.000893	-0.002388	
55410	    0	11.392433	21.124224	-2.932931	0.505262	-0.042916	-1.569003	0.115583	0.210413	-0.028772	0.999966	0.002526	-0.000215	-0.007845	
55411	    0	10.970734	16.721271	-2.728807	0.766775	-0.070002	-2.450629	0.111755	0.165955	-0.026611	0.999917	0.003834	-0.000350	-0.012253	
55412	    0	10.930052	14.050914	-2.598957	1.019144	-0.173958	-3.180461	0.111540	0.138877	-0.025183	0.999860	0.005095	-0.000870	-0.015902	
55413	    0	10.632987	14.309980	-1.399793	1.059213	-0.229658	-3.582973	0.108887	0.141235	-0.013123	0.999825	0.005296	-0.001148	-0.017914	
55414	    0	10.114434	17.616221	-2.756017	0.820403	-0.447302	-3.811127	0.104538	0.174302	-0.026611	0.999807	0.004102	-0.002236	-0.019054	
55415	    0	6.301739	51.487545	-34.324157	4.651240	-3.552151	-4.874836	0.081604	0.520813	-0.329834	0.999274	0.023251	-0.017756	-0.024368	
55416	    0	53.191134	137.281751	-43.187674	0.679641	0.167954	-12.361410	0.615000	1.337961	-0.427782	0.998084	0.003396	0.000839	-0.061768	
55417	    0	61.269179	10.738276	27.933071	-9.675320	1.999540	-8.402036	0.619568	0.094604	0.268372	0.997898	-0.048343	0.009991	-0.041981	
55418	    0	26.320814	-69.905777	13.868130	-1.865408	-0.184462	-4.873066	0.245964	-0.703856	0.145464	0.999659	-0.009326	-0.000922	-0.024363	
55419	    0	-2.609396	8.763361	7.698978	1.553079	0.729514	-6.660248	-0.022888	0.087830	0.077759	0.999409	0.007764	0.003647	-0.033295	
55420	    0	18.357161	15.964378	-2.955306	1.671905	0.433238	-6.384869	0.188484	0.153920	-0.028655	0.999453	0.008358	0.002166	-0.031919	
55421	    0	22.258105	13.233408	3.153169	-0.297397	0.785938	-5.742688	0.226379	0.125916	0.030457	0.999578	-0.001487	0.003929	-0.028709	
55422	    0	20.888064	-4.513612	7.099763	-0.544787	0.496336	-4.547140	0.207961	-0.049679	0.070612	0.999734	-0.002724	0.002481	-0.022734	
55423	    0	18.332863	4.394088	1.906606	0.010873	0.226612	-4.439910	0.184265	0.039856	0.018860	0.999752	0.000054	0.001133	-0.022198	
55424	    0	19.299407	9.626078	0.211060	-1.069146	0.203338	-4.026514	0.194881	0.092359	0.001412	0.999782	-0.005345	0.001017	-0.020131	
55425	    0	19.190484	-2.681531	1.567677	-2.015803	0.164995	-3.138152	0.191467	-0.029663	0.015808	0.999825	-0.010078	0.000825	-0.015690	
55426	    0	21.609612	-5.283685	0.997335	-2.038294	0.070957	-2.796122	0.215334	-0.055746	0.010455	0.999850	-0.010191	0.000355	-0.013980	
55427	    0	22.411582	-0.233944	-1.059111	-2.393272	0.017548	-2.538428	0.224060	-0.005310	-0.010559	0.999847	-0.011966	0.000088	-0.012691	
55428	    0	20.176764	-4.847553	-1.467272	-2.644472	0.049784	-2.060414	0.201249	-0.050739	-0.014062	0.999859	-0.013222	0.000249	-0.010302	
55429	    0	16.690219	-6.832189	-1.793784	-2.200959	0.118259	-1.646475	0.166321	-0.069885	-0.017273	0.999905	-0.011004	0.000591	-0.008232	
55430	    0	14.368144	-6.343334	-3.683084	-1.918452	0.150302	-1.158739	0.143282	-0.064614	-0.036323	0.999936	-0.009592	0.000751	-0.005794	
55431	    0	13.749173	-6.234961	-5.233177	-1.701952	0.211337	-0.729381	0.137207	-0.063293	-0.051941	0.999956	-0.008510	0.001057	-0.003647	
55432	    0	13.174924	-10.439058	-4.974782	-1.553551	0.114061	-0.210573	0.131611	-0.104912	-0.049009	0.999969	-0.007768	0.000570	-0.001053	
55433	    0	12.689694	-9.775827	-4.979162	-1.364146	0.112344	-0.077820	0.126831	-0.098145	-0.049194	0.999976	-0.006821	0.000562	-0.000389	
55434	    0	10.237744	-3.688472	-5.055967	-1.435675	0.189783	-0.385670	0.102258	-0.037444	-0.050389	0.999971	-0.007178	0.000949	-0.001928	
55435	    0	13.168544	13.400009	-6.280862	-1.147486	0.594534	-1.888316	0.132751	0.132385	-0.063965	0.999934	-0.005737	0.002973	-0.009441	
55436	    0	16.493006	18.154257	-12.475420	-0.449581	0.722153	-3.058753	0.167225	0.178715	-0.125759	0.999873	-0.002248	0.003611	-0.015293	
55437	    0	14.121877	9.744286	-10.906757	-0.779563	0.595116	-2.881734	0.142273	0.094971	-0.109863	0.999884	-0.003898	0.002975	-0.014408	
55438	    0	13.413819	0.901498	-6.538663	-0.987659	0.585576	-2.612966	0.134046	0.006939	-0.065817	0.999898	-0.004938	0.002928	-0.013064	
55439	    0	13.003273	-2.738446	-4.873951	-0.859863	0.515193	-2.719211	0.129517	-0.029358	-0.048950	0.999894	-0.004299	0.002576	-0.013596	
55440	    0	12.708078	-2.976308	-4.719015	-0.880274	0.501270	-2.806958	0.126526	-0.031750	-0.047371	0.999888	-0.004401	0.002506	-0.014034	
55441	    0	13.537131	-4.573184	-4.398873	-1.142739	0.516531	-2.861139	0.134583	-0.047913	-0.044067	0.999878	-0.005713	0.002583	-0.014305	
55442	    0	14.256991	-6.928592	-4.383967	-1.558763	0.498606	-3.043326	0.141381	-0.071784	-0.043640	0.999850	-0.007793	0.002493	-0.015216	
55443	    0	12.233289	-7.406140	-3.947267	-1.548077	0.286307	-2.973315	0.121155	-0.076172	-0.039062	0.999858	-0.007740	0.001431	-0.014866	
55444	    0	10.872852	-7.475377	-4.071245	-1.476352	0.123792	-2.876216	0.107611	-0.076605	-0.040218	0.999868	-0.007381	0.000619	-0.014380	
55445	    0	11.355129	-7.463326	-4.311657	-1.573057	0.038912	-2.780270	0.112488	-0.076538	-0.042542	0.999872	-0.007865	0.000195	-0.013901	
55446	    0	12.225093	-7.221066	-3.964846	-1.867757	0.052645	-2.634544	0.121272	-0.074179	-0.038994	0.999869	-0.009338	0.000263	-0.013172	
55447	    0	13.036487	-7.042016	-3.485244	-2.024738	0.082401	-2.495682	0.129456	-0.072388	-0.034180	0.999870	-0.010123	0.000412	-0.012478	
55448	    0	13.430212	-6.783045	-2.275924	-2.080624	0.076488	-2.424725	0.133456	-0.069684	-0.022092	0.999872	-0.010403	0.000382	-0.012123	
55449	    0	13.622975	-5.979405	-1.106676	-1.982196	0.052073	-2.391911	0.135498	-0.061523	-0.010498	0.999879	-0.009911	0.000260	-0.011959	
55450	    0	13.371029	-4.284150	-0.478123	-1.801177	0.000572	-2.393812	0.133184	-0.044478	-0.004386	0.999887	-0.009006	0.000003	-0.011969	
55451	    0	12.994016	-3.011216	0.064949	-1.700460	-0.002289	-2.330098	0.129578	-0.031616	0.000916	0.999895	-0.008502	-0.000011	-0.011650	
55452	    0	12.696101	-2.856967	1.516566	-1.656776	0.117306	-2.227473	0.126642	-0.029855	0.015335	0.999903	-0.008284	0.000587	-0.011137	
55453	    0	11.352217	-3.098920	2.325728	-1.457825	0.196844	-2.053125	0.113220	-0.031982	0.023376	0.999920	-0.007289	0.000984	-0.010265	
55454	    0	9.596216	-3.901126	2.610395	-1.052686	0.219158	-1.833187	0.095629	-0.039751	0.026207	0.999943	-0.005263	0.001096	-0.009166	
55455	    0	7.966501	-4.413281	2.577436	-0.517088	0.180056	-1.539629	0.079346	-0.044678	0.025818	0.999966	-0.002585	0.000900	-0.007698	
55456	    0	6.503968	-4.265559	2.275045	0.063134	0.059891	-1.258095	0.064776	-0.043071	0.022717	0.999980	0.000316	0.000299	-0.006290	
55457	    0	5.761037	-3.611748	1.705657	0.579074	-0.057030	-0.943761	0.057434	-0.036438	0.016968	0.999984	0.002895	-0.000285	-0.004719	
55458	    0	6.665443	-3.478416	1.120969	1.119430	-0.048256	-0.510028	0.066563	-0.035016	0.011030	0.999981	0.005597	-0.000241	-0.002550	
55459	    0	7.379090	-2.321192	-0.234477	1.630420	-0.085259	-0.003815	0.073792	-0.023193	-0.002502	0.999967	0.008152	-0.000426	-0.000019	
55460	    0	7.760674	-0.968131	-0.512677	1.576442	0.057984	0.561911	0.077632	-0.009422	-0.005224	0.999965	0.007882	0.000290	0.002810	
55461	    0	7.646407	-0.489685	-1.417310	1.597622	0.190929	1.175709	0.076477	-0.004333	-0.014282	0.999949	0.007988	0.000955	0.005878	
55462	    0	6.694302	0.108189	-2.194045	1.658480	0.235563	1.756902	0.066903	0.001852	-0.022006	0.999926	0.008292	0.001178	0.008784	
55463	    0	5.997216	1.515048	-2.458165	1.600892	0.269327	2.357563	0.059753	0.016052	-0.024536	0.999897	0.008004	0.001347	0.011787	
55464	    0	5.823814	3.052186	-2.693063	1.283702	0.428981	2.943931	0.057721	0.031547	-0.026855	0.999868	0.006418	0.002145	0.014719	
55465	    0	5.244105	3.501736	-1.958846	0.890400	0.625836	3.486064	0.051758	0.036011	-0.019592	0.999833	0.004452	0.003129	0.017429	
55466	    0	4.678567	3.099663	-1.471524	0.641105	0.713590	4.014300	0.046098	0.031974	-0.014779	0.999786	0.003205	0.003568	0.020070	
55467	    0	4.317021	2.425894	-1.766499	0.498434	0.740880	4.516237	0.042542	0.025269	-0.017761	0.999735	0.002492	0.003704	0.022579	
55468	    0	3.992732	2.002320	-1.955775	0.366249	0.704076	4.951233	0.039346	0.021038	-0.019659	0.999685	0.001831	0.003520	0.024754	
55469	    0	4.013003	2.290189	-2.125988	0.135057	0.596883	5.397697	0.039429	0.023987	-0.021362	0.999631	0.000675	0.002984	0.026985	
55470	    0	4.208088	2.093085	-1.921894	-0.077831	0.447145	5.782366	0.041409	0.022127	-0.019320	0.999579	-0.000389	0.002235	0.028908	
55471	    0	4.915592	1.922666	-1.818012	-0.174740	0.212321	6.073934	0.048523	0.020691	-0.018250	0.999537	-0.000874	0.001061	0.030365	
55472	    0	6.142736	1.227175	-1.570003	-0.199160	0.000572	6.271056	0.061003	0.014174	-0.015714	0.999508	-0.000996	0.000003	0.031350	
55473	    0	7.241736	0.025497	-1.623672	0.087181	-0.338802	6.357122	0.072388	0.002563	-0.016113	0.999493	0.000436	-0.001694	0.031780	
55474	    0	8.340397	-0.917597	-2.346800	0.737131	-0.778337	6.451421	0.083731	-0.006392	-0.023170	0.999465	0.003685	-0.003891	0.032251	
55475	    0	10.051613	-0.096708	-2.889357	1.452351	-1.240784	6.606832	0.100647	0.002563	-0.028259	0.999409	0.007260	-0.006203	0.033028	
55476	    0	11.923862	1.707455	-2.542521	1.884105	-1.583633	6.775988	0.118759	0.021337	-0.024296	0.999350	0.009418	-0.007916	0.033873	
55477	    0	14.028463	4.091995	-2.058466	1.917709	-1.777868	6.962664	0.138916	0.045959	-0.018921	0.999309	0.009586	-0.008887	0.034805	
55478	    0	15.428738	5.026913	-1.275835	1.875755	-1.886439	7.107533	0.152477	0.055818	-0.010808	0.999280	0.009377	-0.009430	0.035529	
55479	    0	16.132695	4.916230	-1.439190	2.053773	-1.971164	7.190207	0.159546	0.055054	-0.012268	0.999252	0.010266	-0.009853	0.035942	
55480	    0	18.096030	6.287101	-2.630894	2.306578	-2.019448	7.235672	0.178770	0.069650	-0.023719	0.999228	0.011530	-0.010095	0.036169	
55481	    0	20.978138	10.006441	-4.576616	2.227031	-2.034529	7.328425	0.206360	0.108154	-0.042480	0.999214	0.011132	-0.010170	0.036633	
55482	    0	22.933904	13.328400	-6.014059	1.485244	-1.893137	7.379859	0.224753	0.142066	-0.056965	0.999247	0.007424	-0.009463	0.036890	
55483	    0	23.717817	14.107840	-5.401117	0.604579	-1.703277	7.251138	0.232300	0.149719	-0.051575	0.999302	0.003022	-0.008514	0.036247	
55484	    0	23.869928	13.266929	-4.161305	0.009539	-1.495849	6.733894	0.234356	0.140612	-0.039843	0.999405	0.000048	-0.007478	0.033663	
55485	    0	23.005622	11.522291	-3.868350	0.268788	-1.400976	5.965596	0.226746	0.122070	-0.036926	0.999529	0.001344	-0.007004	0.029823	
55486	    0	20.865593	8.699083	-3.988108	1.374223	-1.531789	5.026863	0.206672	0.092466	-0.037670	0.999631	0.006870	-0.007658	0.025131	
55487	    0	19.023367	10.468242	-4.386784	2.376983	-1.665662	3.919608	0.188477	0.108887	-0.041016	0.999702	0.011884	-0.008327	0.019596	
55488	    0	17.318669	16.790672	-2.065539	2.411239	-1.519495	2.792734	0.170958	0.170527	-0.017305	0.999801	0.012055	-0.007597	0.013963	
55489	    0	16.194072	23.876386	2.242463	1.912947	-1.221509	1.822727	0.159607	0.239990	0.025696	0.999893	0.009564	-0.006107	0.009113	
55490	    0	13.212085	24.731394	3.891563	1.127064	-0.742538	0.753219	0.131040	0.247582	0.040798	0.999969	0.005635	-0.003713	0.003766	
55491	    0	11.875130	20.004472	1.951515	0.636293	-0.292016	-0.357820	0.119080	0.199768	0.020325	0.999991	0.003181	-0.001460	-0.001789	
55492	    0	11.226370	15.352037	-0.065990	0.439075	-0.102425	-1.254663	0.113224	0.152813	-0.000266	0.999977	0.002195	-0.000512	-0.006273	
55493	    0	9.329177	11.004898	-0.256016	0.585184	-0.090600	-1.838713	0.094299	0.109192	-0.002197	0.999953	0.002926	-0.000453	-0.009193	
55494	    0	8.174962	9.116726	1.172124	0.842306	-0.133518	-2.292309	0.082779	0.090172	0.012157	0.999925	0.004211	-0.000668	-0.011461	
55495	    0	7.783041	8.267073	2.542222	0.966674	-0.154691	-2.555927	0.078857	0.081543	0.025879	0.999906	0.004833	-0.000773	-0.012779	
55496	    0	7.723973	6.923780	3.149237	1.020274	-0.109485	-2.600945	0.078113	0.068064	0.031884	0.999902	0.005101	-0.000547	-0.013004	
55497	    0	7.466326	4.954917	2.467557	0.915553	-0.008202	-2.431556	0.075256	0.048523	0.024902	0.999915	0.004578	-0.000041	-0.012157	
55498	    0	7.981666	4.560989	1.046490	0.483904	-0.013161	-2.138944	0.080297	0.044727	0.010579	0.999939	0.002419	-0.000066	-0.010695	
55499	    0	8.824556	9.041073	-4.519390	-0.170901	-0.372892	-1.876097	0.089172	0.089539	-0.045105	0.999953	-0.000854	-0.001864	-0.009380	
55500	    0	5.542108	61.380107	-49.757510	6.239179	-4.464270	-3.021905	0.075635	0.627849	-0.476593	0.999149	0.031187	-0.022315	-0.015105	
55501	    0	65.142514	161.976630	-59.483074	0.209379	-0.583283	-12.763504	0.754639	1.574402	-0.591064	0.997959	0.001046	-0.002914	-0.063774	
55502	    0	54.743158	-12.327231	11.420482	-10.709676	1.556622	-8.048243	0.542952	-0.138969	0.117130	0.997726	-0.053508	0.007777	-0.040211	
55503	    0	28.425129	-92.709078	5.312914	-2.343140	-0.352530	-5.443609	0.258789	-0.933655	0.064514	0.999559	-0.011714	-0.001762	-0.027214	
55504	    0	-3.915142	26.646887	7.210761	1.085061	0.492741	-5.853951	-0.031159	0.267062	0.073639	0.999554	0.005424	0.002463	-0.029265	
55505	    0	22.160036	23.432818	-4.823795	-1.468870	-0.053223	-5.687769	0.228149	0.227539	-0.049866	0.999568	-0.007343	-0.000266	-0.028435	
55506	    0	24.753037	-2.175445	7.786267	-2.987540	0.447339	-5.134579	0.247057	-0.026940	0.077686	0.999556	-0.014935	0.002236	-0.025669	
55507	    0	26.071202	-12.440131	15.476752	-1.376279	0.193041	-4.493365	0.257996	-0.129150	0.155396	0.999723	-0.006881	0.000965	-0.022465	
55508	    0	20.463940	4.152223	8.106657	-0.680992	0.187130	-4.869380	0.205649	0.036798	0.080744	0.999697	-0.003405	0.000936	-0.024344	
55509	    0	20.599833	9.073674	4.486137	-1.329923	0.261139	-4.442233	0.208008	0.086426	0.044006	0.999730	-0.006649	0.001306	-0.022209	
55510	    0	23.411929	-3.422224	4.562516	-2.054178	0.424798	-3.683366	0.233539	-0.038059	0.045506	0.999775	-0.010270	0.002124	-0.018415	
55511	    0	24.781852	-6.974699	3.431475	-1.991963	0.246444	-3.206826	0.246704	-0.073364	0.034729	0.999821	-0.009959	0.001232	-0.016033	
55512	    0	22.371752	-1.519894	-0.201005	-2.407041	0.263613	-3.149049	0.223438	-0.018744	-0.002093	0.999803	-0.012034	0.001318	-0.015744	
55513	    0	20.832500	-4.817325	-0.274141	-2.588616	0.334950	-2.712410	0.207642	-0.051025	-0.002441	0.999823	-0.012942	0.001675	-0.013561	
55514	    0	17.195255	-9.338023	-1.747055	-2.395924	0.327124	-2.120872	0.170920	-0.095399	-0.016616	0.999870	-0.011979	0.001636	-0.010604	
55515	    0	14.796918	-6.743340	-4.218074	-2.012692	0.265701	-1.676989	0.147339	-0.069092	-0.041687	0.999913	-0.010063	0.001328	-0.008385	
55516	    0	13.235108	-6.071586	-6.516824	-1.614411	0.168041	-1.422147	0.131858	-0.062179	-0.064781	0.999941	-0.008072	0.000840	-0.007111	
55517	    0	12.643102	-8.931917	-6.624954	-1.003277	0.190928	-1.275649	0.125793	-0.090454	-0.065918	0.999967	-0.005016	0.000955	-0.006378	
55518	    0	11.791932	-8.074075	-6.415097	-0.708778	0.378803	-1.305211	0.117267	-0.081735	-0.064085	0.999970	-0.003544	0.001894	-0.006526	
55519	    0	10.878653	-1.873028	-6.447827	-0.849739	0.669110	-1.757081	0.108398	-0.019958	-0.064758	0.999947	-0.004249	0.003345	-0.008785	
55520	    0	10.786047	10.641930	-8.750614	-0.513094	0.614377	-2.690404	0.109007	0.104733	-0.088110	0.999901	-0.002565	0.003072	-0.013452	
55521	    0	13.371211	13.858318	-11.817614	-0.238621	0.463127	-3.364726	0.135742	0.136169	-0.118652	0.999855	-0.001193	0.002316	-0.016823	
55522	    0	13.969292	9.295610	-9.666572	-0.591496	0.485442	-3.221659	0.140927	0.090405	-0.097277	0.999863	-0.002957	0.002427	-0.016108	
55523	    0	13.734138	2.106765	-6.270674	-0.858341	0.554107	-2.908440	0.137451	0.018799	-0.063171	0.999881	-0.004292	0.002770	-0.014542	
55524	    0	14.516135	-2.155517	-4.573519	-0.787957	0.569557	-2.920457	0.144693	-0.023851	-0.046057	0.999881	-0.003940	0.002848	-0.014602	
55525	    0	14.768200	-4.655532	-3.769877	-0.829921	0.631740	-2.958801	0.146851	-0.048889	-0.037964	0.999876	-0.004149	0.003159	-0.014793	
55526	    0	14.998973	-6.105708	-2.695351	-0.946466	0.726731	-2.952700	0.148967	-0.063390	-0.027200	0.999873	-0.004732	0.003633	-0.014763	
55527	    0	15.493671	-7.510953	-1.929655	-1.240599	0.843279	-3.044275	0.153687	-0.077576	-0.019470	0.999856	-0.006203	0.004216	-0.015221	
55528	    0	14.678225	-7.999999	-1.660732	-1.242887	0.795211	-3.035689	0.145478	-0.082318	-0.016681	0.999857	-0.006214	0.003976	-0.015178	
55529	    0	13.481767	-8.768071	-1.492624	-1.064348	0.657874	-3.021375	0.133423	-0.089783	-0.014893	0.999866	-0.005322	0.003289	-0.015106	
55530	    0	12.714974	-8.928858	-1.873322	-0.767739	0.449581	-3.014689	0.125742	-0.091263	-0.018669	0.999876	-0.003839	0.002248	-0.015073	
55531	    0	12.471070	-7.988768	-2.183315	-0.580619	0.309956	-2.964134	0.123474	-0.081787	-0.021790	0.999885	-0.002903	0.001550	-0.014820	
55532	    0	12.943551	-6.503407	-1.995541	-0.567839	0.211342	-2.918542	0.128447	-0.066970	-0.019903	0.999888	-0.002839	0.001057	-0.014592	
55533	    0	13.496142	-5.091316	-1.449199	-0.634597	0.115971	-2.822212	0.134216	-0.052856	-0.014404	0.999895	-0.003173	0.000580	-0.014111	
55534	    0	13.284412	-3.551165	-1.145252	-0.638410	-0.012780	-2.715008	0.132346	-0.037347	-0.011327	0.999903	-0.003192	-0.000064	-0.013575	
55535	    0	12.251559	-2.997756	-1.134534	-0.635547	-0.126461	-2.522349	0.122131	-0.031555	-0.011169	0.999915	-0.003178	-0.000632	-0.012611	
55536	    0	10.786067	-2.888833	-0.922163	-0.605407	-0.237852	-2.274376	0.107533	-0.030140	-0.009004	0.999929	-0.003027	-0.001189	-0.011372	
55537	    0	9.144810	-2.666548	-0.566598	-0.545321	-0.349433	-1.988256	0.091187	-0.027588	-0.005432	0.999945	-0.002727	-0.001747	-0.009941	
55538	    0	7.519719	-2.575111	-0.435908	-0.469405	-0.438124	-1.666091	0.074988	-0.026386	-0.004133	0.999960	-0.002347	-0.002191	-0.008330	
55539	    0	6.122116	-2.834766	-0.051473	-0.343898	-0.524907	-1.306927	0.061035	-0.028748	-0.000305	0.999973	-0.001719	-0.002625	-0.006535	
55540	    0	5.582915	-3.035335	0.565948	-0.101090	-0.549128	-0.921635	0.055673	-0.030607	0.005828	0.999985	-0.000505	-0.002746	-0.004608	
55541	    0	6.245783	-2.895994	0.471403	0.419618	-0.540735	-0.460817	0.062378	-0.029114	0.004822	0.999991	0.002098	-0.002704	-0.002304	
55542	    0	6.567215	-1.994019	-0.391340	0.793842	-0.550081	0.025559	0.065685	-0.019917	-0.003812	0.999988	0.003969	-0.002750	0.000128	
55543	    0	6.637138	-0.832883	-0.482342	0.894361	-0.482943	0.572208	0.066406	-0.008118	-0.004700	0.999983	0.004472	-0.002415	0.002861	
55544	    0	6.467944	0.238925	-1.635944	0.974474	-0.422673	1.157582	0.064698	0.002843	-0.016210	0.999969	0.004872	-0.002113	0.005788	
55545	    0	6.079636	1.109698	-1.950920	0.921837	-0.355536	1.752501	0.060730	0.011719	-0.019348	0.999949	0.004609	-0.001778	0.008762	
55546	    0	5.749939	1.699518	-1.949864	0.780888	-0.263221	2.336180	0.057321	0.017741	-0.019355	0.999923	0.003904	-0.001316	0.011681	
55547	    0	5.253362	2.019418	-1.517979	0.615715	-0.153929	2.886305	0.052246	0.020996	-0.015076	0.999890	0.003078	-0.000770	0.014431	
55548	    0	4.722985	2.447538	-1.374779	0.433943	-0.140769	3.422716	0.046811	0.025309	-0.013660	0.999850	0.002170	-0.000704	0.017113	
55549	    0	4.329797	2.862555	-1.375758	0.065808	-0.070195	3.960678	0.042725	0.029480	-0.013733	0.999804	0.000329	-0.000351	0.019802	
55550	    0	3.788383	2.236955	-0.936013	-0.251409	-0.045780	4.430371	0.037378	0.023190	-0.009380	0.999753	-0.001257	-0.000229	0.022150	
55551	    0	3.384953	1.641826	-1.171380	-0.372924	-0.158707	4.856590	0.033447	0.017212	-0.011719	0.999702	-0.001864	-0.000793	0.024281	
55552	    0	3.344575	1.399158	-1.427779	-0.519240	-0.235203	5.219105	0.033083	0.014821	-0.014277	0.999655	-0.002596	-0.001176	0.026093	
55553	    0	3.535956	0.529338	-1.121382	-0.601082	-0.352523	5.477075	0.035217	0.006226	-0.011169	0.999619	-0.003005	-0.001762	0.027382	
55554	    0	4.361583	0.032384	-1.259476	-0.468318	-0.596128	5.675901	0.043621	0.001533	-0.012467	0.999590	-0.002341	-0.002980	0.028376	
55555	    0	5.830874	-0.510803	-1.225448	-0.275461	-0.770490	5.842675	0.058472	-0.003418	-0.012024	0.999564	-0.001377	-0.003852	0.029209	
55556	    0	7.279812	-1.757585	-0.888546	0.105683	-0.967363	5.946868	0.073319	-0.015396	-0.008540	0.999546	0.000528	-0.004836	0.029730	
55557	    0	8.486447	-2.675703	-1.075651	0.840325	-1.279660	6.096890	0.085693	-0.024109	-0.010315	0.999506	0.004201	-0.006397	0.030479	
55558	    0	9.964983	-1.942478	-1.374677	1.654939	-1.610299	6.343138	0.100304	-0.016140	-0.013083	0.999430	0.008273	-0.008050	0.031710	
55559	    0	11.762148	-0.119788	-1.262580	1.956779	-1.724606	6.609209	0.117676	0.002808	-0.011597	0.999369	0.009782	-0.008621	0.033039	
55560	    0	13.445804	1.841960	-0.417960	2.043806	-1.776526	6.860381	0.133749	0.023049	-0.002769	0.999320	0.010217	-0.008881	0.034294	
55561	    0	14.777709	3.266661	0.073923	1.984877	-1.745829	7.068786	0.146484	0.037842	0.002380	0.999288	0.009922	-0.008727	0.035336	
55562	    0	15.860092	3.460649	-0.117937	2.086014	-1.727725	7.239236	0.157210	0.040315	0.000584	0.999253	0.010427	-0.008636	0.036187	
55563	    0	18.164518	4.982803	-1.439334	2.291135	-1.733089	7.387951	0.179749	0.056641	-0.012207	0.999214	0.011453	-0.008663	0.036930	
55564	    0	20.649201	6.889523	-2.533202	2.212922	-1.594968	7.509512	0.203895	0.076847	-0.022878	0.999202	0.011062	-0.007973	0.037538	
55565	    0	22.118029	8.260709	-3.380647	2.178776	-1.510071	7.566571	0.218079	0.091248	-0.031189	0.999196	0.010891	-0.007548	0.037823	
55566	    0	24.891293	10.416989	-3.802640	2.019637	-1.395011	7.450679	0.245047	0.113713	-0.035192	0.999230	0.010096	-0.006973	0.037244	
55567	    0	26.980654	12.129368	-3.502951	1.614179	-1.235483	7.148862	0.265442	0.131104	-0.032349	0.999310	0.008069	-0.006176	0.035736	
55568	    0	26.510745	11.899870	-3.628666	1.495843	-1.159131	6.569043	0.261205	0.127881	-0.033831	0.999415	0.007478	-0.005795	0.032839	
55569	    0	23.336566	12.034032	-5.790650	2.280033	-1.391637	5.642090	0.230225	0.127502	-0.054871	0.999513	0.011398	-0.006957	0.028206	
55570	    0	21.267080	15.697037	-7.000403	2.832387	-1.600466	4.419118	0.209659	0.162580	-0.066042	0.999623	0.014160	-0.008001	0.022093	
55571	    0	19.852948	24.157808	-3.233431	2.406491	-1.536484	3.123707	0.194946	0.244995	-0.027893	0.999776	0.012032	-0.007682	0.015617	
55572	    0	18.130886	30.832461	2.715742	1.475951	-1.157605	1.936590	0.178144	0.309843	0.030478	0.999908	0.007380	-0.005788	0.009683	
55573	    0	13.816260	28.645445	4.274236	0.671580	-0.527193	0.543978	0.137268	0.286682	0.044067	0.999987	0.003358	-0.002636	0.002720	
55574	    0	12.275066	23.130071	1.044096	0.481226	-0.077629	-0.874714	0.123756	0.230735	0.011045	0.999987	0.002406	-0.000388	-0.004374	
55575	    0	11.357038	17.753766	-1.357815	0.578318	0.097086	-1.958500	0.115295	0.176453	-0.013123	0.999948	0.002892	0.000485	-0.009792	
55576	    0	9.782494	13.137808	-1.225445	0.823621	0.082591	-2.717109	0.099593	0.130082	-0.011758	0.999899	0.004118	0.000413	-0.013585	
55577	    0	8.600253	10.900140	0.703283	0.942466	0.079350	-3.264012	0.087769	0.107544	0.007507	0.999855	0.004712	0.000397	-0.016319	
55578	    0	8.392261	9.571680	2.278151	0.924733	0.085454	-3.482626	0.085581	0.094130	0.023183	0.999837	0.004623	0.000427	-0.017412	
55579	    0	7.967603	8.861534	3.208165	0.577574	0.116926	-3.381514	0.081177	0.087158	0.032288	0.999852	0.002888	0.000585	-0.016907	
55580	    0	6.697215	6.598987	3.034642	-0.011254	0.154120	-3.076103	0.068000	0.064951	0.030291	0.999881	-0.000056	0.000771	-0.015380	
55581	    0	5.452568	5.349136	-2.094853	-0.303659	-0.119594	-2.636796	0.055237	0.052734	-0.020996	0.999911	-0.001518	-0.000598	-0.013184	
55582	    0	-0.072846	50.311015	-46.090178	5.712666	-4.339398	-3.349607	0.017628	0.515801	-0.446037	0.999216	0.028556	-0.021691	-0.016744	
55583	    0	54.572428	146.075652	-44.629999	0.776448	0.869782	-12.852239	0.636108	1.423523	-0.443359	0.997918	0.003880	0.004346	-0.064217	
55584	    0	60.399219	25.505017	5.398818	-9.935038	1.258175	-7.872563	0.613735	0.233169	0.038196	0.997972	-0.049642	0.006287	-0.039336	
55585	    0	32.584344	-88.953004	3.123795	-3.377756	-0.348706	-4.227202	0.306885	-0.895447	0.046875	0.999632	-0.016887	-0.001743	-0.021133	
55586	    0	-7.905233	10.200640	5.607197	0.305024	0.621303	-5.507413	-0.076031	0.104042	0.056469	0.999615	0.001525	0.003106	-0.027534	
55587	    0	22.580577	15.423693	-6.162990	-0.048644	0.515818	-5.702225	0.229919	0.147705	-0.062256	0.999590	-0.000243	0.002579	-0.028507	
55588	    0	27.501011	4.694920	5.505708	-1.301155	0.612331	-5.101420	0.276260	0.040266	0.053936	0.999648	-0.006505	0.003061	-0.025504	
55589	    0	23.103264	-7.211975	12.705852	-0.523990	0.209825	-4.289580	0.229553	-0.076721	0.127014	0.999765	-0.002620	0.001049	-0.021446	
55590	    0	18.735625	5.599678	5.913850	-0.302148	0.127421	-4.323726	0.188547	0.052018	0.058938	0.999764	-0.001511	0.000637	-0.021617	
55591	    0	18.471187	10.811381	3.624414	-1.140674	0.258082	-3.913388	0.186829	0.104675	0.035400	0.999791	-0.005703	0.001290	-0.019566	
55592	    0	21.323325	-2.223707	5.629334	-1.730438	0.352306	-3.086253	0.212960	-0.025039	0.056127	0.999842	-0.008652	0.001761	-0.015430	
55593	    0	23.201522	-4.602246	1.582701	-1.843154	0.240337	-2.707794	0.231384	-0.049011	0.015991	0.999865	-0.009215	0.001202	-0.013538	
55594	    0	23.028029	-1.975509	-0.361535	-2.447631	0.256742	-2.419210	0.230014	-0.022583	-0.003646	0.999850	-0.012238	0.001284	-0.012095	
55595	    0	21.177038	-7.897082	-0.278754	-2.304933	0.261127	-2.063071	0.210938	-0.081177	-0.002136	0.999879	-0.011524	0.001306	-0.010315	
55596	    0	17.652710	-8.042776	-1.776134	-2.046647	0.344668	-1.734214	0.175790	-0.082132	-0.017230	0.999908	-0.010233	0.001723	-0.008671	
55597	    0	17.249438	-7.771628	-4.229129	-1.965186	0.408945	-1.200894	0.171936	-0.079163	-0.041870	0.999931	-0.009826	0.002045	-0.006004	
55598	    0	14.881956	-8.778725	-6.993848	-1.732283	0.330740	-0.955025	0.148281	-0.089099	-0.069416	0.999949	-0.008661	0.001654	-0.004775	
55599	    0	13.350932	-11.554413	-6.714961	-1.287091	0.097848	-0.723273	0.133057	-0.116455	-0.066467	0.999972	-0.006435	0.000489	-0.003616	
55600	    0	12.528695	-8.379937	-6.585923	-0.653271	-0.046540	-0.981146	0.124888	-0.084627	-0.065555	0.999982	-0.003266	-0.000233	-0.004906	
55601	    0	12.141458	3.791241	-6.106202	-0.797858	0.215153	-1.922643	0.121704	0.036499	-0.061340	0.999945	-0.003989	0.001076	-0.009613	
55602	    0	14.356831	20.327215	-11.063274	-0.803415	0.498987	-3.319142	0.146632	0.200408	-0.111805	0.999850	-0.004017	0.002495	-0.016595	
55603	    0	14.895910	13.981526	-12.525777	-1.441286	0.531994	-3.638695	0.151123	0.136169	-0.126648	0.999804	-0.007206	0.002660	-0.018192	
55604	    0	13.233340	2.491192	-8.782450	-2.173359	0.459125	-2.988607	0.132474	0.021975	-0.088378	0.999826	-0.010866	0.002295	-0.014942	
55605	    0	14.105354	-2.361643	-5.647722	-2.347713	0.570906	-3.053477	0.140503	-0.026428	-0.056580	0.999810	-0.011738	0.002854	-0.015266	
55606	    0	13.427481	-4.710196	-4.410901	-2.230403	0.633852	-3.117757	0.133374	-0.049677	-0.043988	0.999811	-0.011151	0.003169	-0.015588	
55607	    0	13.452550	-6.232147	-3.787870	-2.226965	0.735518	-3.014557	0.133423	-0.064758	-0.037659	0.999817	-0.011134	0.003677	-0.015072	
55608	    0	14.315460	-7.225816	-2.935403	-2.374798	0.826888	-2.958102	0.141941	-0.074710	-0.029065	0.999811	-0.011873	0.004134	-0.014790	
55609	    0	13.346678	-7.674290	-1.891397	-2.119565	0.799033	-2.888651	0.132263	-0.078857	-0.018616	0.999831	-0.010597	0.003995	-0.014442	
55610	    0	12.100562	-8.023428	-1.827636	-1.626284	0.620300	-2.931546	0.119755	-0.082143	-0.017986	0.999854	-0.008131	0.003101	-0.014657	
55611	    0	11.653278	-7.520511	-1.944327	-1.116228	0.467130	-2.960331	0.115356	-0.077026	-0.019287	0.999871	-0.005581	0.002336	-0.014801	
55612	    0	11.508171	-6.239770	-1.934427	-0.876653	0.325598	-2.981307	0.114102	-0.064188	-0.019252	0.999878	-0.004383	0.001628	-0.014906	
55613	    0	11.830479	-5.177618	-1.729650	-0.804933	0.322164	-2.960322	0.117493	-0.053589	-0.017273	0.999881	-0.004025	0.001611	-0.014801	
55614	    0	12.023187	-4.542853	-1.192481	-0.782615	0.287067	-2.929992	0.119532	-0.047230	-0.011914	0.999884	-0.003913	0.001435	-0.014649	
55615	    0	12.016579	-4.383964	-0.891491	-0.710895	0.260935	-2.876388	0.119507	-0.045593	-0.008911	0.999889	-0.003554	0.001305	-0.014381	
55616	    0	11.999067	-4.540485	-0.845806	-0.545329	0.217063	-2.738088	0.119345	-0.047065	-0.008461	0.999902	-0.002727	0.001085	-0.013690	
55617	    0	11.381035	-4.931447	-0.823250	-0.265320	0.130466	-2.568126	0.113159	-0.050781	-0.008240	0.999916	-0.001327	0.000652	-0.012840	
55618	    0	10.055109	-4.898435	-0.670503	0.068857	-0.001335	-2.366312	0.099962	-0.050167	-0.006721	0.999929	0.000344	-0.000007	-0.011831	
55619	    0	8.532906	-4.024600	-0.804681	0.325781	-0.133326	-2.127879	0.084900	-0.041138	-0.008057	0.999942	0.001629	-0.000667	-0.010639	
55620	    0	7.105442	-3.006749	-0.781992	0.436980	-0.230411	-1.810673	0.070787	-0.030692	-0.007805	0.999955	0.002185	-0.001152	-0.009053	
55621	    0	5.863623	-2.338617	-0.784448	0.438695	-0.286677	-1.485458	0.058472	-0.023804	-0.007812	0.999969	0.002193	-0.001433	-0.007427	
55622	    0	5.073443	-1.708865	-0.914638	0.379755	-0.308802	-1.123054	0.050652	-0.017356	-0.009101	0.999981	0.001899	-0.001544	-0.005615	
55623	    0	5.025255	-1.038991	-1.141767	0.193024	-0.299645	-0.717165	0.050232	-0.010559	-0.011353	0.999991	0.000965	-0.001498	-0.003586	
55624	    0	5.303238	-0.467527	-1.187726	-0.175667	-0.247574	-0.315476	0.053040	-0.004769	-0.011807	0.999997	-0.000878	-0.001238	-0.001577	
55625	    0	5.370182	-0.548070	-0.885238	-0.515557	-0.183106	0.038147	0.053711	-0.005493	-0.008789	0.999996	-0.002578	-0.000916	0.000191	
55626	    0	6.185240	-0.722890	-0.766410	-0.559999	-0.152207	0.399018	0.061872	-0.007127	-0.007597	0.999993	-0.002800	-0.000761	0.001995	
55627	    0	7.884244	-0.055152	-1.557216	-0.415041	-0.173760	0.861362	0.078857	-0.000244	-0.015503	0.999988	-0.002075	-0.000869	0.004307	
55628	    0	9.049995	1.306030	-2.106936	-0.617986	-0.032234	1.317227	0.090415	0.013591	-0.021096	0.999973	-0.003090	-0.000161	0.006586	
55629	    0	9.359014	1.441243	-1.882260	-0.789656	0.084115	1.839478	0.093445	0.015198	-0.018921	0.999949	-0.003948	0.000421	0.009197	
55630	    0	8.487570	0.732616	-1.895414	-0.584044	0.109866	2.276282	0.084775	0.008236	-0.019024	0.999930	-0.002920	0.000549	0.011381	
55631	    0	7.475389	1.629759	-1.913238	-0.317393	0.015450	2.696311	0.074524	0.017273	-0.019165	0.999907	-0.001587	0.000077	0.013481	
55632	    0	7.351431	2.614642	-1.773396	-0.247966	0.043299	3.129515	0.073090	0.027270	-0.017783	0.999876	-0.001240	0.000216	0.015647	
55633	    0	7.324824	2.350845	-1.172568	-0.178537	0.088696	3.515044	0.072815	0.024780	-0.011780	0.999845	-0.000893	0.000443	0.017574	
55634	    0	6.667292	1.965406	-0.693405	0.094992	-0.007630	3.893908	0.066274	0.020950	-0.006922	0.999810	0.000475	-0.000038	0.019468	
55635	    0	6.119703	2.125781	-0.834906	0.482215	-0.183692	4.287290	0.060730	0.022583	-0.008240	0.999766	0.002411	-0.000918	0.021435	
55636	    0	5.854087	2.890254	-0.726876	0.836261	-0.384367	4.673446	0.057858	0.030290	-0.007032	0.999716	0.004181	-0.001922	0.023365	
55637	    0	6.261706	4.034069	-0.537543	0.987545	-0.536406	5.054275	0.061584	0.041931	-0.005005	0.999664	0.004937	-0.002682	0.025269	
55638	    0	6.866164	3.987451	-0.025927	1.081793	-0.670517	5.342201	0.067564	0.041689	0.000191	0.999622	0.005408	-0.003352	0.026708	
55639	    0	7.272894	2.620729	0.111246	1.333039	-0.805584	5.539705	0.071960	0.028198	0.001587	0.999585	0.006664	-0.004027	0.027695	
55640	    0	7.403667	0.782845	-0.085548	1.899624	-1.036037	5.610167	0.073781	0.009906	-0.000385	0.999548	0.009497	-0.005179	0.028047	
55641	    0	8.738694	1.476687	-1.046163	2.440485	-1.275088	5.754302	0.086975	0.017395	-0.009705	0.999491	0.012200	-0.006374	0.028767	
55642	    0	10.120781	1.860768	-1.474926	2.512997	-1.276052	5.891893	0.100688	0.021757	-0.013845	0.999466	0.012563	-0.006379	0.029454	
55643	    0	10.190770	2.033654	-1.490923	2.614331	-1.376416	6.102396	0.101318	0.023621	-0.013916	0.999425	0.013069	-0.006881	0.030506	
55644	    0	10.113519	2.197032	-1.950892	2.628854	-1.407715	6.269379	0.100508	0.025375	-0.018481	0.999397	0.013142	-0.007037	0.031341	
55645	    0	10.990673	3.454419	-2.503918	2.631936	-1.479462	6.460414	0.108887	0.038391	-0.023743	0.999364	0.013157	-0.007396	0.032295	
55646	    0	12.114858	5.333709	-2.789044	2.415613	-1.487294	6.668215	0.119473	0.057664	-0.026319	0.999343	0.012075	-0.007435	0.033334	
55647	    0	12.932053	6.682523	-3.085943	2.098555	-1.486349	6.874865	0.127136	0.071533	-0.029175	0.999326	0.010490	-0.007430	0.034367	
55648	    0	14.012292	7.388743	-3.523319	1.841018	-1.477584	7.078478	0.137636	0.079103	-0.033498	0.999304	0.009203	-0.007386	0.035384	
55649	    0	15.476764	7.615269	-4.151332	1.653876	-1.459852	7.245842	0.152161	0.082031	-0.039734	0.999283	0.008267	-0.007298	0.036221	
55650	    0	17.757164	7.741164	-4.902503	1.538457	-1.465960	7.302136	0.174930	0.084199	-0.047106	0.999276	0.007690	-0.007328	0.036502	
55651	    0	21.341855	10.099827	-5.209669	1.400518	-1.581186	7.252701	0.209961	0.109009	-0.049683	0.999287	0.007001	-0.007904	0.036255	
55652	    0	24.729044	13.680592	-3.227196	0.716558	-1.474133	7.086218	0.242462	0.145565	-0.029962	0.999338	0.003582	-0.007369	0.035423	
55653	    0	25.459000	12.883931	0.265631	0.042161	-1.262146	6.700669	0.250061	0.137268	0.004272	0.999418	0.000211	-0.006310	0.033497	
55654	    0	23.659471	8.495415	0.685356	0.457454	-1.194569	5.997644	0.233859	0.091977	0.008461	0.999530	0.002287	-0.005972	0.029984	
55655	    0	22.485379	8.001725	-3.112121	1.582718	-1.310888	4.975729	0.222961	0.085815	-0.028992	0.999638	0.007913	-0.006554	0.024876	
55656	    0	21.232026	15.925076	-4.609279	2.000028	-1.366161	3.859663	0.209490	0.163753	-0.043033	0.999740	0.009999	-0.006830	0.019297	
55657	    0	17.673847	25.869601	-0.159781	1.699149	-1.256432	2.702464	0.173218	0.261047	0.001709	0.999852	0.008495	-0.006282	0.013512	
55658	    0	14.133373	28.847006	3.692692	1.046386	-0.824367	1.209848	0.139428	0.289117	0.039016	0.999959	0.005232	-0.004122	0.006049	
55659	    0	13.241199	23.452482	2.555521	0.827030	-0.315667	-0.429537	0.132874	0.234131	0.026733	0.999988	0.004135	-0.001578	-0.002148	
55660	    0	13.362942	18.003412	-0.817662	0.788509	-0.013542	-1.680589	0.135137	0.178933	-0.007461	0.999956	0.003942	-0.000068	-0.008403	
55661	    0	11.374588	13.846588	-1.964352	0.807975	0.028420	-2.433844	0.115417	0.137146	-0.019104	0.999917	0.004040	0.000142	-0.012169	
55662	    0	9.226071	12.054713	-1.421106	1.063582	-0.026704	-2.991230	0.094052	0.119223	-0.013562	0.999873	0.005318	-0.000134	-0.014956	
55663	    0	8.738994	11.703235	-0.201719	1.223249	-0.057987	-3.386871	0.089355	0.115540	-0.001282	0.999838	0.006116	-0.000290	-0.016933	
55664	    0	8.946482	10.357254	0.645096	1.077904	-0.034716	-3.527841	0.091271	0.101936	0.007019	0.999829	0.005389	-0.000174	-0.017638	
55665	    0	8.529834	6.699768	0.888695	0.785296	-0.021363	-3.419670	0.086426	0.065491	0.009155	0.999846	0.003926	-0.000107	-0.017097	
55666	    0	7.850253	3.088282	-1.449904	0.685339	-0.143248	-3.113497	0.078981	0.029705	-0.014339	0.999872	0.003427	-0.000716	-0.015567	
55667	    0	7.648271	3.848356	-1.603876	0.751712	-0.230416	-2.778722	0.077026	0.037476	-0.015808	0.999895	0.003758	-0.001152	-0.013893	
55668	    0	5.898001	18.502720	-18.307069	0.997021	-1.595004	-2.895308	0.063111	0.185041	-0.181656	0.999850	0.004985	-0.007975	-0.014476	
55669	    0	15.469762	104.311752	-69.788383	7.990679	-4.581478	-6.037902	0.201904	1.064148	-0.651367	0.998484	0.039933	-0.022896	-0.030174	
55670	    0	86.600814	94.374268	8.145650	-9.545598	3.797194	-14.097533	0.930446	0.881585	0.021083	0.996199	-0.047668	0.018962	-0.070398	
55671	    0	38.421729	-48.632761	18.624184	-7.277016	-0.016789	-2.636614	0.377808	-0.484131	0.203918	0.999250	-0.036376	-0.000084	-0.013180	
55672	    0	9.390927	-43.332661	6.625979	-1.403473	0.542160	-6.179325	0.080660	-0.435477	0.069080	0.999494	-0.007016	0.002710	-0.030891	
55673	    0	4.565929	18.325473	-2.979396	1.098992	0.068675	-5.961759	0.051086	0.181946	-0.028809	0.999540	0.005494	0.000343	-0.029804	
55674	    0	21.430821	9.847674	-3.857435	-0.833249	0.370078	-5.780854	0.216959	0.092068	-0.039367	0.999572	-0.004166	0.001850	-0.028900	
55675	    0	22.760144	1.416745	12.338199	-1.217029	0.343553	-5.108469	0.228088	0.009094	0.122925	0.999654	-0.006084	0.001718	-0.025539	
55676	    0	24.202281	-0.407375	8.206981	-0.792194	0.228521	-4.615443	0.241941	-0.009334	0.081823	0.999724	-0.003961	0.001143	-0.023075	
55677	    0	20.391190	4.384314	2.852554	-1.084800	0.222034	-4.346830	0.204834	0.039551	0.028076	0.999748	-0.005424	0.001110	-0.021732	
55678	    0	17.802333	1.353232	3.201659	-1.618886	0.299666	-3.863046	0.178291	0.010347	0.031657	0.999779	-0.008094	0.001498	-0.019314	
55679	    0	21.912071	-4.796354	2.309974	-1.867027	0.343535	-3.334250	0.218323	-0.051392	0.023193	0.999816	-0.009335	0.001718	-0.016670	
55680	    0	22.685998	-3.964033	-1.341562	-2.239356	0.248923	-2.960757	0.226222	-0.043141	-0.013227	0.999826	-0.011196	0.001245	-0.014803	
55681	    0	21.108372	-4.987933	-1.341256	-2.281877	0.228130	-2.626171	0.210388	-0.052795	-0.013062	0.999847	-0.011409	0.001141	-0.013130	
55682	    0	18.598442	-6.433230	-2.471031	-1.821205	0.268565	-2.381033	0.185166	-0.066763	-0.024359	0.999887	-0.009106	0.001343	-0.011905	
55683	    0	15.103279	-8.094544	-4.881511	-1.466404	0.249678	-1.862379	0.150208	-0.082703	-0.048401	0.999928	-0.007332	0.001248	-0.009312	
55684	    0	13.585900	-7.249255	-6.663242	-1.011481	0.184634	-1.523039	0.135239	-0.073860	-0.066386	0.999957	-0.005057	0.000923	-0.007615	
55685	    0	12.826877	-7.472032	-7.695851	-0.575070	-0.032044	-1.255808	0.127808	-0.075745	-0.076721	0.999975	-0.002875	-0.000160	-0.006279	
55686	    0	12.305820	-4.842570	-7.056106	-0.496678	-0.066376	-1.384175	0.122742	-0.049451	-0.070398	0.999972	-0.002483	-0.000332	-0.006921	
55687	    0	11.290369	4.910601	-5.387525	-0.578890	0.109865	-1.940188	0.113342	0.047852	-0.054077	0.999949	-0.002894	0.000549	-0.009701	
55688	    0	13.609530	19.461892	-9.746677	-0.620867	0.236902	-3.055888	0.138928	0.192206	-0.098229	0.999877	-0.003104	0.001184	-0.015279	
55689	    0	14.571057	15.275164	-11.817865	-1.572321	0.363181	-3.425803	0.148071	0.149292	-0.119629	0.999821	-0.007861	0.001816	-0.017128	
55690	    0	13.647707	3.550235	-8.388547	-2.386621	0.387597	-2.972785	0.136811	0.032464	-0.084550	0.999816	-0.011932	0.001938	-0.014863	
55691	    0	13.540691	-2.128276	-5.948265	-2.424775	0.364136	-3.026009	0.134949	-0.024048	-0.059448	0.999810	-0.012123	0.001821	-0.015129	
55692	    0	13.171616	-4.566839	-4.914655	-2.212653	0.350782	-2.991087	0.130922	-0.048172	-0.048853	0.999825	-0.011063	0.001754	-0.014955	
55693	    0	13.292116	-5.072366	-3.749190	-2.024950	0.406096	-2.928318	0.132080	-0.053040	-0.037231	0.999839	-0.010124	0.002030	-0.014641	
55694	    0	13.126752	-5.522803	-2.790233	-1.825422	0.418111	-2.879094	0.130394	-0.057363	-0.027658	0.999852	-0.009127	0.002090	-0.014395	
55695	    0	12.428910	-5.787731	-2.382390	-1.539489	0.309004	-2.837496	0.123413	-0.059814	-0.023560	0.999868	-0.007697	0.001545	-0.014187	
55696	    0	11.949718	-5.924961	-2.633650	-1.316123	0.201233	-2.795331	0.118626	-0.061084	-0.026058	0.999880	-0.006580	0.001006	-0.013976	
55697	    0	11.711940	-5.469537	-2.765077	-1.167150	0.137334	-2.747447	0.116333	-0.056458	-0.027405	0.999887	-0.005836	0.000687	-0.013737	
55698	    0	12.015819	-5.248779	-2.687158	-1.123277	0.073435	-2.665231	0.119433	-0.054233	-0.026614	0.999895	-0.005616	0.000367	-0.013326	
55699	    0	12.642494	-4.703974	-3.109983	-1.057278	0.061800	-2.578819	0.125793	-0.048828	-0.030884	0.999903	-0.005286	0.000309	-0.012894	
55700	    0	13.171471	-4.721514	-2.315505	-1.020464	0.107769	-2.552494	0.131084	-0.049008	-0.022979	0.999905	-0.005102	0.000539	-0.012762	
55701	    0	13.485415	-4.361946	-1.700455	-0.963622	0.084880	-2.542193	0.134277	-0.045410	-0.016846	0.999907	-0.004818	0.000424	-0.012711	
55702	    0	13.625376	-4.433548	-1.229263	-0.867487	0.046541	-2.479625	0.135687	-0.046073	-0.012127	0.999913	-0.004337	0.000233	-0.012398	
55703	    0	13.311352	-4.979264	-0.535458	-0.720806	0.025178	-2.381195	0.132507	-0.051392	-0.005188	0.999922	-0.003604	0.000126	-0.011906	
55704	    0	12.370425	-5.484214	-0.034789	-0.467311	-0.024987	-2.248241	0.123077	-0.056229	-0.000202	0.999933	-0.002337	-0.000125	-0.011241	
55705	    0	10.938294	-5.331901	-0.052335	-0.122072	-0.115778	-2.062262	0.108826	-0.054443	-0.000427	0.999946	-0.000610	-0.000579	-0.010311	
55706	    0	9.221442	-4.562211	-0.094890	0.238422	-0.233844	-1.817157	0.091796	-0.046456	-0.000896	0.999957	0.001192	-0.001169	-0.009086	
55707	    0	7.818736	-3.243014	-0.438172	0.440221	-0.308803	-1.536577	0.077942	-0.033020	-0.004333	0.999967	0.002201	-0.001544	-0.007683	
55708	    0	6.792130	-2.307837	-0.547515	0.476268	-0.344088	-1.164445	0.067795	-0.023460	-0.005414	0.999978	0.002381	-0.001720	-0.005822	
55709	    0	5.952319	-2.126536	-0.426624	0.489809	-0.360681	-0.771335	0.059448	-0.021484	-0.004211	0.999988	0.002449	-0.001803	-0.003857	
55710	    0	5.477759	-1.794152	-0.400772	0.493241	-0.358582	-0.359536	0.054752	-0.018030	-0.003954	0.999993	0.002466	-0.001793	-0.001798	
55711	    0	5.614241	-1.070824	-0.349578	0.391579	-0.351716	0.072479	0.056152	-0.010681	-0.003418	0.999996	0.001958	-0.001759	0.000362	
55712	    0	6.472222	-0.512560	-0.401269	0.276185	-0.270653	0.541688	0.064741	-0.004945	-0.003932	0.999994	0.001381	-0.001353	0.002708	
55713	    0	7.157312	-0.211069	-1.117771	0.205995	-0.198938	1.090246	0.071594	-0.001709	-0.011108	0.999984	0.001030	-0.000995	0.005451	
55714	    0	6.939378	-0.255992	-1.122345	0.040627	-0.118448	1.604479	0.069418	-0.002001	-0.011183	0.999968	0.000203	-0.000592	0.008022	
55715	    0	6.575339	-0.362470	-1.432414	0.110819	-0.132754	2.088966	0.065796	-0.002930	-0.014282	0.999945	0.000554	-0.000664	0.010445	
55716	    0	6.599717	0.585329	-1.790942	0.173383	-0.140385	2.585865	0.065927	0.006721	-0.017858	0.999915	0.000867	-0.000702	0.012929	
55717	    0	6.675515	1.855881	-1.755880	0.019837	-0.119596	3.099947	0.066467	0.019592	-0.017517	0.999879	0.000099	-0.000598	0.015499	
55718	    0	6.835413	2.092533	-1.050575	-0.215923	-0.018693	3.577042	0.067966	0.022132	-0.010523	0.999839	-0.001080	-0.000093	0.017884	
55719	    0	6.394665	1.051465	-0.505704	-0.134858	0.003815	3.976703	0.063721	0.011780	-0.005066	0.999802	-0.000674	0.000019	0.019882	
55720	    0	6.238243	1.009834	-0.932241	0.214212	-0.168242	4.363598	0.062150	0.011466	-0.009258	0.999761	0.001071	-0.000841	0.021816	
55721	    0	7.160988	2.541289	-1.616944	0.254847	-0.234055	4.852010	0.070984	0.027161	-0.016052	0.999703	0.001274	-0.001170	0.024258	
55722	    0	8.147748	2.823121	-1.347538	0.033764	-0.192474	5.321750	0.080701	0.030388	-0.013392	0.999645	0.000169	-0.000962	0.026606	
55723	    0	8.626804	2.116338	-1.063617	0.068102	-0.303691	5.715960	0.085632	0.023621	-0.010498	0.999590	0.000340	-0.001518	0.028576	
55724	    0	9.211858	1.992174	-1.328592	0.244368	-0.456307	6.007723	0.091495	0.022693	-0.013050	0.999545	0.001222	-0.002281	0.030034	
55725	    0	9.553159	1.129888	-1.250340	0.483782	-0.554556	6.199127	0.095154	0.014282	-0.012207	0.999513	0.002419	-0.002772	0.030991	
55726	    0	9.561367	-0.310110	-1.322955	1.047888	-0.753342	6.318043	0.095695	-0.000010	-0.012875	0.999479	0.005239	-0.003766	0.031585	
55727	    0	10.041130	-0.652960	-1.862893	1.881200	-1.076715	6.451898	0.100647	-0.003113	-0.018127	0.999420	0.009404	-0.005383	0.032253	
55728	    0	11.975916	2.217326	-1.793668	2.339872	-1.316738	6.707888	0.119035	0.026376	-0.016859	0.999347	0.011697	-0.006582	0.033532	
55729	    0	13.159337	4.647259	-1.211075	2.297936	-1.411003	6.968021	0.129944	0.051147	-0.010620	0.999302	0.011487	-0.007053	0.034832	
55730	    0	13.172901	4.845312	-0.493124	2.222031	-1.504312	7.168231	0.129909	0.053175	-0.003376	0.999268	0.011107	-0.007520	0.035832	
55731	    0	13.588446	5.419106	-0.922751	2.493362	-1.672035	7.303228	0.133850	0.059204	-0.007385	0.999220	0.012464	-0.008358	0.036507	
55732	    0	15.137584	7.995180	-2.248171	2.558631	-1.767823	7.391812	0.148462	0.085743	-0.020088	0.999196	0.012790	-0.008837	0.036949	
55733	    0	16.530297	9.679271	-3.377966	2.388073	-1.772024	7.480352	0.161804	0.103271	-0.031128	0.999189	0.011937	-0.008858	0.037392	
55734	    0	18.067735	9.386709	-4.591213	2.323971	-1.755427	7.517180	0.177355	0.101089	-0.043199	0.999187	0.011617	-0.008775	0.037576	
55735	    0	20.920682	9.016717	-5.539486	2.385586	-1.760381	7.439121	0.206116	0.098511	-0.052429	0.999198	0.011925	-0.008800	0.037186	
55736	    0	25.074700	11.301863	-5.751413	2.319538	-1.766840	7.204534	0.246932	0.122601	-0.053936	0.999245	0.011595	-0.008832	0.036014	
55737	    0	27.894278	14.755664	-3.307082	1.556925	-1.469740	6.887021	0.273865	0.157288	-0.029846	0.999350	0.007783	-0.007347	0.034428	
55738	    0	26.074845	12.269754	-0.153112	1.069641	-1.162355	6.353941	0.256677	0.130897	0.000654	0.999464	0.005347	-0.005811	0.031764	
55739	    0	23.134322	7.631069	-2.473442	1.810722	-1.182539	5.534414	0.229248	0.082886	-0.022644	0.999558	0.009052	-0.005912	0.027668	
55740	    0	22.528918	12.398919	-6.115485	2.290414	-1.255941	4.528561	0.222767	0.129731	-0.058287	0.999658	0.011451	-0.006279	0.022640	
55741	    0	19.231819	22.185864	-3.259662	1.716165	-1.191797	3.587599	0.188477	0.225525	-0.029541	0.999784	0.008580	-0.005959	0.017937	
55742	    0	14.991360	28.290683	1.937350	0.833155	-0.905637	2.415350	0.146390	0.284603	0.021225	0.999907	0.004166	-0.004528	0.012076	
55743	    0	12.303921	26.354708	3.359125	0.259400	-0.402643	0.775149	0.121948	0.263977	0.034180	0.999990	0.001297	-0.002013	0.003876	
55744	    0	12.644716	20.325051	0.597757	0.040436	0.057030	-0.751688	0.127212	0.202772	0.005982	0.999992	0.000202	0.000285	-0.003758	
55745	    0	11.608488	14.831549	-1.439297	0.068093	0.209811	-1.679250	0.117310	0.147339	-0.014465	0.999964	0.000340	0.001049	-0.008396	
55746	    0	9.576896	11.870586	-1.352249	0.350770	0.224119	-2.327783	0.097127	0.117604	-0.013424	0.999929	0.001754	0.001121	-0.011639	
55747	    0	8.015069	11.907336	-0.378982	0.837167	0.153357	-2.874101	0.081848	0.117920	-0.003357	0.999887	0.004186	0.000767	-0.014370	
55748	    0	8.012387	11.776320	0.689150	0.955245	0.113874	-3.209646	0.082004	0.116423	0.007403	0.999859	0.004776	0.000569	-0.016047	
55749	    0	8.078681	9.206799	1.094993	0.725017	0.122076	-3.251036	0.082275	0.090698	0.011230	0.999861	0.003625	0.000610	-0.016254	
55750	    0	7.805417	5.013356	1.346299	0.546096	0.131422	-3.071338	0.078820	0.048890	0.013546	0.999878	0.002730	0.000657	-0.015356	
55751	    0	7.249005	2.346059	1.234872	0.627921	0.082591	-2.810766	0.072815	0.022400	0.012390	0.999896	0.003139	0.000413	-0.014053	
55752	    0	7.079662	1.798915	-0.018141	0.695821	-0.047876	-2.571373	0.071020	0.017077	-0.000104	0.999910	0.003479	-0.000239	-0.012856	
55753	    0	6.564175	1.788747	-1.619981	1.010349	-0.180821	-2.301086	0.065857	0.017212	-0.016052	0.999920	0.005052	-0.000904	-0.011505	
55754	    0	7.942651	9.798621	-5.455163	1.021603	-0.330361	-2.272666	0.080625	0.097351	-0.053921	0.999921	0.005108	-0.001652	-0.011363	
55755	    0	8.563945	36.942233	-36.811736	3.662589	-3.061887	-2.943043	0.096680	0.374695	-0.359863	0.999606	0.018311	-0.015307	-0.014713	
55756	    0	46.915245	123.474506	-54.797267	3.031631	-1.385109	-9.310319	0.529856	1.219100	-0.525879	0.998777	0.015152	-0.006923	-0.046533	
55757	    0	71.194283	36.279007	11.403720	-9.756731	2.440376	-9.883675	0.730042	0.331726	0.088501	0.997515	-0.048743	0.012192	-0.049377	
55758	    0	26.244160	-67.686337	17.311229	-4.309219	-0.028995	-3.213125	0.251538	-0.677023	0.187737	0.999639	-0.021544	-0.000145	-0.016064	
55759	    0	-0.374619	-1.278744	2.740758	-0.711166	0.674731	-5.926642	-0.004028	-0.012573	0.027466	0.999549	-0.003555	0.003373	-0.029629	
55760	    0	15.395430	10.121294	-6.487162	-0.200677	0.096333	-5.333962	0.156548	0.096995	-0.065045	0.999643	-0.001003	0.000482	-0.026667	
55761	    0	23.182405	3.496328	9.417002	-0.801198	0.307698	-5.722081	0.232849	0.028687	0.093689	0.999581	-0.004005	0.001538	-0.028606	
55762	    0	28.343359	1.311516	14.336048	-0.425575	0.403447	-5.038229	0.283937	0.006270	0.142770	0.999678	-0.002128	0.002017	-0.025188	
55763	    0	25.887812	-0.726665	4.751055	-1.220806	0.353462	-4.323944	0.258728	-0.012573	0.047119	0.999745	-0.006104	0.001767	-0.021618	
55764	    0	17.427718	0.435228	2.647766	-1.027381	0.219172	-4.286160	0.174348	0.000751	0.026277	0.999756	-0.005136	0.001096	-0.021429	
55765	    0	22.976110	-3.578330	3.156409	-1.420694	0.300047	-3.853880	0.229065	-0.039978	0.031494	0.999787	-0.007103	0.001500	-0.019268	
55766	    0	22.969493	-7.339861	-1.093311	-2.200466	0.292607	-3.356969	0.228403	-0.077356	-0.010431	0.999797	-0.011002	0.001463	-0.016784	
55767	    0	21.626652	-8.824150	-2.117665	-2.270450	0.163279	-2.971060	0.214905	-0.091675	-0.020325	0.999825	-0.011352	0.000816	-0.014854	
55768	    0	19.779289	-7.078553	-2.027480	-1.751603	0.165566	-2.916668	0.196714	-0.073834	-0.019800	0.999854	-0.008758	0.000828	-0.014583	
55769	    0	17.164467	-8.653971	-3.765601	-1.662506	0.217636	-2.432339	0.170532	-0.088928	-0.037109	0.999890	-0.008312	0.001088	-0.012161	
55770	    0	14.525239	-10.533079	-5.503883	-1.405939	0.185589	-1.894804	0.144193	-0.107084	-0.054424	0.999929	-0.007030	0.000928	-0.009474	
55771	    0	11.912566	-10.786069	-6.734795	-1.040474	-0.016785	-1.554893	0.118286	-0.109131	-0.066772	0.999956	-0.005202	-0.000084	-0.007774	
55772	    0	12.791453	-7.116238	-5.183781	-0.803957	-0.159456	-1.498622	0.127417	-0.072326	-0.051447	0.999963	-0.004020	-0.000797	-0.007493	
55773	    0	12.341522	3.244535	-5.181475	-0.878734	0.079347	-2.058454	0.123718	0.030945	-0.052002	0.999937	-0.004394	0.000397	-0.010292	
55774	    0	13.729605	18.667454	-7.752671	-1.125770	0.409718	-3.151089	0.140049	0.184041	-0.078853	0.999858	-0.005629	0.002048	-0.015755	
55775	    0	15.436772	17.362230	-11.550806	-1.722647	0.498234	-3.682966	0.157227	0.169739	-0.117371	0.999790	-0.008613	0.002491	-0.018414	
55776	    0	12.944111	5.743867	-8.796907	-2.625265	0.443680	-3.076003	0.130095	0.054277	-0.088984	0.999793	-0.013125	0.002218	-0.015379	
55777	    0	13.034818	-1.459627	-5.962551	-2.698701	0.537337	-2.970326	0.129944	-0.017334	-0.059753	0.999795	-0.013493	0.002687	-0.014851	
55778	    0	12.528246	-4.461543	-4.645635	-2.426491	0.593413	-2.970882	0.124458	-0.047030	-0.046266	0.999811	-0.012132	0.002967	-0.014853	
55779	    0	12.017843	-6.186716	-3.576701	-2.111742	0.708810	-2.881782	0.119141	-0.063965	-0.035522	0.999834	-0.010558	0.003544	-0.014408	
55780	    0	12.439317	-7.549758	-2.366779	-1.721272	0.727306	-2.779709	0.123240	-0.077418	-0.023457	0.999859	-0.008606	0.003636	-0.013898	
55781	    0	12.374208	-7.782627	-1.552411	-1.210641	0.643946	-2.715406	0.122620	-0.079590	-0.015442	0.999884	-0.006053	0.003220	-0.013577	
55782	    0	12.303639	-7.265615	-1.923087	-0.840597	0.535029	-2.662176	0.122003	-0.074366	-0.019248	0.999899	-0.004203	0.002675	-0.013310	
55783	    0	12.391913	-6.594070	-1.893863	-0.519578	0.451865	-2.655113	0.122986	-0.067627	-0.019043	0.999906	-0.002598	0.002259	-0.013275	
55784	    0	12.358952	-5.872381	-1.926663	-0.420965	0.363552	-2.630504	0.122767	-0.060383	-0.019364	0.999909	-0.002105	0.001818	-0.013152	
55785	    0	12.122067	-5.363531	-2.105164	-0.385296	0.284775	-2.585676	0.120483	-0.055237	-0.021118	0.999913	-0.001926	0.001424	-0.012928	
55786	    0	11.759244	-5.031986	-2.268641	-0.354967	0.182538	-2.526161	0.116923	-0.051840	-0.022702	0.999918	-0.001775	0.000913	-0.012630	
55787	    0	11.751117	-4.930167	-2.011900	-0.366030	0.091555	-2.464358	0.116882	-0.050781	-0.020081	0.999922	-0.001830	0.000458	-0.012321	
55788	    0	12.204037	-4.486981	-1.417686	-0.426684	0.039292	-2.377949	0.121492	-0.046347	-0.014103	0.999927	-0.002133	0.000196	-0.011889	
55789	    0	12.445324	-4.245390	-1.024626	-0.407228	-0.041963	-2.271321	0.123962	-0.043884	-0.010132	0.999933	-0.002036	-0.000210	-0.011356	
55790	    0	11.971717	-4.306614	-0.745173	-0.262265	-0.129893	-2.104799	0.119260	-0.044333	-0.007317	0.999943	-0.001311	-0.000649	-0.010524	
55791	    0	10.884447	-4.076716	-0.936676	-0.064851	-0.252346	-1.913482	0.108459	-0.041809	-0.009216	0.999953	-0.000324	-0.001262	-0.009567	
55792	    0	9.273982	-3.714794	-1.168473	0.181391	-0.365071	-1.656171	0.092449	-0.037904	-0.011550	0.999963	0.000907	-0.001825	-0.008281	
55793	    0	7.531591	-3.083028	-1.134742	0.341228	-0.452427	-1.329815	0.075134	-0.031311	-0.011230	0.999973	0.001706	-0.002262	-0.006649	
55794	    0	5.993253	-2.363314	-1.097004	0.403788	-0.498012	-0.971418	0.059844	-0.023902	-0.010869	0.999983	0.002019	-0.002490	-0.004857	
55795	    0	4.581226	-2.070405	-0.825428	0.435640	-0.527765	-0.553896	0.045776	-0.020813	-0.008179	0.999990	0.002178	-0.002639	-0.002769	
55796	    0	3.853527	-1.859328	-0.377661	0.516130	-0.526620	-0.097275	0.038536	-0.018602	-0.003723	0.999992	0.002581	-0.002633	-0.000486	
55797	    0	4.286924	-1.718270	-0.222470	0.778201	-0.438501	0.392915	0.042908	-0.017090	-0.002197	0.999988	0.003891	-0.002192	0.001965	
55798	    0	4.572120	-0.933168	-1.537364	1.148045	-0.418286	0.944338	0.045796	-0.009027	-0.015330	0.999969	0.005740	-0.002091	0.004722	
55799	    0	4.543949	0.664552	-1.597485	1.069848	-0.302129	1.538872	0.045410	0.007080	-0.015869	0.999954	0.005349	-0.001511	0.007694	
55800	    0	4.391454	1.568964	-2.429794	0.942443	-0.207906	2.183394	0.043764	0.016282	-0.024177	0.999928	0.004712	-0.001040	0.010917	
55801	    0	4.345113	1.731142	-2.297635	0.718905	-0.112156	2.825265	0.043213	0.018005	-0.022888	0.999893	0.003594	-0.000561	0.014126	
55802	    0	4.546391	1.952211	-2.297070	0.490976	-0.062564	3.446944	0.045125	0.020358	-0.022907	0.999848	0.002455	-0.000313	0.017234	
55803	    0	4.947207	2.523451	-2.126595	0.184072	-0.007630	4.034698	0.048950	0.026245	-0.021240	0.999796	0.000920	-0.000038	0.020172	
55804	    0	5.077684	2.819655	-1.987514	-0.150885	-0.001908	4.594444	0.050112	0.029338	-0.019897	0.999736	-0.000754	-0.000010	0.022970	
55805	    0	5.372091	3.030412	-1.931518	-0.578182	0.014497	5.144312	0.052917	0.031616	-0.019409	0.999664	-0.002891	0.000072	0.025719	
55806	    0	5.105793	1.532978	-1.569135	-0.775248	0.016787	5.544242	0.050607	0.016676	-0.015759	0.999608	-0.003876	0.000084	0.027718	
55807	    0	5.095127	0.551840	-1.877421	-0.528603	-0.210602	5.857932	0.050781	0.006958	-0.018738	0.999567	-0.002643	-0.001053	0.029285	
55808	    0	6.501839	1.629961	-2.583478	-0.430176	-0.455166	6.160194	0.064535	0.018237	-0.025725	0.999520	-0.002151	-0.002275	0.030796	
55809	    0	8.786757	2.916082	-1.904772	-0.763839	-0.562197	6.494543	0.086914	0.031921	-0.018921	0.999461	-0.003819	-0.002810	0.032467	
55810	    0	10.490712	2.233329	-0.550665	-1.167144	-0.666939	6.714798	0.104097	0.025806	-0.005302	0.999413	-0.005835	-0.003334	0.033567	
55811	    0	11.033414	-0.394214	0.644590	-1.007851	-0.914945	6.750296	0.110352	-0.000183	0.006958	0.999407	-0.005038	-0.004574	0.033745	
55812	    0	11.320645	-2.913365	0.662065	0.009157	-1.372983	6.657165	0.114043	-0.025347	0.007401	0.999422	0.000046	-0.006864	0.033279	
55813	    0	12.855728	-2.128766	0.836343	1.336950	-1.893059	6.700775	0.129089	-0.017029	0.009460	0.999372	0.006683	-0.009463	0.033497	
55814	    0	14.978236	0.342843	1.352759	2.068424	-2.132907	6.818054	0.149397	0.008375	0.015192	0.999309	0.010340	-0.010662	0.034082	
55815	    0	17.020305	3.926647	2.088538	2.239010	-2.160217	6.987177	0.168457	0.044922	0.023193	0.999269	0.011192	-0.010798	0.034927	
55816	    0	17.595951	5.620395	2.738614	2.154120	-2.054723	7.108731	0.173524	0.062089	0.029825	0.999257	0.010768	-0.010271	0.035535	
55817	    0	18.183228	5.564129	2.119247	2.354465	-1.980337	7.230712	0.179443	0.061890	0.023682	0.999228	0.011769	-0.009899	0.036144	
55818	    0	20.261476	6.306016	0.660205	2.671385	-1.831164	7.333430	0.200047	0.070315	0.009349	0.999196	0.013353	-0.009153	0.036657	
55819	    0	22.256324	7.687364	-1.155154	2.906829	-1.639813	7.371243	0.219604	0.085144	-0.008545	0.999181	0.014530	-0.008197	0.036846	
55820	    0	23.696896	10.210269	-3.081601	2.974162	-1.501485	7.291839	0.233242	0.111078	-0.027448	0.999196	0.014867	-0.007505	0.036449	
55821	    0	25.384462	13.001291	-3.943882	2.555876	-1.199623	6.961170	0.249329	0.139221	-0.036194	0.999294	0.012776	-0.005997	0.034798	
55822	    0	23.590653	11.967498	-4.847962	2.410975	-1.088926	6.290321	0.232230	0.127581	-0.045702	0.999417	0.012053	-0.005444	0.031446	
55823	    0	21.878432	12.513366	-7.888250	3.114062	-1.312278	5.249876	0.215881	0.132019	-0.075439	0.999513	0.015568	-0.006560	0.026245	
55824	    0	21.252466	19.979879	-6.851966	3.005365	-1.389850	3.992337	0.208922	0.204978	-0.064005	0.999663	0.015025	-0.006948	0.019959	
55825	    0	20.157656	30.199187	-0.713152	2.032014	-1.182624	2.853556	0.197266	0.304871	-0.002869	0.999828	0.010159	-0.005913	0.014267	
55826	    0	15.051477	32.124849	3.013842	0.773058	-0.593002	1.445216	0.148096	0.322204	0.031824	0.999962	0.003865	-0.002965	0.007226	
55827	    0	11.379163	25.327513	0.269384	0.428200	-0.105286	-0.273133	0.114136	0.253113	0.003296	0.999996	0.002141	-0.000526	-0.001366	
55828	    0	12.175627	18.750105	-2.961883	0.555809	0.144388	-1.675437	0.123301	0.186554	-0.029188	0.999960	0.002779	0.000722	-0.008377	
55829	    0	11.038656	13.727554	-3.037419	0.946074	0.100902	-2.565845	0.112122	0.135986	-0.029785	0.999906	0.004730	0.000504	-0.012829	
55830	    0	9.377528	13.207917	-1.567704	1.453856	0.030138	-3.203939	0.095874	0.130664	-0.014738	0.999845	0.007269	0.000151	-0.016019	
55831	    0	9.245428	12.972966	0.190036	1.412477	0.002289	-3.533386	0.094727	0.128052	0.002808	0.999819	0.007062	0.000011	-0.017666	
55832	    0	8.958084	9.997549	1.509528	1.008853	-0.026323	-3.510861	0.091314	0.098305	0.015606	0.999833	0.005044	-0.000132	-0.017553	
55833	    0	7.773530	5.079187	1.780635	0.745427	-0.033380	-3.286899	0.078552	0.049438	0.018005	0.999858	0.003727	-0.000167	-0.016434	
55834	    0	6.200683	1.590221	0.924295	0.885999	-0.080303	-2.962612	0.062229	0.014940	0.009336	0.999880	0.004430	-0.000401	-0.014812	
55835	    0	5.871799	1.737345	-1.981767	1.121558	-0.235565	-2.582636	0.058960	0.016724	-0.019653	0.999900	0.005608	-0.001178	-0.012913	
55836	    0	7.028117	8.127953	-5.431596	0.915553	-0.400745	-2.385206	0.071354	0.080680	-0.053803	0.999916	0.004578	-0.002004	-0.011926	
55837	    0	3.832341	52.926769	-46.323484	5.776904	-4.198558	-3.055578	0.056030	0.541565	-0.446655	0.999246	0.028877	-0.020988	-0.015274	
55838	    0	68.544410	154.550888	-37.896588	-0.395083	0.497003	-12.591116	0.779824	1.497619	-0.383818	0.998013	-0.001974	0.002483	-0.062914	
55839	    0	51.707290	-7.682470	8.493261	-10.282844	1.658271	-5.720834	0.515381	-0.087219	0.084961	0.998235	-0.051384	0.008286	-0.028587	
55840	    0	15.680243	-78.774330	1.700041	-2.666236	0.027851	-4.796439	0.137862	-0.790881	0.027511	0.999623	-0.013330	0.000139	-0.023979	
55841	    0	2.031145	11.574833	-1.567088	0.976893	0.260963	-5.770936	0.023621	0.115173	-0.015137	0.999571	0.004884	0.001305	-0.028851	
55842	    0	29.664929	7.495672	3.618471	-0.344712	-0.114650	-6.110573	0.298735	0.065912	0.036237	0.999531	-0.001723	-0.000573	-0.030548	
55843	    0	35.265302	7.193017	16.073840	-0.955901	0.151082	-5.588518	0.354614	0.062805	0.160156	0.999598	-0.004779	0.000755	-0.027939	
55844	    0	27.945095	-9.092036	12.235059	-1.445735	0.233103	-4.863499	0.277287	-0.096795	0.122712	0.999677	-0.007228	0.001165	-0.024315	
55845	    0	17.267218	-4.822958	8.141684	-0.597248	0.100718	-4.742883	0.171509	-0.052063	0.081482	0.999714	-0.002986	0.000504	-0.023712	
55846	    0	22.989950	1.880980	5.048865	-0.656191	0.041966	-4.755858	0.230273	0.013502	0.050390	0.999711	-0.003281	0.000210	-0.023777	
55847	    0	24.913210	-5.280884	3.826582	-1.718853	-0.008393	-4.089691	0.247986	-0.057556	0.038757	0.999754	-0.008594	-0.000042	-0.020447	
55848	    0	19.886032	-15.793165	1.740118	-1.738657	-0.208295	-3.451372	0.196078	-0.161171	0.018998	0.999812	-0.008693	-0.001041	-0.017256	
55849	    0	16.304300	-6.046652	0.212584	-1.065888	-0.129516	-3.574579	0.161926	-0.063354	0.002563	0.999825	-0.005329	-0.000648	-0.017872	
55850	    0	16.121760	-2.543160	-2.038316	-1.138356	-0.045397	-3.041020	0.160810	-0.027994	-0.020192	0.999867	-0.005692	-0.000227	-0.015204	
55851	    0	13.292677	-7.111951	-4.285341	-1.159698	-0.022698	-2.188166	0.132141	-0.072815	-0.042419	0.999923	-0.005798	-0.000113	-0.010941	
55852	    0	10.230233	-10.069005	-5.678843	-1.150148	-0.223735	-1.489280	0.101610	-0.101772	-0.056091	0.999954	-0.005751	-0.001119	-0.007446	
55853	    0	10.200877	-6.081162	-4.453315	-0.830086	-0.414852	-1.157390	0.101746	-0.061584	-0.044067	0.999972	-0.004150	-0.002074	-0.005787	
55854	    0	9.497118	3.439210	-3.336135	-0.461202	-0.622946	-1.361289	0.095305	0.033668	-0.033143	0.999969	-0.002306	-0.003115	-0.006806	
55855	    0	13.513022	24.615774	-5.975099	-0.466937	-0.205811	-2.993889	0.138855	0.243958	-0.060181	0.999885	-0.002335	-0.001029	-0.014969	
55856	    0	16.579893	27.565208	-13.372232	-1.104425	0.053981	-3.741502	0.170871	0.271743	-0.135276	0.999809	-0.005522	0.000270	-0.018706	
55857	    0	12.849285	14.822298	-9.881863	-2.595520	0.086981	-3.303008	0.130859	0.144775	-0.100769	0.999779	-0.012977	0.000435	-0.016514	
55858	    0	11.229634	2.704804	-5.576719	-3.132320	0.105104	-3.206331	0.112672	0.024365	-0.056222	0.999748	-0.015660	0.000525	-0.016030	
55859	    0	10.444604	-2.114270	-4.012750	-2.613832	0.046543	-3.285459	0.104065	-0.023376	-0.039856	0.999779	-0.013068	0.000233	-0.016426	
55860	    0	9.690019	-3.575221	-3.508528	-2.360882	0.079351	-3.210089	0.096292	-0.037712	-0.034686	0.999801	-0.011804	0.000397	-0.016049	
55861	    0	9.443800	-4.200022	-2.781927	-2.177369	0.118263	-3.111454	0.093750	-0.043762	-0.027405	0.999819	-0.010886	0.000591	-0.015556	
55862	    0	8.914473	-4.696632	-2.356335	-1.907826	0.085835	-2.904466	0.088438	-0.048476	-0.023144	0.999848	-0.009539	0.000429	-0.014522	
55863	    0	9.133132	-4.893667	-2.659177	-1.763803	0.071719	-2.742889	0.090637	-0.050415	-0.026184	0.999866	-0.008819	0.000359	-0.013714	
55864	    0	9.688030	-3.958517	-2.809516	-1.810912	0.115399	-2.573120	0.096342	-0.041080	-0.027783	0.999876	-0.009054	0.000577	-0.012865	
55865	    0	10.076461	-3.200182	-3.099641	-1.993451	0.187691	-2.386571	0.100342	-0.033508	-0.030762	0.999878	-0.009967	0.000938	-0.011932	
55866	    0	10.096905	-3.187010	-3.109890	-2.017671	0.266658	-2.250567	0.100558	-0.033316	-0.030902	0.999885	-0.010088	0.001333	-0.011252	
55867	    0	9.824198	-3.220641	-3.288836	-1.907987	0.290690	-2.143934	0.097839	-0.033569	-0.032715	0.999895	-0.009540	0.001453	-0.010719	
55868	    0	10.155086	-3.274870	-3.517394	-1.695494	0.325022	-2.085749	0.101143	-0.034102	-0.035053	0.999907	-0.008477	0.001625	-0.010428	
55869	    0	10.943520	-3.420994	-3.294972	-1.494449	0.386058	-2.066097	0.109009	-0.035583	-0.032898	0.999916	-0.007472	0.001930	-0.010330	
55870	    0	11.787943	-4.038541	-2.853505	-1.265748	0.410472	-2.059797	0.117395	-0.041777	-0.028515	0.999925	-0.006329	0.002052	-0.010299	
55871	    0	12.465424	-5.043779	-2.563953	-0.939771	0.380715	-2.028699	0.124084	-0.051819	-0.025635	0.999935	-0.004699	0.001904	-0.010143	
55872	    0	12.455092	-5.905134	-1.938148	-0.583087	0.307470	-1.929507	0.123943	-0.060306	-0.019398	0.999948	-0.002915	0.001537	-0.009647	
55873	    0	11.918792	-5.509514	-1.309242	-0.136568	0.217632	-1.866940	0.118652	-0.056213	-0.013184	0.999955	-0.000683	0.001088	-0.009335	
55874	    0	11.127988	-4.710856	-1.381921	0.251773	0.085069	-1.691457	0.110870	-0.048030	-0.013927	0.999963	0.001259	0.000425	-0.008457	
55875	    0	9.824380	-3.881468	-1.585584	0.490575	-0.044823	-1.456466	0.097961	-0.039490	-0.015930	0.999970	0.002453	-0.000224	-0.007282	
55876	    0	8.411211	-3.028228	-1.626255	0.597195	-0.120927	-1.161965	0.083944	-0.030722	-0.016303	0.999978	0.002986	-0.000605	-0.005810	
55877	    0	7.827397	-2.508002	-1.638328	0.711254	-0.139619	-0.787357	0.078186	-0.025330	-0.016418	0.999985	0.003556	-0.000698	-0.003937	
55878	    0	7.863146	-2.435569	-1.965596	0.927166	-0.148965	-0.409891	0.078596	-0.024426	-0.019711	0.999987	0.004636	-0.000745	-0.002049	
55879	    0	8.078462	-1.933404	-2.357173	1.223000	-0.169946	0.061036	0.080811	-0.019165	-0.023621	0.999980	0.006115	-0.000850	0.000305	
55880	    0	7.791189	0.022353	-3.270670	1.243983	-0.227930	0.579266	0.077948	0.000652	-0.032615	0.999975	0.006220	-0.001140	0.002896	
55881	    0	7.128242	1.355565	-3.015196	0.876053	-0.173189	1.155864	0.071228	0.014099	-0.030029	0.999973	0.004380	-0.000866	0.005779	
55882	    0	6.232620	0.910813	-2.743336	0.620088	-0.147059	1.700806	0.062265	0.009723	-0.027358	0.999958	0.003100	-0.000735	0.008504	
55883	    0	5.689850	0.840395	-2.497730	0.459300	-0.192074	2.227069	0.056824	0.009094	-0.024902	0.999934	0.002296	-0.000960	0.011135	
55884	    0	5.589207	1.232391	-2.429145	0.239189	-0.206191	2.735034	0.055741	0.013116	-0.024219	0.999905	0.001196	-0.001031	0.013675	
55885	    0	5.455064	1.138217	-2.076061	0.057414	-0.243388	3.232716	0.054382	0.012268	-0.020691	0.999868	0.000287	-0.001217	0.016163	
55886	    0	5.666236	1.617349	-2.134678	-0.070195	-0.307101	3.720690	0.056381	0.017217	-0.021266	0.999825	-0.000351	-0.001535	0.018602	
55887	    0	6.022580	1.726090	-1.625304	-0.220315	-0.328851	4.169006	0.059875	0.018494	-0.016174	0.999781	-0.001101	-0.001644	0.020844	
55888	    0	6.574793	1.414197	-1.200926	-0.219937	-0.396000	4.557054	0.065427	0.015622	-0.011896	0.999738	-0.001100	-0.001980	0.022783	
55889	    0	7.442723	1.088180	-1.073951	-0.102244	-0.502637	4.899330	0.074158	0.012695	-0.010559	0.999696	-0.000511	-0.002513	0.024494	
55890	    0	8.491724	1.343249	-1.027253	-0.002480	-0.672801	5.263946	0.084558	0.015661	-0.009988	0.999647	-0.000012	-0.003364	0.026317	
55891	    0	9.446243	1.395984	-0.861873	-0.029568	-0.809587	5.611408	0.094055	0.016602	-0.008240	0.999598	-0.000148	-0.004047	0.028053	
55892	    0	9.915223	0.870165	-0.471120	0.007821	-1.009138	5.906035	0.098860	0.011624	-0.004211	0.999551	0.000039	-0.005045	0.029526	
55893	    0	10.494431	0.508310	-0.271357	0.069630	-1.213272	6.138086	0.104736	0.008301	-0.002075	0.999510	0.000348	-0.006065	0.030685	
55894	    0	10.799947	-0.696578	0.265916	0.295499	-1.360364	6.265762	0.108126	-0.003584	0.003387	0.999485	0.001477	-0.006801	0.031323	
55895	    0	11.274596	-1.432115	0.287265	0.837860	-1.593880	6.360258	0.113098	-0.010742	0.003723	0.999454	0.004189	-0.007968	0.031796	
55896	    0	12.219489	-1.573014	-0.104453	1.350855	-1.747088	6.448659	0.122621	-0.011778	-0.000063	0.999419	0.006753	-0.008734	0.032237	
55897	    0	13.228370	-0.793521	-0.040097	1.893448	-1.875706	6.644333	0.132446	-0.003540	0.000793	0.999359	0.009465	-0.009377	0.033215	
55898	    0	14.180797	0.379163	-0.230236	2.126605	-1.892711	6.816125	0.141582	0.008635	-0.000887	0.999317	0.010631	-0.009461	0.034073	
55899	    0	15.631564	2.041755	0.019269	2.283269	-1.907621	7.032195	0.155457	0.025879	0.001953	0.999270	0.011414	-0.009536	0.035152	
55900	    0	17.275561	3.288328	-0.219543	2.371442	-1.831333	7.246539	0.171421	0.039122	-0.000182	0.999231	0.011854	-0.009154	0.036223	
55901	    0	19.280211	4.433159	-0.960234	2.425274	-1.755042	7.455924	0.191040	0.051575	-0.007324	0.999192	0.012123	-0.008773	0.037270	
55902	    0	21.279725	5.796861	-1.495283	2.392286	-1.636004	7.612044	0.210491	0.066170	-0.012465	0.999170	0.011958	-0.008178	0.038050	
55903	    0	23.047862	7.851135	-1.575104	2.372824	-1.477458	7.639130	0.227356	0.087402	-0.013062	0.999172	0.011861	-0.007385	0.038185	
55904	    0	24.971716	9.805937	-1.756413	2.331398	-1.227704	7.526484	0.245885	0.107546	-0.014830	0.999205	0.011654	-0.006137	0.037622	
55905	    0	26.848971	10.956228	-2.441468	2.358241	-1.082872	7.143595	0.264465	0.119324	-0.021606	0.999277	0.011788	-0.005413	0.035709	
55906	    0	25.045432	11.323203	-5.383198	2.618945	-1.166774	6.402566	0.246947	0.121855	-0.050826	0.999385	0.013092	-0.005833	0.032006	
55907	    0	21.949329	14.541917	-8.769336	3.063894	-1.409380	5.285747	0.216125	0.152466	-0.083862	0.999508	0.015317	-0.007046	0.026424	
55908	    0	20.520266	23.937607	-6.134893	2.903497	-1.500487	3.986800	0.200801	0.244250	-0.056309	0.999667	0.014516	-0.007502	0.019932	
55909	    0	18.784338	33.957137	0.895103	2.245458	-1.294591	2.623897	0.183289	0.341858	0.013977	0.999829	0.011227	-0.006473	0.013119	
55910	    0	14.348556	33.999776	3.319504	1.298920	-0.692757	0.873004	0.141879	0.340392	0.035898	0.999963	0.006495	-0.003464	0.004365	
55911	    0	12.967013	27.579352	-0.218041	1.046189	-0.198366	-0.907142	0.130920	0.275208	-0.000610	0.999975	0.005231	-0.000992	-0.004536	
55912	    0	12.634411	21.144798	-3.266962	1.167326	0.007057	-2.133804	0.128591	0.210270	-0.031445	0.999926	0.005836	0.000035	-0.010669	
55913	    0	10.949591	16.317701	-3.421122	1.504775	-0.056460	-2.923716	0.111877	0.161804	-0.032959	0.999865	0.007524	-0.000282	-0.014618	
55914	    0	9.319444	15.032080	-2.565850	1.780434	-0.165950	-3.500210	0.095829	0.148879	-0.024250	0.999806	0.008902	-0.000830	-0.017500	
55915	    0	9.258881	14.495185	-0.835928	1.501566	-0.163852	-3.727973	0.095276	0.143250	-0.007202	0.999797	0.007507	-0.000819	-0.018639	
55916	    0	9.045952	11.985579	0.695741	0.903563	-0.137337	-3.613872	0.092600	0.118162	0.007557	0.999825	0.004518	-0.000687	-0.018068	
55917	    0	7.969317	8.002444	0.905347	0.420590	-0.142676	-3.303681	0.080994	0.078674	0.009277	0.999861	0.002103	-0.000713	-0.016518	
55918	    0	7.506295	6.546635	-1.388615	0.178725	-0.226792	-2.905949	0.076019	0.064379	-0.013742	0.999893	0.000894	-0.001134	-0.014529	
55919	    0	6.025141	16.264336	-15.030618	-0.032617	-1.184128	-2.808489	0.063416	0.161743	-0.149963	0.999884	-0.000163	-0.005920	-0.014042	
55920	    0	10.874826	100.314608	-70.845007	8.092779	-4.968678	-5.593269	0.154118	1.026728	-0.663754	0.998482	0.040443	-0.024831	-0.027952	
55921	    0	81.757474	108.160960	1.209870	-9.014976	3.205189	-14.149886	0.890747	1.018982	-0.048706	0.996355	-0.045020	0.016006	-0.070663	
55922	    0	41.444653	-52.719285	14.564655	-6.893988	0.106836	-2.814943	0.407106	-0.527524	0.163610	0.999307	-0.034462	0.000534	-0.014071	
55923	    0	6.225818	-39.842440	-0.164452	-1.875442	0.552465	-6.173259	0.049927	-0.400085	0.001953	0.999475	-0.009376	0.002762	-0.030861	
55924	    0	9.504048	9.038426	-7.389305	0.354246	0.009920	-5.901624	0.097651	0.087659	-0.073741	0.999562	0.001771	0.000050	-0.029504	
55925	    0	32.264949	6.280752	6.136107	-1.069052	0.052842	-6.158687	0.324402	0.053162	0.060974	0.999511	-0.005344	0.000264	-0.030788	
55926	    0	34.055069	-1.309044	14.402458	-1.074361	0.033574	-5.531280	0.340054	-0.021727	0.144069	0.999602	-0.005371	0.000168	-0.027653	
55927	    0	26.681960	-3.647444	8.071574	-1.725016	0.144975	-4.990204	0.265869	-0.042419	0.080872	0.999651	-0.008624	0.000725	-0.024948	
55928	    0	17.174960	-3.808701	5.848934	-1.242382	-0.052648	-4.773433	0.170766	-0.041806	0.058786	0.999696	-0.006211	-0.000263	-0.023865	
55929	    0	23.203178	0.468985	4.214017	-1.729752	-0.041012	-4.513989	0.232056	-0.000183	0.042175	0.999707	-0.008648	-0.000205	-0.022568	
55930	    0	22.346235	-10.010132	2.128805	-2.746821	0.007630	-3.656515	0.221587	-0.103859	0.022689	0.999738	-0.013733	0.000038	-0.018281	
55931	    0	17.519056	-12.132421	1.652529	-2.204079	-0.142679	-3.186235	0.173218	-0.123901	0.018005	0.999811	-0.011020	-0.000713	-0.015930	
55932	    0	16.000709	-2.999890	-0.226855	-1.631442	-0.040056	-3.188304	0.159502	-0.032561	-0.001978	0.999839	-0.008157	-0.000200	-0.015941	
55933	    0	13.621447	-4.128137	-1.542705	-1.552638	0.058176	-2.489561	0.135681	-0.043091	-0.015137	0.999892	-0.007763	0.000291	-0.012447	
55934	    0	10.031702	-8.226340	-4.141704	-1.525721	0.059701	-1.670492	0.099611	-0.083410	-0.040813	0.999935	-0.007628	0.000299	-0.008352	
55935	    0	7.616014	-9.511371	-3.406280	-1.535054	-0.012016	-0.874340	0.075745	-0.095703	-0.033325	0.999961	-0.007675	-0.000060	-0.004372	
55936	    0	7.118082	-6.504081	-3.664462	-1.033407	-0.018501	-0.543407	0.071007	-0.065422	-0.036301	0.999983	-0.005167	-0.000093	-0.002717	
55937	    0	8.157757	-0.176140	-2.788508	-0.891119	0.191690	-0.763707	0.081543	-0.002197	-0.027954	0.999982	-0.004456	0.000958	-0.003819	
55938	    0	14.481744	18.920424	-5.397803	-0.589958	0.641458	-2.311193	0.146814	0.187354	-0.055001	0.999924	-0.002950	0.003207	-0.011556	
55939	    0	16.226464	23.723260	-12.285390	-0.560783	0.694494	-2.981688	0.165344	0.234436	-0.124084	0.999879	-0.002804	0.003472	-0.014908	
55940	    0	12.560435	12.019519	-9.786063	-1.238104	0.617240	-2.556891	0.126818	0.117969	-0.098986	0.999894	-0.006190	0.003086	-0.012784	
55941	    0	10.563419	1.221504	-5.801634	-1.412057	0.598164	-2.356798	0.105591	0.010559	-0.058411	0.999901	-0.007060	0.002991	-0.011784	
55942	    0	9.166088	-2.146132	-4.857718	-1.088368	0.511186	-2.495082	0.091257	-0.022866	-0.048689	0.999904	-0.005442	0.002556	-0.012475	
55943	    0	8.218024	-2.801817	-3.980374	-0.801874	0.409902	-2.584157	0.081726	-0.029236	-0.039856	0.999906	-0.004009	0.002049	-0.012920	
55944	    0	8.455452	-3.234728	-2.881216	-0.636310	0.379764	-2.513576	0.084084	-0.033498	-0.028867	0.999914	-0.003181	0.001899	-0.012568	
55945	    0	9.450555	-3.416771	-2.086427	-0.471508	0.325211	-2.382720	0.094055	-0.035339	-0.020935	0.999925	-0.002357	0.001626	-0.011913	
55946	    0	10.316957	-3.009304	-2.626009	-0.553334	0.264937	-2.225544	0.102791	-0.031311	-0.026311	0.999933	-0.002767	0.001325	-0.011127	
55947	    0	10.990466	-2.278654	-2.887796	-0.910779	0.292212	-2.059218	0.109619	-0.024048	-0.028931	0.999935	-0.004554	0.001461	-0.010296	
55948	    0	10.913799	-1.798091	-2.995925	-1.295119	0.336273	-1.912733	0.108908	-0.019217	-0.030021	0.999931	-0.006475	0.001681	-0.009563	
55949	    0	10.484369	-2.436261	-3.271747	-1.522101	0.361070	-1.838729	0.104553	-0.025574	-0.032715	0.999927	-0.007610	0.001805	-0.009193	
55950	    0	10.265493	-3.039441	-3.741336	-1.431117	0.339707	-1.863523	0.102301	-0.031616	-0.037364	0.999929	-0.007155	0.001698	-0.009317	
55951	    0	10.443947	-2.591440	-4.771755	-1.225308	0.220685	-1.947828	0.104126	-0.027222	-0.047668	0.999932	-0.006126	0.001103	-0.009739	
55952	    0	11.022841	-2.624464	-4.706553	-1.264029	0.172047	-1.969192	0.109921	-0.027625	-0.046988	0.999930	-0.006320	0.000860	-0.009846	
55953	    0	11.968387	-3.265597	-3.253496	-1.351008	0.170140	-1.979876	0.119324	-0.034058	-0.032410	0.999928	-0.006755	0.000851	-0.009899	
55954	    0	12.945328	-3.923046	-2.076494	-1.210812	0.142291	-1.981017	0.129041	-0.040635	-0.020614	0.999932	-0.006054	0.000711	-0.009905	
55955	    0	13.232058	-4.304377	-1.421119	-0.907915	0.039864	-1.915777	0.131897	-0.044373	-0.014038	0.999944	-0.004539	0.000199	-0.009579	
55956	    0	12.886462	-3.768714	-0.609560	-0.622377	-0.072862	-1.817350	0.128517	-0.038875	-0.005929	0.999953	-0.003112	-0.000364	-0.009087	
55957	    0	11.743948	-2.983897	-0.296500	-0.346379	-0.178339	-1.669332	0.117188	-0.030823	-0.002808	0.999963	-0.001732	-0.000892	-0.008347	
55958	    0	10.135699	-2.411125	-0.592446	-0.117494	-0.290301	-1.444830	0.101188	-0.024846	-0.005763	0.999972	-0.000587	-0.001451	-0.007224	
55959	    0	8.707290	-1.926790	-0.925169	0.029183	-0.368502	-1.169594	0.086975	-0.019775	-0.009094	0.999981	0.000146	-0.001842	-0.005848	
55960	    0	7.601451	-1.632307	-1.078518	0.141526	-0.382425	-0.835803	0.075966	-0.016633	-0.010652	0.999989	0.000708	-0.001912	-0.004179	
55961	    0	6.903776	-1.352512	-1.202877	0.285340	-0.424004	-0.474549	0.069031	-0.013672	-0.011902	0.999993	0.001427	-0.002120	-0.002373	
55962	    0	6.828165	-1.112948	-1.166986	0.424958	-0.420380	-0.052261	0.068303	-0.011123	-0.011550	0.999995	0.002125	-0.002102	-0.000261	
55963	    0	7.430974	-0.556483	-1.055698	0.580599	-0.365258	0.439454	0.074341	-0.005371	-0.010437	0.999991	0.002903	-0.001826	0.002197	
55964	    0	7.575254	0.326837	-1.630767	0.616458	-0.335886	0.910001	0.075764	0.003663	-0.016170	0.999983	0.003082	-0.001679	0.004550	
55965	    0	7.140862	1.100001	-1.350881	0.533300	-0.313380	1.400771	0.071350	0.011536	-0.013367	0.999970	0.002666	-0.001567	0.007004	
55966	    0	6.661719	1.398963	-1.702499	0.451668	-0.303273	1.916726	0.066504	0.014666	-0.016891	0.999949	0.002258	-0.001516	0.009583	
55967	    0	6.125023	0.883988	-1.224793	0.423632	-0.268561	2.343043	0.061157	0.009583	-0.012146	0.999928	0.002118	-0.001343	0.011715	
55968	    0	5.670564	0.149287	-0.806634	0.587483	-0.292406	2.765176	0.056689	0.002300	-0.007977	0.999899	0.002937	-0.001462	0.013825	
55969	    0	5.738157	0.832095	-0.831072	0.736461	-0.345628	3.232724	0.057251	0.009277	-0.008179	0.999861	0.003682	-0.001728	0.016163	
55970	    0	5.964830	1.985553	-0.797853	0.678675	-0.323506	3.721270	0.059278	0.020988	-0.007812	0.999820	0.003393	-0.001617	0.018605	
55971	    0	6.294959	3.233516	-1.000182	0.453221	-0.319506	4.268976	0.062256	0.033691	-0.009827	0.999768	0.002266	-0.001597	0.021343	
55972	    0	6.454867	3.381973	-1.052496	0.120365	-0.203343	4.764436	0.063729	0.035351	-0.010439	0.999715	0.000602	-0.001017	0.023820	
55973	    0	6.380169	2.124707	-0.867088	0.022318	-0.196860	5.171781	0.063232	0.022888	-0.008606	0.999664	0.000112	-0.000984	0.025856	
55974	    0	6.801707	1.191735	-1.221181	0.154706	-0.301971	5.494430	0.067674	0.013789	-0.012099	0.999620	0.000773	-0.001510	0.027469	
55975	    0	7.729672	1.344165	-1.655812	0.231394	-0.476141	5.777025	0.076904	0.015686	-0.016357	0.999578	0.001157	-0.002380	0.028881	
55976	    0	8.676719	1.523430	-1.639157	0.061617	-0.565424	6.003145	0.086304	0.017835	-0.016142	0.999545	0.000308	-0.002827	0.030011	
55977	    0	8.800508	0.111960	-1.098764	0.093284	-0.693624	6.184623	0.087952	0.003845	-0.010681	0.999516	0.000466	-0.003468	0.030918	
55978	    0	8.938704	-1.240939	-1.194196	0.581459	-0.955364	6.309063	0.089774	-0.009547	-0.011544	0.999486	0.002907	-0.004776	0.031540	
55979	    0	9.842024	-0.643128	-1.254498	1.095785	-1.228370	6.473982	0.098633	-0.003174	-0.011963	0.999442	0.005478	-0.006141	0.032364	
55980	    0	10.920909	0.675464	-0.618845	1.456176	-1.446065	6.680513	0.108942	0.010438	-0.005333	0.999389	0.007279	-0.007229	0.033396	
55981	    0	12.448616	2.430319	0.091177	1.584211	-1.629807	6.902306	0.123535	0.028564	0.002136	0.999339	0.007919	-0.008147	0.034504	
55982	    0	13.716363	3.807690	0.921624	1.662262	-1.730943	7.105013	0.135610	0.042829	0.010737	0.999296	0.008309	-0.008653	0.035517	
55983	    0	15.094347	5.103148	0.854129	1.778090	-1.803846	7.289406	0.148865	0.056396	0.010376	0.999255	0.008888	-0.009017	0.036438	
55984	    0	17.419679	6.269092	-0.051292	1.937988	-1.759986	7.449178	0.171694	0.069109	0.001655	0.999220	0.009687	-0.008798	0.037236	
55985	    0	20.329213	7.051763	-1.581696	2.088720	-1.647433	7.524580	0.200562	0.078247	-0.013367	0.999204	0.010441	-0.008235	0.037613	
55986	    0	23.566920	8.854566	-2.880693	2.309265	-1.615951	7.447303	0.232365	0.097550	-0.025828	0.999207	0.011543	-0.008078	0.037227	
55987	    0	26.967190	13.068138	-3.321480	2.167280	-1.502406	7.209259	0.264954	0.140625	-0.029724	0.999263	0.010834	-0.007510	0.036037	
55988	    0	26.412971	13.576655	-2.288196	1.603270	-1.260066	6.769064	0.259463	0.144771	-0.020101	0.999374	0.008015	-0.006299	0.033838	
55989	    0	23.158900	9.817244	-2.810096	2.092342	-1.316108	5.953484	0.228699	0.105286	-0.025513	0.999480	0.010460	-0.006579	0.029762	
55990	    0	22.053109	11.632153	-6.641439	3.054290	-1.519801	4.740053	0.218163	0.122490	-0.062911	0.999573	0.015269	-0.007598	0.023697	
55991	    0	21.294146	22.640102	-4.661466	3.003981	-1.525835	3.420586	0.209351	0.230652	-0.041565	0.999711	0.015018	-0.007628	0.017101	
55992	    0	19.141789	35.062746	1.562591	1.831124	-1.164481	2.105602	0.187606	0.352447	0.019947	0.999886	0.009155	-0.005822	0.010528	
55993	    0	12.406093	32.119803	3.780912	0.626566	-0.498201	0.343324	0.123413	0.321289	0.039124	0.999990	0.003133	-0.002491	0.001717	
55994	    0	13.101993	24.009513	0.067601	0.435451	-0.000572	-1.376736	0.132668	0.239183	0.001198	0.999973	0.002177	-0.000003	-0.006884	
55995	    0	13.554488	16.879896	-2.082840	0.470174	0.196843	-2.442996	0.137573	0.167175	-0.020569	0.999922	0.002351	0.000984	-0.012215	
55996	    0	11.037891	12.518976	-2.086399	0.762400	0.181969	-3.107967	0.112288	0.123533	-0.020493	0.999871	0.003812	0.000910	-0.015539	
55997	    0	9.411657	11.646456	-1.270910	1.074282	0.118453	-3.609680	0.096191	0.114807	-0.012146	0.999822	0.005371	0.000592	-0.018047	
55998	    0	9.707577	12.009198	0.038248	1.025650	0.094802	-3.867407	0.099374	0.118181	0.000945	0.999800	0.005128	0.000474	-0.019336	
55999	    0	10.178954	10.310637	1.109175	0.732469	0.098616	-3.861485	0.103760	0.101074	0.011414	0.999806	0.003662	0.000493	-0.019306	
56000	    0	9.549123	6.784325	0.773114	0.333804	0.078015	-3.601271	0.096695	0.066096	0.007805	0.999836	0.001669	0.000390	-0.018005	
56001	    0	8.629923	5.307770	-1.772538	0.316825	-0.148780	-3.243399	0.087158	0.051697	-0.017578	0.999866	0.001584	-0.000744	-0.016216	
56002	    0	6.870147	19.031839	-17.286748	0.873235	-1.362690	-3.381164	0.073086	0.189858	-0.171550	0.999824	0.004366	-0.006813	-0.016905	
56003	    0	17.565495	101.946908	-58.870026	6.706036	-3.723773	-6.570175	0.219910	1.031616	-0.550415	0.998725	0.033516	-0.018611	-0.032837	
56004	    0	70.681499	92.263344	4.673322	-7.856084	2.594957	-12.720101	0.763769	0.875899	0.002024	0.997123	-0.039243	0.012962	-0.063540	
56005	    0	30.936985	-42.987709	5.314227	-7.594184	0.250507	-3.309052	0.302307	-0.432495	0.069153	0.999141	-0.037960	0.001252	-0.016541	
56006	    0	5.801510	-49.624236	0.211478	-2.534492	0.555124	-5.482370	0.044405	-0.497505	0.008279	0.999539	-0.012671	0.002775	-0.027408	
56007	    0	7.086303	7.098975	-6.354513	0.578385	0.200107	-5.602243	0.072754	0.069153	-0.063416	0.999602	0.002892	0.001000	-0.028008	
56008	    0	29.480385	12.381117	7.620268	0.038534	0.249709	-5.927574	0.298394	0.114987	0.075854	0.999559	0.000193	0.001248	-0.029634	
56009	    0	28.612279	8.204667	11.339291	-1.002424	0.316655	-5.073352	0.288269	0.075317	0.112549	0.999664	-0.005012	0.001583	-0.025364	
56010	    0	21.213643	-4.748372	8.235287	-1.563006	0.345639	-4.070225	0.211263	-0.051146	0.082377	0.999761	-0.007814	0.001728	-0.020350	
56011	    0	13.771922	-1.711996	4.390659	-0.914831	0.246638	-4.065237	0.137390	-0.019714	0.043823	0.999782	-0.004574	0.001233	-0.020325	
56012	    0	18.852217	1.783766	3.343576	-1.208006	0.325797	-3.844905	0.188875	0.014409	0.033034	0.999795	-0.006040	0.001629	-0.019223	
56013	    0	20.022607	-6.454043	2.148205	-1.795865	0.228894	-3.105331	0.199219	-0.067444	0.021851	0.999838	-0.008979	0.001144	-0.015526	
56014	    0	17.390579	-6.262735	1.185760	-1.627795	0.083927	-2.586847	0.173082	-0.064771	0.012306	0.999883	-0.008139	0.000420	-0.012934	
56015	    0	16.714498	-0.533350	-0.693514	-1.247257	0.151067	-2.549829	0.167053	-0.007507	-0.007019	0.999899	-0.006236	0.000755	-0.012749	
56016	    0	14.365649	-4.351282	-2.544351	-1.208523	0.139430	-1.949162	0.143205	-0.045063	-0.025274	0.999933	-0.006042	0.000697	-0.009746	
56017	    0	12.409108	-4.796101	-4.315349	-1.234454	0.187114	-1.365681	0.123718	-0.049072	-0.042969	0.999957	-0.006172	0.000936	-0.006828	
56018	    0	11.102630	-6.694624	-5.392353	-1.582738	0.201800	-0.748072	0.110720	-0.067785	-0.053501	0.999961	-0.007914	0.001009	-0.003740	
56019	    0	11.542282	-8.153666	-5.618476	-1.717971	0.106050	-0.238803	0.115295	-0.082153	-0.055542	0.999962	-0.008590	0.000530	-0.001194	
56020	    0	11.585001	-4.962039	-5.267938	-1.954110	0.024033	-0.266461	0.115777	-0.050286	-0.052204	0.999951	-0.009770	0.000120	-0.001332	
56021	    0	13.402966	11.796056	-4.605874	-2.342104	0.174718	-1.328318	0.134766	0.116516	-0.047546	0.999908	-0.011710	0.000874	-0.006641	
56022	    0	17.738095	26.798281	-9.915436	-1.913172	0.549727	-2.957691	0.181030	0.264356	-0.102189	0.999841	-0.009565	0.002748	-0.014788	
56023	    0	16.991341	16.657156	-11.615896	-2.311856	0.699089	-3.119862	0.172058	0.162537	-0.118652	0.999804	-0.011559	0.003495	-0.015598	
56024	    0	13.589963	0.322990	-6.652271	-2.466150	0.553162	-2.666242	0.135735	0.000596	-0.066916	0.999831	-0.012330	0.002766	-0.013330	
56025	    0	12.941969	-3.496997	-3.599273	-1.805963	0.348108	-2.813090	0.128845	-0.037109	-0.035889	0.999858	-0.009029	0.001740	-0.014065	
56026	    0	12.189728	-1.537672	-2.602658	-1.258712	0.409143	-2.880408	0.121604	-0.017294	-0.026171	0.999874	-0.006293	0.002046	-0.014401	
56027	    0	12.517784	-2.082718	-1.675273	-1.105544	0.539611	-2.856560	0.124817	-0.022705	-0.016968	0.999879	-0.005527	0.002698	-0.014282	
56028	    0	13.771914	-4.310274	-1.685267	-1.077508	0.653486	-2.971969	0.137002	-0.045234	-0.017061	0.999869	-0.005387	0.003267	-0.014859	
56029	    0	13.149812	-4.791356	-1.866915	-0.917089	0.635744	-2.848927	0.130737	-0.049866	-0.018860	0.999883	-0.004585	0.003179	-0.014244	
56030	    0	12.083944	-5.271448	-2.426725	-0.730158	0.575657	-2.694412	0.120044	-0.054424	-0.024417	0.999898	-0.003651	0.002878	-0.013472	
56031	    0	11.790792	-5.747380	-3.152841	-0.598735	0.552385	-2.579577	0.117065	-0.059082	-0.031677	0.999908	-0.002994	0.002762	-0.012897	
56032	    0	11.545358	-5.967847	-3.405608	-0.526634	0.586336	-2.479051	0.114601	-0.061193	-0.034233	0.999915	-0.002633	0.002932	-0.012395	
56033	    0	11.386309	-5.418293	-3.620645	-0.297363	0.553145	-2.410188	0.113098	-0.055603	-0.036438	0.999922	-0.001487	0.002766	-0.012051	
56034	    0	11.646579	-4.468605	-4.106796	-0.144771	0.481236	-2.408088	0.115817	-0.046113	-0.041314	0.999924	-0.000724	0.002406	-0.012040	
56035	    0	12.574430	-3.942619	-3.669449	-0.204282	0.435649	-2.378141	0.125183	-0.040955	-0.036926	0.999926	-0.001021	0.002178	-0.011890	
56036	    0	13.843101	-3.731460	-3.715459	-0.435840	0.370798	-2.346287	0.137911	-0.039016	-0.037327	0.999927	-0.002179	0.001854	-0.011731	
56037	    0	14.724920	-4.491626	-3.076787	-0.607887	0.348672	-2.290399	0.146667	-0.046692	-0.030884	0.999928	-0.003039	0.001743	-0.011452	
56038	    0	14.961446	-5.419814	-1.783969	-0.756472	0.280387	-2.249390	0.148967	-0.055943	-0.017839	0.999928	-0.003782	0.001402	-0.011247	
56039	    0	14.773607	-5.657512	-1.051633	-0.756853	0.188641	-2.189686	0.147095	-0.058228	-0.010437	0.999932	-0.003784	0.000943	-0.010948	
56040	    0	14.200339	-5.487721	-0.652833	-0.646032	0.072481	-2.092022	0.141417	-0.056379	-0.006399	0.999940	-0.003230	0.000362	-0.010460	
56041	    0	13.210412	-5.154999	-0.751721	-0.434883	-0.027276	-1.958498	0.131592	-0.052856	-0.007385	0.999949	-0.002174	-0.000136	-0.009792	
56042	    0	12.020957	-4.730579	-0.962489	-0.170328	-0.096322	-1.715491	0.119802	-0.048343	-0.009526	0.999962	-0.000852	-0.000482	-0.008577	
56043	    0	10.927877	-3.921863	-1.329838	0.184061	-0.165559	-1.414502	0.109009	-0.039978	-0.013245	0.999973	0.000920	-0.000828	-0.007072	
56044	    0	9.925125	-3.029004	-1.547628	0.535777	-0.142289	-0.979238	0.099113	-0.030734	-0.015488	0.999984	0.002679	-0.000711	-0.004896	
56045	    0	8.982367	-2.266199	-1.946404	1.018529	-0.108147	-0.453188	0.089783	-0.022766	-0.019531	0.999984	0.005093	-0.000541	-0.002266	
56046	    0	7.278829	-0.538584	-2.629005	1.259431	-0.140954	0.091553	0.072809	-0.005187	-0.026272	0.999979	0.006297	-0.000705	0.000458	
56047	    0	5.519318	0.697430	-1.727633	1.151475	-0.083924	0.687414	0.055176	0.007263	-0.017212	0.999977	0.005757	-0.000420	0.003437	
56048	    0	4.175076	1.071888	-1.892200	1.171127	-0.072289	1.269356	0.041688	0.011094	-0.018843	0.999962	0.005856	-0.000361	0.006347	
56049	    0	3.427091	1.012859	-1.911446	1.197267	-0.053407	1.849403	0.034180	0.010559	-0.019043	0.999939	0.005986	-0.000267	0.009247	
