// Start Time: Unknown
// Update Rate: 100.0Hz
// Filter Profile: human (34.3)
// Firmware Version: 2.1.4
PacketCounter	SampleTimeFine	Acc_X	Acc_Y	Acc_Z	Gyr_X	Gyr_Y	Gyr_Z	VelInc_X	VelInc_Y	VelInc_Z	OriInc_q0	OriInc_q1	OriInc_q2	OriInc_q3	
 2187	    0	14.815749	2.836565	-5.985007	0.020601	-0.126469	-4.669614	0.148804	0.024902	-0.059753	0.999726	0.000103	-0.000632	-0.023346	
 2188	    0	18.692722	0.906105	-7.510568	-1.390784	0.045399	-4.633402	0.187045	0.004206	-0.075189	0.999707	-0.006953	0.000227	-0.023165	
 2189	    0	21.251468	-4.152049	-7.422068	-2.601159	0.152033	-4.551455	0.211426	-0.047302	-0.073792	0.999656	-0.013004	0.000760	-0.022755	
 2190	    0	21.375878	-8.766033	-6.151794	-3.274966	0.153371	-4.553248	0.211628	-0.093488	-0.060182	0.999606	-0.016373	0.000767	-0.022763	
 2191	    0	19.786313	-11.167888	-4.410925	-3.377241	0.136776	-4.693495	0.195129	-0.117004	-0.042297	0.999581	-0.016884	0.000684	-0.023464	
 2192	    0	19.191142	-11.177729	-2.835438	-3.042068	0.083172	-4.876045	0.189093	-0.116825	-0.026682	0.999587	-0.015208	0.000416	-0.024377	
 2193	    0	19.787017	-9.894238	-2.217953	-2.614750	-0.028233	-5.000969	0.195312	-0.104126	-0.020813	0.999601	-0.013072	-0.000141	-0.025002	
 2194	    0	20.521884	-8.200961	-1.799693	-2.313533	-0.120560	-5.083364	0.203053	-0.087389	-0.016884	0.999610	-0.011566	-0.000603	-0.025414	
 2195	    0	19.887684	-6.863004	-1.389605	-2.073734	-0.212123	-5.020760	0.197083	-0.073730	-0.012939	0.999630	-0.010367	-0.001060	-0.025101	
 2196	    0	18.808502	-6.480697	-0.415535	-1.686090	-0.269729	-4.831461	0.186451	-0.069355	-0.003331	0.999671	-0.008430	-0.001348	-0.024155	
 2197	    0	18.309724	-6.242005	0.273659	-1.003353	-0.255416	-4.461297	0.181641	-0.066467	0.003296	0.999738	-0.005016	-0.001277	-0.022305	
 2198	    0	16.578926	-5.645914	0.183429	-0.159274	-0.215735	-3.928438	0.164636	-0.059699	0.002059	0.999805	-0.000796	-0.001079	-0.019641	
 2199	    0	13.122722	-4.345560	-0.310341	0.644142	-0.206766	-3.285371	0.130493	-0.045593	-0.003113	0.999859	0.003221	-0.001034	-0.016426	
 2200	    0	9.016973	-2.963338	-0.572896	1.297232	-0.196845	-2.536097	0.089790	-0.030736	-0.005837	0.999898	0.006486	-0.000984	-0.012680	
 2201	    0	5.097720	-1.712631	-1.075844	1.908927	-0.234801	-1.702165	0.050842	-0.017456	-0.010864	0.999917	0.009544	-0.001174	-0.008511	
 2202	    0	1.876641	-0.432362	-1.891465	2.205519	-0.156978	-0.836773	0.018764	-0.004193	-0.018947	0.999929	0.011027	-0.000785	-0.004184	
 2203	    0	-0.351864	0.985344	-2.684063	2.088394	0.135806	0.064088	-0.003540	0.010132	-0.026733	0.999945	0.010442	0.000679	0.000320	
 2204	    0	-1.746843	1.182261	-2.697698	1.720077	0.499162	1.003092	-0.017595	0.011966	-0.026831	0.999947	0.008600	0.002496	0.005015	
 2205	    0	-2.419506	1.175040	-3.001205	1.385725	0.695056	1.962331	-0.024414	0.011719	-0.029846	0.999922	0.006928	0.003475	0.009811	
 2206	    0	-2.960736	1.862541	-3.625867	0.909844	0.842321	2.957280	-0.030032	0.018348	-0.036049	0.999871	0.004549	0.004211	0.014786	
 2207	    0	-3.415253	2.284812	-3.859612	0.271816	1.009439	3.953828	-0.034790	0.022217	-0.038391	0.999790	0.001359	0.005047	0.019768	
 2208	    0	-3.211686	1.227425	-2.720369	-0.390667	1.183256	4.936179	-0.032566	0.011421	-0.027035	0.999676	-0.001953	0.005916	0.024678	
 2209	    0	-1.560282	-0.324709	-1.029959	-0.669002	1.217061	5.672498	-0.015564	-0.003723	-0.010193	0.999573	-0.003345	0.006084	0.028358	
 2210	    0	0.679527	-1.657858	0.443581	-0.580504	1.153568	6.222437	0.007332	-0.016343	0.004442	0.999495	-0.002902	0.005767	0.031107	
 2211	    0	2.163063	-2.669137	1.675395	-0.151853	0.999066	6.635004	0.022583	-0.025940	0.016663	0.999436	-0.000759	0.004994	0.033169	
 2212	    0	2.954971	-1.913746	1.204577	0.603230	0.740397	7.020702	0.030242	-0.018120	0.011879	0.999372	0.003016	0.003701	0.035096	
 2213	    0	3.543213	-0.447408	0.537905	0.959243	0.634344	7.460267	0.035583	-0.003174	0.005249	0.999288	0.004795	0.003171	0.037292	
 2214	    0	4.515773	-0.806993	-0.543879	1.092625	0.495087	7.834578	0.045413	-0.006264	-0.005589	0.999214	0.005462	0.002475	0.039163	
 2215	    0	5.666755	-1.381480	-1.845180	1.009650	0.358872	8.098565	0.057129	-0.011414	-0.018616	0.999166	0.005047	0.001794	0.040482	
 2216	    0	6.573973	-2.082073	-2.632070	0.799791	0.199757	8.280091	0.066497	-0.017972	-0.026463	0.999134	0.003998	0.000998	0.041389	
 2217	    0	7.837365	-2.107913	-3.083955	0.495484	-0.006105	8.369608	0.079163	-0.017700	-0.030884	0.999121	0.002477	-0.000031	0.041836	
 2218	    0	9.239114	-1.130438	-3.133177	0.135080	-0.211778	8.403964	0.092790	-0.007389	-0.031240	0.999116	0.000675	-0.001059	0.042007	
 2219	    0	10.259780	-0.163986	-2.633743	-0.143476	-0.419552	8.466586	0.102600	0.002686	-0.026123	0.999101	-0.000717	-0.002097	0.042320	
 2220	    0	11.202818	0.780977	-1.879244	-0.497780	-0.557880	8.548307	0.111611	0.012541	-0.018508	0.999080	-0.002488	-0.002789	0.042728	
 2221	    0	12.503616	0.782242	-0.910084	-0.700408	-0.661677	8.644540	0.124573	0.013184	-0.008728	0.999054	-0.003501	-0.003307	0.043209	
 2222	    0	14.086641	0.191106	-0.243303	-0.678090	-0.747539	8.722437	0.140613	0.008041	-0.001927	0.999036	-0.003389	-0.003736	0.043598	
 2223	    0	16.650808	0.422171	-0.731771	-0.304512	-0.889688	8.808727	0.166138	0.011536	-0.006592	0.999019	-0.001522	-0.004447	0.044029	
 2224	    0	19.626375	1.679757	-0.992441	0.097689	-0.987381	8.869253	0.195308	0.025479	-0.008947	0.999004	0.000488	-0.004935	0.044332	
 2225	    0	22.427943	3.358479	-1.691964	0.889312	-1.163872	8.837030	0.222595	0.043518	-0.015442	0.998997	0.004445	-0.005817	0.044170	
 2226	    0	24.861217	6.896676	-2.593166	1.858373	-1.334060	8.618921	0.245490	0.079820	-0.023579	0.999005	0.009289	-0.006668	0.043080	
 2227	    0	26.783698	11.042047	-3.407025	2.719209	-1.333847	8.148470	0.263245	0.121643	-0.030701	0.999055	0.013592	-0.006667	0.040730	
 2228	    0	27.819171	15.469832	-2.999994	3.182733	-1.095317	7.489401	0.272280	0.165404	-0.025922	0.999157	0.015909	-0.005475	0.037436	
 2229	    0	28.256822	20.275273	-2.995185	3.209093	-0.821876	6.674212	0.275696	0.212463	-0.025452	0.999306	0.016042	-0.004108	0.033363	
 2230	    0	25.030864	23.522703	-5.683528	2.608913	-0.586033	5.637129	0.243693	0.242867	-0.052979	0.999513	0.013042	-0.002930	0.028181	
 2231	    0	20.664152	27.771899	-9.616573	1.984026	-0.533347	4.370542	0.200745	0.283081	-0.092834	0.999708	0.009919	-0.002666	0.021851	
 2232	    0	16.143872	33.504648	-6.424619	1.334056	-0.592638	2.844169	0.156834	0.337715	-0.061530	0.999872	0.006670	-0.002963	0.014220	
 2233	    0	13.402403	34.405908	-1.412326	1.160636	-0.609596	1.079572	0.132202	0.344849	-0.011719	0.999964	0.005803	-0.003048	0.005398	
 2234	    0	14.002908	34.728325	-0.743641	1.311507	-0.479131	-0.836000	0.141493	0.346731	-0.004824	0.999967	0.006557	-0.002396	-0.004180	
 2235	    0	15.777944	41.613464	-1.047057	1.852502	-0.348489	-2.729160	0.163452	0.414001	-0.006348	0.999862	0.009262	-0.001742	-0.013645	
 2236	    0	19.421537	46.681154	-25.847426	2.912866	-1.393101	-4.235577	0.205856	0.466219	-0.250274	0.999645	0.014563	-0.006965	-0.021175	
 2237	    0	48.405398	36.961609	-20.727736	-1.574323	0.322229	-7.425950	0.496948	0.349670	-0.210876	0.999278	-0.007870	0.001611	-0.037121	
 2238	    0	63.697989	12.671045	-9.728141	-2.461603	-0.325110	-8.135578	0.641555	0.099470	-0.097577	0.999095	-0.012304	-0.001625	-0.040666	
 2239	    0	45.150060	3.832172	-5.206967	-2.293685	-1.296937	-11.094572	0.453003	0.012634	-0.049377	0.998375	-0.011462	-0.006481	-0.055443	
 2240	    0	9.170435	-4.061988	-1.394042	-0.433875	-2.377536	-8.588206	0.090004	-0.044538	-0.012770	0.999004	-0.002169	-0.011884	-0.042927	
 2241	    0	6.238541	44.259335	13.156876	-1.655874	-1.366062	-8.113190	0.079407	0.440674	0.128418	0.999119	-0.008277	-0.006828	-0.040554	
 2242	    0	-15.891953	15.435850	-1.211284	-1.335141	-1.223354	-5.513965	-0.154504	0.158569	-0.014116	0.999578	-0.006675	-0.006116	-0.027566	
 2243	    0	0.974983	7.752221	-3.243133	-0.343178	-0.571519	-5.644986	0.012024	0.077148	-0.032532	0.999596	-0.001716	-0.002857	-0.028221	
 2244	    0	21.348008	4.949711	-7.696682	0.150696	-0.361480	-4.998158	0.214767	0.044198	-0.076545	0.999685	0.000753	-0.001807	-0.024988	
 2245	    0	18.135565	13.499877	-6.704226	-0.521127	-0.404198	-4.192667	0.184265	0.130981	-0.067017	0.999774	-0.002605	-0.002021	-0.020962	
 2246	    0	11.792681	11.745502	-8.775338	-1.634512	-0.066189	-3.560294	0.120013	0.114609	-0.088658	0.999807	-0.008172	-0.000331	-0.017800	
 2247	    0	16.823974	7.734791	-6.872237	-2.316426	0.202382	-3.041262	0.169312	0.073975	-0.069763	0.999816	-0.011581	0.001012	-0.015205	
 2248	    0	21.454058	8.028512	-3.861969	-1.998423	0.141913	-2.699216	0.215567	0.076988	-0.039553	0.999858	-0.009992	0.000710	-0.013495	
 2249	    0	26.294673	7.522608	-3.390894	-2.339094	0.254071	-2.448390	0.263794	0.071594	-0.035095	0.999855	-0.011695	0.001270	-0.012241	
 2250	    0	28.063235	-1.444711	2.336254	-2.386200	0.180825	-2.233414	0.280471	-0.017302	0.023304	0.999866	-0.011930	0.000904	-0.011167	
 2251	    0	28.832371	-1.558441	3.582889	-2.197358	0.134474	-2.291967	0.288147	-0.018494	0.035828	0.999873	-0.010986	0.000672	-0.011459	
 2252	    0	28.215781	-1.687706	4.736200	-2.385432	0.144011	-2.121062	0.281996	-0.019303	0.047379	0.999872	-0.011927	0.000720	-0.010605	
 2253	    0	25.774270	-4.566413	2.565371	-2.676511	0.171860	-1.873863	0.257324	-0.047729	0.026062	0.999866	-0.013382	0.000859	-0.009369	
 2254	    0	22.047511	-7.925101	1.084080	-2.884042	0.206003	-1.584888	0.219851	-0.080830	0.011772	0.999864	-0.014420	0.001030	-0.007924	
 2255	    0	19.420922	-9.491206	-1.168340	-2.582642	0.243577	-1.362659	0.193542	-0.096375	-0.010681	0.999892	-0.012913	0.001218	-0.006813	
 2256	    0	18.971492	-11.991441	-2.103617	-1.352900	0.200656	-1.094832	0.189034	-0.121090	-0.020410	0.999961	-0.006764	0.001003	-0.005474	
 2257	    0	19.729407	-6.975723	-3.991150	-0.173188	0.253488	-1.148231	0.196838	-0.070923	-0.040100	0.999982	-0.000866	0.001267	-0.005741	
 2258	    0	16.769502	-8.066872	-8.058164	0.434688	0.313380	-1.284037	0.167047	-0.081567	-0.081020	0.999975	0.002173	0.001567	-0.006420	
 2259	    0	16.251301	-1.482776	-7.249727	1.449052	0.327310	-2.082882	0.162231	-0.015991	-0.072876	0.999918	0.007245	0.001637	-0.010414	
 2260	    0	15.260519	18.654106	-7.272488	2.501884	-0.036433	-3.663554	0.156012	0.184594	-0.070379	0.999754	0.012508	-0.000182	-0.018316	
 2261	    0	14.748508	27.225192	-15.060225	1.142449	0.065621	-5.259577	0.154541	0.269104	-0.149109	0.999638	0.005712	0.000328	-0.026295	
 2262	    0	16.370658	1.662651	-7.551600	-0.921344	0.336872	-4.875304	0.163914	0.012283	-0.075855	0.999690	-0.004606	0.001684	-0.024374	
 2263	    0	18.465140	-9.590913	-4.576481	-0.832446	0.329049	-4.701682	0.182251	-0.100403	-0.045654	0.999713	-0.004162	0.001645	-0.023506	
 2264	    0	16.143034	-4.348188	-1.752192	-0.428432	0.300818	-4.786382	0.160301	-0.047365	-0.017665	0.999710	-0.002142	0.001504	-0.023930	
 2265	    0	16.179682	-1.697984	-3.507461	-0.509696	0.314554	-4.939780	0.161255	-0.021057	-0.035278	0.999690	-0.002548	0.001573	-0.024696	
 2266	    0	19.692573	-2.819723	-4.892322	-1.210347	0.482040	-4.985026	0.196018	-0.033388	-0.049205	0.999668	-0.006051	0.002410	-0.024922	
 2267	    0	22.065349	-6.196057	-5.248286	-1.907387	0.524202	-4.985644	0.218872	-0.067932	-0.052429	0.999640	-0.009536	0.002621	-0.024925	
 2268	    0	22.233895	-9.300963	-5.064021	-2.440388	0.492923	-4.994277	0.219790	-0.099133	-0.049999	0.999610	-0.012200	0.002464	-0.024968	
 2269	    0	20.805885	-11.342029	-3.802822	-2.663605	0.505900	-5.129962	0.204956	-0.119202	-0.036987	0.999578	-0.013316	0.002529	-0.025646	
 2270	    0	19.844086	-12.696759	-2.520009	-2.356290	0.410138	-5.308138	0.194923	-0.132461	-0.024063	0.999576	-0.011780	0.002050	-0.026537	
 2271	    0	20.135364	-13.202599	-1.384304	-1.741076	0.218231	-5.462633	0.197632	-0.137573	-0.012878	0.999588	-0.008704	0.001091	-0.027309	
 2272	    0	20.344734	-11.610966	-1.107612	-1.104691	-0.082408	-5.516398	0.200146	-0.121719	-0.010331	0.999604	-0.005523	-0.000412	-0.027578	
 2273	    0	19.729181	-9.962809	-1.447877	-0.720305	-0.382853	-5.425180	0.194519	-0.104980	-0.013733	0.999623	-0.003601	-0.001914	-0.027122	
 2274	    0	18.456838	-9.736326	-1.846954	-0.532784	-0.622439	-5.189920	0.182014	-0.102157	-0.017632	0.999655	-0.002664	-0.003112	-0.025947	
 2275	    0	17.096847	-10.140311	-1.876073	-0.307496	-0.775034	-4.840574	0.168518	-0.105530	-0.017944	0.999698	-0.001537	-0.003875	-0.024200	
 2276	    0	15.841190	-9.917434	-1.405296	0.054936	-0.840639	-4.403674	0.156235	-0.102627	-0.013421	0.999748	0.000275	-0.004203	-0.022017	
 2277	    0	14.703401	-8.883763	-0.953219	0.705957	-0.788169	-3.850811	0.145325	-0.091614	-0.009277	0.999800	0.003530	-0.003941	-0.019253	
 2278	    0	12.147298	-6.286749	-2.400727	1.361725	-0.684201	-3.142326	0.120549	-0.064603	-0.024030	0.999847	0.006808	-0.003421	-0.015711	
 2279	    0	8.321033	-4.273030	-2.110066	1.481866	-0.436415	-2.278972	0.082764	-0.043518	-0.021240	0.999905	0.007409	-0.002182	-0.011395	
 2280	    0	4.517487	-4.163178	-1.122395	1.735912	-0.242620	-1.300838	0.044917	-0.041825	-0.011532	0.999940	0.008679	-0.001213	-0.006504	
 2281	    0	0.974067	-3.219917	-0.960367	2.174421	-0.089075	-0.251775	0.009705	-0.032104	-0.009949	0.999940	0.010872	-0.000445	-0.001259	
 2282	    0	-2.290522	-1.100290	-0.702978	2.233749	0.218778	0.831242	-0.022867	-0.011019	-0.007128	0.999928	0.011168	0.001094	0.004156	
 2283	    0	-3.834880	0.821657	-0.868346	1.874601	0.647184	1.885282	-0.038452	0.007935	-0.008484	0.999906	0.009373	0.003236	0.009426	
 2284	    0	-3.329100	1.292643	-1.425991	1.367637	1.036314	2.988391	-0.033553	0.012523	-0.014000	0.999851	0.006838	0.005181	0.014941	
 2285	    0	-3.266253	1.814060	-2.817389	0.827855	1.255326	4.107994	-0.033203	0.017578	-0.027893	0.999761	0.004139	0.006276	0.020538	
 2286	    0	-4.393632	1.782677	-4.149835	0.158329	1.429536	5.134428	-0.044670	0.016719	-0.041167	0.999644	0.000792	0.007147	0.025669	
 2287	    0	-4.838143	0.374288	-3.997839	-0.370849	1.527844	6.051859	-0.048767	0.002197	-0.039612	0.999511	-0.001854	0.007638	0.030254	
 2288	    0	-3.273883	-0.972244	-3.376253	-0.470828	1.451594	6.780654	-0.032626	-0.010909	-0.033501	0.999395	-0.002354	0.007257	0.033896	
 2289	    0	-0.469646	-1.472734	-2.856476	-0.436313	1.296537	7.364087	-0.004333	-0.014954	-0.028503	0.999298	-0.002181	0.006481	0.036812	
 2290	    0	2.148678	-1.822234	-2.484859	-0.445293	1.087475	7.865690	0.022047	-0.017418	-0.024928	0.999209	-0.002226	0.005436	0.039318	
 2291	    0	4.107643	-1.930985	-1.952525	-0.510555	0.840431	8.286401	0.041748	-0.017639	-0.019653	0.999129	-0.002552	0.004201	0.041420	
 2292	    0	5.487205	-2.134635	-1.453167	-0.538994	0.538040	8.615318	0.055685	-0.018998	-0.014627	0.999064	-0.002694	0.002689	0.043063	
 2293	    0	6.789833	-3.060491	-0.456901	-0.524882	0.243457	8.811762	0.069153	-0.027588	-0.004578	0.999025	-0.002624	0.001217	0.044044	
 2294	    0	8.042089	-4.128077	0.225152	-0.167711	-0.147105	8.867309	0.082143	-0.037662	0.002344	0.999016	-0.000838	-0.000735	0.044322	
 2295	    0	9.491165	-3.535853	-0.439927	0.501610	-0.561711	8.927088	0.096375	-0.031067	-0.004211	0.998997	0.002507	-0.002808	0.044621	
 2296	    0	11.018209	-2.497096	-0.593938	0.725428	-0.827506	9.095321	0.111188	-0.019908	-0.005559	0.998951	0.003626	-0.004136	0.045461	
 2297	    0	12.305067	-2.467624	-0.293936	0.962413	-1.066019	9.184520	0.124023	-0.018982	-0.002380	0.998919	0.004810	-0.005328	0.045906	
 2298	    0	14.006215	-1.272740	-0.983076	1.448037	-1.340040	9.345937	0.140512	-0.006100	-0.008950	0.998859	0.007237	-0.006698	0.046712	
 2299	    0	16.663145	1.724292	-1.425312	1.569992	-1.442339	9.542069	0.165649	0.025269	-0.012878	0.998805	0.007847	-0.007209	0.047691	
 2300	    0	20.519660	3.706982	-1.000312	1.354009	-1.378623	9.719820	0.203133	0.047038	-0.008302	0.998772	0.006767	-0.006890	0.048579	
 2301	    0	25.584827	6.442383	-0.798449	1.000627	-1.292762	9.817742	0.252319	0.076904	-0.005981	0.998761	0.005001	-0.006461	0.049068	
 2302	    0	29.857085	9.528333	-1.101163	0.660785	-1.093548	9.821710	0.293468	0.109815	-0.009050	0.998774	0.003303	-0.005466	0.049088	
 2303	    0	32.570243	14.062679	-1.453125	0.514613	-0.825823	9.637404	0.318481	0.156128	-0.012817	0.998827	0.002572	-0.004128	0.048168	
 2304	    0	32.596682	17.426824	-2.507272	0.479102	-0.520888	9.119733	0.317636	0.188940	-0.023797	0.998954	0.002395	-0.002604	0.045583	
 2305	    0	33.380653	19.052942	-4.366375	0.910636	-0.501393	8.182556	0.325745	0.204163	-0.041931	0.999149	0.004552	-0.002506	0.040901	
 2306	    0	32.204905	22.780147	-6.834678	1.419363	-0.725325	6.882382	0.314189	0.239177	-0.065527	0.999375	0.007095	-0.003626	0.034405	
 2307	    0	26.338926	27.926116	-5.536361	2.196805	-1.082569	5.198622	0.256287	0.286560	-0.050842	0.999587	0.010983	-0.005412	0.025990	
 2308	    0	21.607867	35.865881	-0.501997	2.472688	-1.224232	3.325340	0.210083	0.362200	0.000742	0.999766	0.012362	-0.006121	0.016625	
 2309	    0	17.828735	39.608050	3.719099	1.687856	-0.887322	1.604503	0.174927	0.397156	0.041321	0.999922	0.008439	-0.004436	0.008022	
 2310	    0	14.268296	37.277651	2.065874	0.689508	-0.245095	0.010300	0.142637	0.372709	0.022119	0.999992	0.003448	-0.001225	0.000051	
 2311	    0	12.153164	28.606118	-1.922975	0.641068	-0.106050	-1.567859	0.123779	0.285156	-0.018250	0.999964	0.003205	-0.000530	-0.007839	
 2312	    0	10.928062	27.044954	-1.665221	2.045187	-0.168429	-3.276648	0.113706	0.268762	-0.013803	0.999813	0.010225	-0.000842	-0.016382	
 2313	    0	14.682226	38.842127	-20.634066	2.851718	-0.879799	-5.159760	0.157715	0.387329	-0.200134	0.999556	0.014256	-0.004398	-0.025795	
 2314	    0	24.413391	38.124306	-41.104380	-1.632237	-1.217882	-6.429365	0.258654	0.369720	-0.412547	0.999431	-0.008160	-0.006088	-0.032141	
 2315	    0	46.413881	16.721885	-33.090995	-3.054939	-0.510365	-7.778914	0.470886	0.143921	-0.332031	0.999124	-0.015270	-0.002551	-0.038883	
 2316	    0	61.266121	-1.252467	5.370454	-3.681967	-0.213544	-10.589998	0.610831	-0.043907	0.054974	0.998428	-0.018400	-0.001067	-0.052922	
 2317	    0	16.994376	-1.029399	12.491354	-1.351513	-2.016014	-7.471862	0.168152	-0.015747	0.126709	0.999228	-0.006756	-0.010077	-0.037350	
 2318	    0	8.096541	33.533743	20.759230	-1.399758	-1.045669	-7.387409	0.092230	0.333513	0.205716	0.999279	-0.006997	-0.005227	-0.036928	
 2319	    0	-4.250236	11.085730	4.556961	-0.047119	-0.959921	-5.895347	-0.039429	0.112061	0.045349	0.999554	-0.000236	-0.004799	-0.029472	
 2320	    0	2.278660	11.730602	-4.482662	0.554734	-0.160430	-5.761952	0.026191	0.116708	-0.044482	0.999580	0.002773	-0.000802	-0.028806	
 2321	    0	17.299366	6.973881	-8.244091	0.168055	0.225090	-4.961143	0.174561	0.065491	-0.082581	0.999691	0.000840	0.001125	-0.024803	
 2322	    0	17.835982	9.600590	-6.652951	-0.435098	0.158894	-4.158323	0.180249	0.092126	-0.066875	0.999781	-0.002175	0.000794	-0.020790	
 2323	    0	14.895408	8.641023	-8.758298	-1.480955	0.229849	-3.506682	0.150330	0.083130	-0.088379	0.999818	-0.007404	0.001149	-0.017532	
 2324	    0	18.258719	9.848856	-8.205168	-2.265310	0.323316	-3.141219	0.183960	0.094666	-0.083435	0.999811	-0.011326	0.001616	-0.015705	
 2325	    0	25.327099	7.030403	-1.008061	-2.188038	0.369283	-2.832184	0.254211	0.066589	-0.011292	0.999838	-0.010940	0.001846	-0.014160	
 2326	    0	30.655059	4.110331	0.928860	-2.256321	0.466371	-2.699421	0.307089	0.037057	0.008140	0.999842	-0.011281	0.002332	-0.013496	
 2327	    0	31.857511	-1.919699	4.939410	-2.197945	0.504328	-2.579624	0.318420	-0.022766	0.048828	0.999853	-0.010989	0.002522	-0.012897	
 2328	    0	30.020436	-6.204308	4.703729	-1.985825	0.412768	-2.477179	0.299506	-0.065289	0.047056	0.999871	-0.009929	0.002064	-0.012385	
 2329	    0	27.525163	-4.378217	3.669873	-2.366551	0.447865	-2.165317	0.274841	-0.046326	0.036621	0.999868	-0.011832	0.002239	-0.010826	
 2330	    0	23.496124	-6.867022	1.320775	-2.922587	0.535992	-1.803870	0.234366	-0.070589	0.013601	0.999848	-0.014612	0.002680	-0.009019	
 2331	    0	20.446297	-11.540239	-0.940587	-2.678600	0.626399	-1.516023	0.203552	-0.117065	-0.008484	0.999876	-0.013392	0.003132	-0.007580	
 2332	    0	19.191329	-16.140757	-4.457568	-1.621280	0.595677	-1.412802	0.190634	-0.163115	-0.043827	0.999937	-0.008106	0.002978	-0.007064	
 2333	    0	19.300115	-14.365626	-5.210688	0.244334	0.469213	-1.612873	0.191711	-0.145142	-0.052734	0.999964	0.001222	0.002346	-0.008064	
 2334	    0	14.815641	-8.668634	-8.280137	1.013778	0.442324	-2.018782	0.147090	-0.087752	-0.083570	0.999933	0.005069	0.002212	-0.010094	
 2335	    0	13.394862	-5.279602	-7.471025	1.232954	0.506038	-2.616213	0.133057	-0.054077	-0.075378	0.999892	0.006165	0.002530	-0.013081	
 2336	    0	14.840950	8.906536	-4.801985	1.830041	0.412589	-3.699568	0.149930	0.086738	-0.047527	0.999784	0.009150	0.002063	-0.018497	
 2337	    0	15.114166	24.258208	-13.056565	1.251564	0.350995	-5.251190	0.157227	0.239319	-0.129333	0.999634	0.006257	0.001755	-0.026253	
 2338	    0	17.950941	4.513838	-10.034158	-1.150830	0.749480	-4.960035	0.180167	0.040094	-0.101256	0.999668	-0.005754	0.003747	-0.024797	
 2339	    0	19.730541	-9.295353	-5.216189	-1.790788	0.840266	-4.327038	0.195007	-0.097656	-0.052124	0.999717	-0.008953	0.004201	-0.021633	
 2340	    0	17.190762	-7.927404	-3.237770	-1.590501	0.837598	-4.463817	0.169942	-0.083340	-0.032440	0.999710	-0.007952	0.004188	-0.022317	
 2341	    0	16.148828	-4.946936	-4.035550	-1.658804	0.905131	-4.636104	0.160095	-0.053528	-0.040649	0.999686	-0.008293	0.004525	-0.023178	
 2342	    0	18.305995	-6.420635	-4.462945	-1.915957	0.990407	-4.732856	0.181244	-0.068939	-0.044885	0.999661	-0.009579	0.004951	-0.023662	
 2343	    0	20.371909	-9.720946	-4.970940	-2.102149	0.962372	-4.821589	0.201050	-0.102600	-0.049622	0.999642	-0.010509	0.004811	-0.024105	
 2344	    0	20.332596	-12.386698	-4.693686	-2.226337	0.824075	-4.851740	0.200042	-0.129265	-0.046347	0.999635	-0.011130	0.004120	-0.024256	
 2345	    0	19.339121	-13.984553	-3.357387	-2.241023	0.652582	-4.839144	0.189819	-0.144836	-0.032593	0.999639	-0.011204	0.003263	-0.024193	
 2346	    0	18.504655	-13.637662	-2.135506	-2.062848	0.409365	-4.867743	0.181609	-0.141038	-0.020290	0.999648	-0.010313	0.002047	-0.024336	
 2347	    0	17.797804	-12.897834	-1.384411	-1.826671	0.132193	-4.708600	0.174866	-0.133240	-0.012756	0.999681	-0.009132	0.000661	-0.023540	
 2348	    0	17.883046	-12.333153	-0.621062	-1.547191	-0.082405	-4.411718	0.176054	-0.127278	-0.005163	0.999726	-0.007735	-0.000412	-0.022057	
 2349	    0	18.064825	-12.039072	-0.172911	-1.245211	-0.259228	-4.051513	0.178162	-0.124023	-0.000732	0.999774	-0.006226	-0.001296	-0.020256	
 2350	    0	17.819701	-12.261489	-0.137418	-0.725597	-0.437571	-3.596320	0.175956	-0.125795	-0.000535	0.999829	-0.003628	-0.002188	-0.017981	
 2351	    0	17.241816	-11.446400	-0.080338	-0.028802	-0.562309	-3.038146	0.170654	-0.117065	-0.000305	0.999880	-0.000144	-0.002811	-0.015190	
 2352	    0	15.295739	-9.849437	-1.545005	0.714512	-0.611322	-2.348009	0.151834	-0.100226	-0.015341	0.999920	0.003572	-0.003057	-0.011740	
 2353	    0	11.781332	-7.326724	-2.314729	1.163502	-0.548372	-1.538112	0.117310	-0.074036	-0.023254	0.999949	0.005817	-0.002742	-0.007690	
 2354	    0	8.179579	-5.170863	-2.765738	1.496523	-0.463873	-0.603492	0.081704	-0.051747	-0.027855	0.999965	0.007483	-0.002319	-0.003017	
 2355	    0	4.913748	-2.927419	-3.369910	1.790836	-0.342565	0.413519	0.049255	-0.028870	-0.033875	0.999956	0.008954	-0.001713	0.002068	
 2356	    0	1.889136	-0.417644	-4.362454	1.733625	-0.106051	1.377325	0.018941	-0.003668	-0.043648	0.999938	0.008668	-0.000530	0.006886	
 2357	    0	-0.500993	1.516027	-5.058611	1.352160	0.242622	2.317117	-0.005249	0.015442	-0.050476	0.999908	0.006761	0.001213	0.011585	
 2358	    0	-1.601065	2.164403	-5.510261	0.888296	0.543049	3.262679	-0.016513	0.021622	-0.054962	0.999853	0.004441	0.002715	0.016313	
 2359	    0	-1.661535	2.426211	-6.188273	0.461041	0.696616	4.173594	-0.017334	0.024048	-0.061768	0.999773	0.002305	0.003483	0.020866	
 2360	    0	-1.057997	3.188369	-6.159249	-0.170345	0.823300	5.013624	-0.011627	0.031549	-0.061573	0.999677	-0.000852	0.004116	0.025065	
 2361	    0	-0.875386	3.165933	-5.498173	-0.717837	0.852325	5.737358	-0.009888	0.031189	-0.055054	0.999573	-0.003589	0.004261	0.028683	
 2362	    0	-0.449956	2.014801	-4.847523	-1.022326	0.738463	6.341895	-0.005309	0.019740	-0.048558	0.999477	-0.005111	0.003692	0.031704	
 2363	    0	0.448448	0.316408	-3.469786	-1.151318	0.604370	6.841898	0.004272	0.003113	-0.034729	0.999393	-0.005755	0.003021	0.034203	
 2364	    0	1.886958	-2.177302	-1.310849	-0.848954	0.372204	7.149337	0.019608	-0.021136	-0.013054	0.999350	-0.004244	0.001861	0.035739	
 2365	    0	3.620334	-4.049068	0.102811	-0.036629	-0.012019	7.353341	0.037659	-0.039124	0.001038	0.999324	-0.000183	-0.000060	0.036758	
 2366	    0	5.452673	-4.371703	0.698771	1.096421	-0.429831	7.562957	0.056113	-0.041653	0.006875	0.999268	0.005481	-0.002149	0.037806	
 2367	    0	7.081870	-4.209762	0.268002	2.226116	-0.752278	7.845210	0.072388	-0.039307	0.002502	0.999162	0.011127	-0.003760	0.039215	
 2368	    0	8.768856	-3.169394	-0.693157	3.069531	-0.925171	8.188406	0.088917	-0.027963	-0.006970	0.999033	0.015343	-0.004624	0.040929	
 2369	    0	10.176305	-1.745177	-2.031058	3.541303	-1.065253	8.486153	0.102478	-0.012756	-0.020020	0.998929	0.017700	-0.005324	0.042416	
 2370	    0	11.686608	-0.849967	-3.413925	3.565227	-1.102291	8.757655	0.117257	-0.002768	-0.033577	0.998867	0.017819	-0.005509	0.043772	
 2371	    0	12.892260	0.991648	-4.688739	3.470653	-1.150206	9.046710	0.128540	0.016541	-0.045898	0.998810	0.017346	-0.005749	0.045216	
 2372	    0	14.894274	2.808406	-3.777791	2.931987	-1.090479	9.206966	0.147625	0.035443	-0.036487	0.998817	0.014654	-0.005450	0.046017	
 2373	    0	17.218092	2.896032	-2.372347	2.962916	-1.162994	9.266554	0.170715	0.037231	-0.022217	0.998799	0.014809	-0.005813	0.046314	
 2374	    0	21.415101	5.319071	-3.657617	3.503555	-1.226750	9.332383	0.211555	0.063719	-0.034218	0.998739	0.017510	-0.006131	0.046642	
 2375	    0	27.362963	11.484839	-5.114027	3.256224	-0.852552	9.324649	0.268066	0.128235	-0.047974	0.998772	0.016274	-0.004261	0.046604	
 2376	    0	33.307158	18.253897	-6.893375	2.483565	-0.400126	9.296004	0.324222	0.198581	-0.065879	0.998840	0.012413	-0.002000	0.046462	
 2377	    0	37.559135	27.155299	-8.376911	0.834947	-0.103605	9.118023	0.362732	0.288635	-0.082397	0.998952	0.004173	-0.000518	0.045574	
 2378	    0	32.560292	29.963305	-6.520152	-1.439532	0.082232	8.414535	0.312606	0.312490	-0.067551	0.999088	-0.007195	0.000411	0.042060	
 2379	    0	25.207690	25.209678	-7.053343	-1.407943	-0.314975	7.240414	0.242859	0.260498	-0.071960	0.999318	-0.007038	-0.001575	0.036194	
 2380	    0	25.340063	33.186037	-7.415182	-0.665558	-0.745868	5.422707	0.244562	0.338325	-0.074347	0.999619	-0.003327	-0.003729	0.027110	
 2381	    0	20.661702	45.526958	1.627322	-0.978708	-0.669130	3.185426	0.199280	0.458557	0.014709	0.999855	-0.004893	-0.003345	0.015926	
 2382	    0	14.490214	45.576011	7.578930	-0.939757	-0.270273	0.745778	0.143100	0.456646	0.073839	0.999981	-0.004699	-0.001351	0.003729	
 2383	    0	14.534328	35.991188	2.470993	-0.473028	-0.005913	-1.553362	0.148132	0.358826	0.023865	0.999967	-0.002365	-0.000030	-0.007767	
 2384	    0	15.313841	28.746022	1.778497	0.164230	0.032808	-3.365104	0.157948	0.284815	0.017994	0.999858	0.000821	0.000164	-0.016825	
 2385	    0	17.799947	35.028008	-2.908903	2.335903	-0.276226	-5.558858	0.187683	0.345459	-0.024780	0.999544	0.011678	-0.001381	-0.027790	
 2386	    0	22.286379	19.834442	-28.422101	0.106831	-0.666549	-6.584607	0.230179	0.190997	-0.283359	0.999452	0.000534	-0.003332	-0.032917	
 2387	    0	37.331805	-1.185914	-36.264148	-1.149235	-1.188725	-7.002243	0.374695	-0.027039	-0.360291	0.999352	-0.005745	-0.005942	-0.035004	
 2388	    0	54.288075	10.124128	-16.183999	0.393083	-1.288586	-10.059287	0.548090	0.074067	-0.158155	0.998713	0.001965	-0.006440	-0.050275	
 2389	    0	29.934799	26.393093	10.984887	-1.702570	-1.186056	-9.289242	0.310547	0.250610	0.109497	0.998867	-0.008510	-0.005928	-0.046429	
 2390	    0	13.124248	20.113493	21.909308	-2.616945	-0.459592	-7.155439	0.137892	0.199127	0.216790	0.999271	-0.013082	-0.002297	-0.035769	
 2391	    0	-6.759597	8.135632	-0.397312	-0.074779	-0.813988	-5.938084	-0.065125	0.083313	-0.004272	0.999551	-0.000374	-0.004069	-0.029686	
 2392	    0	-1.780097	13.659971	-0.758452	0.488356	-0.211176	-6.050277	-0.013651	0.137073	-0.007266	0.999538	0.002441	-0.001056	-0.030247	
 2393	    0	11.969443	11.449278	-5.750348	0.032238	0.216700	-5.318316	0.122620	0.111267	-0.057617	0.999645	0.000161	0.001083	-0.026588	
 2394	    0	17.192998	8.333856	-2.060422	-0.415072	0.130092	-4.354061	0.173676	0.079527	-0.020885	0.999761	-0.002075	0.000650	-0.021769	
 2395	    0	15.530091	14.249987	-2.250597	-0.920736	0.129708	-3.806548	0.157959	0.139404	-0.023254	0.999807	-0.004603	0.000648	-0.019032	
 2396	    0	16.434958	8.239964	-2.181232	-1.714225	0.240339	-3.121160	0.165580	0.079630	-0.022701	0.999841	-0.008571	0.001202	-0.015605	
 2397	    0	22.268760	9.188845	-4.464017	-1.727943	0.160224	-2.736021	0.223877	0.088440	-0.045593	0.999868	-0.008639	0.000801	-0.013680	
 2398	    0	28.592877	8.577423	-2.113621	-1.733848	0.140768	-2.539353	0.286970	0.081946	-0.022059	0.999881	-0.008669	0.000704	-0.012696	
 2399	    0	30.885197	2.760453	0.077298	-2.203272	0.122838	-2.304938	0.309143	0.024048	0.000305	0.999872	-0.011016	0.000614	-0.011524	
 2400	    0	30.716260	-2.467712	2.358404	-2.394780	0.185021	-2.152536	0.306897	-0.027699	0.023620	0.999869	-0.011973	0.000925	-0.010762	
 2401	    0	30.174494	-5.028708	2.544055	-2.637600	0.204668	-1.929560	0.301270	-0.052856	0.025818	0.999866	-0.013187	0.001023	-0.009647	
 2402	    0	28.019806	-5.355804	1.133297	-3.110473	0.368709	-1.588140	0.279783	-0.055601	0.011671	0.999846	-0.015552	0.001843	-0.007940	
 2403	    0	23.145291	-12.235686	-0.978221	-3.268410	0.568419	-1.158965	0.230713	-0.123840	-0.008423	0.999846	-0.016341	0.002842	-0.005795	
 2404	    0	20.701654	-13.859838	-3.368387	-2.385211	0.605792	-1.077684	0.206164	-0.140104	-0.032644	0.999909	-0.011926	0.003029	-0.005388	
 2405	    0	18.376074	-17.285441	-6.004556	-0.721555	0.431827	-1.027687	0.182739	-0.174011	-0.059814	0.999977	-0.003608	0.002159	-0.005138	
 2406	    0	15.974204	-12.739039	-6.750027	0.754365	0.329403	-1.411835	0.158727	-0.128257	-0.068245	0.999966	0.003772	0.001647	-0.007059	
 2407	    0	11.804738	-10.097020	-8.035587	1.229119	0.233655	-1.751743	0.117065	-0.101501	-0.081116	0.999942	0.006145	0.001168	-0.008759	
 2408	    0	12.668179	-5.308791	-5.823255	1.515818	0.330363	-2.267337	0.125976	-0.054074	-0.058848	0.999906	0.007579	0.001652	-0.011336	
 2409	    0	14.171789	9.364260	-6.754056	1.862456	0.386263	-3.463207	0.143188	0.091797	-0.066956	0.999804	0.009312	0.001931	-0.017315	
 2410	    0	14.301720	17.243632	-15.467955	0.751760	0.519040	-4.760445	0.146675	0.169555	-0.154416	0.999706	0.003758	0.002595	-0.023800	
 2411	    0	16.303404	0.999811	-10.846849	-0.994014	0.544791	-4.640639	0.162903	0.005676	-0.108948	0.999714	-0.004970	0.002724	-0.023201	
 2412	    0	20.170819	-10.144930	-8.380215	-1.585732	0.382651	-4.522950	0.199176	-0.106635	-0.083353	0.999711	-0.007928	0.001913	-0.022613	
 2413	    0	20.169258	-9.969334	-4.372484	-2.005027	0.460101	-4.607117	0.199219	-0.104736	-0.043152	0.999681	-0.010024	0.002300	-0.023033	
 2414	    0	19.656478	-8.736326	-3.992065	-2.332202	0.487195	-4.781910	0.194298	-0.092488	-0.039337	0.999642	-0.011660	0.002436	-0.023907	
 2415	    0	20.352813	-10.561669	-3.797018	-2.579822	0.482429	-4.821620	0.200806	-0.110962	-0.037048	0.999623	-0.012897	0.002412	-0.024105	
 2416	    0	21.094643	-13.410741	-3.992212	-2.677686	0.372362	-4.819339	0.207553	-0.139658	-0.038465	0.999618	-0.013387	0.001862	-0.024094	
 2417	    0	20.621450	-14.780271	-4.055339	-2.736246	0.150509	-4.767446	0.202576	-0.153198	-0.038635	0.999621	-0.013680	0.000752	-0.023834	
 2418	    0	19.789351	-14.918040	-1.873051	-2.896487	0.112548	-4.703929	0.194299	-0.154030	-0.016633	0.999618	-0.014481	0.000563	-0.023517	
 2419	    0	18.461858	-12.988458	-1.094978	-2.681102	-0.015261	-4.668990	0.181519	-0.134277	-0.009155	0.999638	-0.013404	-0.000076	-0.023342	
 2420	    0	17.319050	-12.877121	-0.213616	-2.207985	-0.130858	-4.473006	0.170254	-0.132613	-0.000574	0.999688	-0.011039	-0.000654	-0.022363	
 2421	    0	16.065365	-11.448056	1.670838	-1.622914	-0.210399	-4.274360	0.158142	-0.117737	0.017822	0.999738	-0.008114	-0.001052	-0.021370	
 2422	    0	14.304461	-9.303965	2.560516	-0.877823	-0.315498	-3.995603	0.141109	-0.095757	0.026245	0.999789	-0.004389	-0.001577	-0.019977	
 2423	    0	12.595534	-8.683780	2.613428	-0.009728	-0.463892	-3.545569	0.124329	-0.089050	0.026428	0.999840	-0.000049	-0.002319	-0.017727	
 2424	    0	10.640777	-8.754705	2.209441	0.987858	-0.597789	-2.991232	0.105016	-0.089233	0.021972	0.999871	0.004939	-0.002989	-0.014956	
 2425	    0	8.784473	-7.871919	1.453243	1.991546	-0.682096	-2.372841	0.086853	-0.079895	0.014038	0.999874	0.009957	-0.003410	-0.011864	
 2426	    0	7.368527	-5.456673	-0.518114	2.851239	-0.636322	-1.667292	0.073245	-0.055099	-0.005731	0.999858	0.014256	-0.003181	-0.008336	
 2427	    0	5.091549	-2.022330	-2.526605	3.206784	-0.536181	-0.798835	0.050903	-0.020020	-0.025452	0.999860	0.016033	-0.002681	-0.003994	
 2428	    0	2.519989	1.251181	-4.048218	2.970616	-0.326741	0.251970	0.025249	0.013143	-0.040249	0.999887	0.014853	-0.001634	0.001260	
 2429	    0	0.090775	2.185919	-4.718860	2.277631	0.120548	1.322975	0.000732	0.022400	-0.046936	0.999912	0.011388	0.000603	0.006615	
 2430	    0	-1.341733	1.397610	-3.717723	1.547099	0.589962	2.199433	-0.013681	0.014113	-0.037028	0.999905	0.007735	0.002950	0.010997	
 2431	    0	-0.689475	1.194772	-3.165321	1.149229	0.819434	2.966442	-0.007202	0.012024	-0.031555	0.999865	0.005746	0.004097	0.014832	
 2432	    0	0.348552	2.137645	-4.229535	0.788167	0.931037	3.744367	0.002886	0.021601	-0.042225	0.999805	0.003941	0.004655	0.018721	
 2433	    0	-0.109389	3.541658	-4.238888	0.113879	1.153669	4.507090	-0.002136	0.035400	-0.042358	0.999729	0.000569	0.005768	0.022533	
 2434	    0	-0.881653	3.688811	-3.404992	-0.631219	1.275601	5.246809	-0.009995	0.036529	-0.034104	0.999630	-0.003156	0.006377	0.026231	
 2435	    0	-1.200620	2.282380	-2.493399	-0.940848	1.218791	5.857982	-0.012817	0.022339	-0.024963	0.999541	-0.004704	0.006093	0.029285	
 2436	    0	-0.264278	0.731855	-1.472859	-0.870476	1.070211	6.346864	-0.002951	0.007164	-0.014745	0.999473	-0.004352	0.005350	0.031729	
 2437	    0	1.844924	-0.261699	-0.682209	-0.547706	0.876024	6.727373	0.018494	-0.002014	-0.006897	0.999420	-0.002738	0.004379	0.033630	
 2438	    0	4.112560	-1.019543	-0.614808	-0.165592	0.615056	7.018970	0.041430	-0.008750	-0.006268	0.999379	-0.000828	0.003075	0.035088	
 2439	    0	5.842581	-1.660270	-0.916460	0.190967	0.334241	7.241119	0.058960	-0.014465	-0.009277	0.999342	0.000955	0.001671	0.036198	
 2440	    0	6.368493	-2.402306	-1.518296	0.633195	-0.014499	7.399352	0.064515	-0.021598	-0.015249	0.999310	0.003165	-0.000072	0.036988	
 2441	    0	6.751858	-3.243340	-2.634234	1.352455	-0.354092	7.585498	0.068726	-0.029663	-0.026428	0.999256	0.006761	-0.001770	0.037918	
 2442	    0	8.068647	-3.288098	-2.983934	2.005356	-0.578274	7.776453	0.081962	-0.029410	-0.029910	0.999189	0.010024	-0.002891	0.038872	
 2443	    0	9.950630	-2.256096	-3.301471	2.416355	-0.707449	7.939154	0.100403	-0.018188	-0.032898	0.999132	0.012078	-0.003536	0.039684	
 2444	    0	11.949509	0.491310	-3.288147	2.600911	-0.824805	8.224008	0.119281	0.010244	-0.032279	0.999062	0.013000	-0.004123	0.041107	
 2445	    0	13.916648	4.079903	-3.481901	2.185199	-0.833402	8.530155	0.137390	0.047058	-0.033752	0.999022	0.010922	-0.004166	0.042637	
 2446	    0	15.202218	5.879004	-2.219736	1.500624	-0.822147	8.723843	0.149350	0.065506	-0.021105	0.999012	0.007501	-0.004109	0.043605	
 2447	    0	16.803658	6.632322	-2.077427	1.291519	-0.942547	8.840864	0.164978	0.073792	-0.019531	0.998991	0.006455	-0.004711	0.044189	
 2448	    0	19.886455	9.656119	-2.919218	1.178183	-0.932625	8.842189	0.194466	0.105392	-0.027675	0.998994	0.005889	-0.004662	0.044196	
 2449	    0	23.095042	14.544549	-3.778837	0.735904	-0.805163	8.768263	0.224426	0.155518	-0.036316	0.999023	0.003678	-0.004025	0.043827	
 2450	    0	25.101543	17.616781	-4.362127	0.042738	-0.658620	8.588394	0.243288	0.186737	-0.042772	0.999072	0.000214	-0.003292	0.042929	
 2451	    0	28.429605	18.270372	-3.661917	-0.167130	-0.637040	8.133665	0.276672	0.194031	-0.035889	0.999167	-0.000835	-0.003184	0.040657	
 2452	    0	32.307870	20.295464	-3.050200	0.053227	-0.693291	7.414624	0.315365	0.214751	-0.029344	0.999307	0.000266	-0.003466	0.037065	
 2453	    0	29.152516	21.426663	-1.104209	0.447347	-0.673787	6.256378	0.284668	0.223267	-0.009583	0.999502	0.002236	-0.003368	0.031277	
 2454	    0	22.091880	22.990526	-0.455543	1.686471	-0.828070	4.761834	0.215373	0.235100	-0.001688	0.999672	0.008431	-0.004140	0.023807	
 2455	    0	18.349685	31.026206	-2.094882	2.375941	-0.842910	2.919187	0.179016	0.313110	-0.016479	0.999814	0.011879	-0.004214	0.014595	
 2456	    0	16.662792	37.138335	-0.253449	1.621660	-0.686469	1.310947	0.164189	0.372466	0.001049	0.999939	0.008108	-0.003432	0.006555	
 2457	    0	14.054021	36.893098	2.522899	0.840190	-0.370027	-0.238038	0.140930	0.368652	0.027039	0.999989	0.004201	-0.001850	-0.001190	
 2458	    0	14.190183	33.972810	2.969187	1.463545	-0.052072	-1.949740	0.145195	0.338094	0.032207	0.999926	0.007318	-0.000260	-0.009748	
 2459	    0	17.899548	37.249995	-16.608940	2.795107	-0.669925	-3.857031	0.186707	0.371216	-0.160278	0.999710	0.013974	-0.003349	-0.019283	
 2460	    0	31.567340	38.098163	-35.253957	-0.106640	-0.618090	-6.472774	0.328862	0.370292	-0.351736	0.999471	-0.000533	-0.003090	-0.032358	
 2461	    0	53.243203	1.434368	-8.976012	-4.018631	0.993640	-7.313401	0.531982	-0.006958	-0.092407	0.999117	-0.020087	0.004967	-0.036556	
 2462	    0	56.932654	12.428267	-2.039922	-2.344135	-0.398831	-10.578950	0.574865	0.093723	-0.020474	0.998530	-0.011715	-0.001993	-0.052869	
 2463	    0	16.198713	-36.526279	-0.841452	-0.674645	-2.045113	-8.294163	0.146729	-0.371582	-0.005615	0.999082	-0.003372	-0.010222	-0.041458	
 2464	    0	-1.836836	49.083699	11.012619	0.184308	-1.414362	-8.563251	0.001874	0.490944	0.110544	0.999058	0.000921	-0.007070	-0.042803	
 2465	    0	-8.786577	28.179434	4.346245	-1.874130	-0.969687	-6.360290	-0.079041	0.284790	0.040405	0.999438	-0.009369	-0.004848	-0.031796	
 2466	    0	-9.975489	7.718194	-3.884793	-0.489499	-0.367410	-5.960784	-0.097326	0.080011	-0.039222	0.999551	-0.002447	-0.001837	-0.029799	
 2467	    0	15.336523	4.895801	-3.921793	0.206018	0.018504	-5.366398	0.154602	0.044861	-0.039185	0.999639	0.001030	0.000093	-0.026829	
 2468	    0	23.615475	10.626574	-5.612515	0.238820	0.048260	-4.524618	0.238465	0.100955	-0.056060	0.999743	0.001194	0.000241	-0.022621	
 2469	    0	14.690938	15.785407	-5.063782	-0.727129	0.333617	-3.872933	0.149841	0.154785	-0.051453	0.999804	-0.003635	0.001668	-0.019363	
 2470	    0	15.212875	7.203679	-6.316556	-1.671316	0.659981	-3.270339	0.153063	0.069005	-0.064255	0.999825	-0.008356	0.003300	-0.016351	
 2471	    0	21.336029	7.538471	-6.094923	-1.704492	0.640329	-2.936700	0.214233	0.071716	-0.062256	0.999850	-0.008522	0.003201	-0.014683	
 2472	    0	24.057699	9.461742	-3.733531	-1.537196	0.549721	-2.695958	0.241715	0.091070	-0.038708	0.999875	-0.007686	0.002748	-0.013479	
 2473	    0	28.482979	3.790465	-1.454644	-1.885872	0.564598	-2.426246	0.285217	0.034302	-0.015686	0.999878	-0.009429	0.002823	-0.012131	
 2474	    0	30.813831	-2.408114	3.396922	-2.032358	0.471706	-2.216806	0.307928	-0.027153	0.033508	0.999884	-0.010161	0.002358	-0.011084	
 2475	    0	29.862810	-3.789354	5.083500	-1.862970	0.283823	-2.123332	0.298279	-0.040588	0.050781	0.999899	-0.009315	0.001419	-0.010616	
 2476	    0	28.213760	-1.112575	3.908488	-2.340594	0.324643	-1.810522	0.282087	-0.013225	0.038774	0.999888	-0.011703	0.001623	-0.009052	
 2477	    0	24.257455	-8.624327	1.466853	-3.038927	0.454161	-1.248226	0.242065	-0.087524	0.015442	0.999862	-0.015194	0.002271	-0.006241	
 2478	    0	21.513748	-11.578900	-1.734704	-2.793799	0.494213	-1.021615	0.214500	-0.117118	-0.016248	0.999886	-0.013968	0.002471	-0.005108	
 2479	    0	19.908563	-11.233364	-5.358106	-2.113201	0.476085	-0.942252	0.198425	-0.113831	-0.052856	0.999929	-0.010566	0.002380	-0.004711	
 2480	    0	20.007181	-12.871793	-6.288592	-0.479319	0.353243	-0.947385	0.199347	-0.129814	-0.062928	0.999984	-0.002397	0.001766	-0.004737	
 2481	    0	15.690460	-10.029353	-8.547212	0.183107	0.242807	-1.332866	0.156128	-0.101257	-0.085754	0.999976	0.000916	0.001214	-0.006664	
 2482	    0	13.328674	-7.217158	-9.160833	0.628482	0.173381	-1.952778	0.132496	-0.073179	-0.091952	0.999947	0.003142	0.000867	-0.009764	
 2483	    0	13.629328	7.953760	-6.197338	1.260628	0.064090	-3.161774	0.137512	0.077759	-0.061523	0.999855	0.006303	0.000320	-0.015808	
 2484	    0	14.736401	22.119126	-12.890120	0.996119	0.005150	-4.833712	0.152658	0.218183	-0.127813	0.999695	0.004980	0.000026	-0.024166	
 2485	    0	17.552436	8.072510	-9.308500	-1.403966	0.552621	-4.962715	0.177185	0.075684	-0.094116	0.999663	-0.007019	0.002763	-0.024811	
 2486	    0	20.374262	-8.783690	-5.105743	-1.866914	0.604883	-4.566090	0.201506	-0.092930	-0.050817	0.999691	-0.009334	0.003024	-0.022828	
 2487	    0	20.030680	-9.769467	-3.819939	-1.607490	0.641699	-4.691804	0.197815	-0.102661	-0.038025	0.999687	-0.008037	0.003208	-0.023457	
 2488	    0	18.663081	-7.501700	-3.815365	-1.405492	0.657537	-4.954513	0.184566	-0.079875	-0.038213	0.999662	-0.007027	0.003287	-0.024770	
 2489	    0	20.223631	-6.916281	-4.178694	-1.400740	0.651631	-5.227545	0.200195	-0.074707	-0.041931	0.999628	-0.007003	0.003258	-0.026134	
 2490	    0	21.843317	-8.568498	-4.379195	-1.602200	0.620163	-5.449464	0.215849	-0.091941	-0.043744	0.999592	-0.008010	0.003100	-0.027244	
 2491	    0	22.074801	-11.088640	-3.994474	-1.769314	0.571522	-5.500040	0.217468	-0.117249	-0.039551	0.999578	-0.008845	0.002857	-0.027496	
 2492	    0	21.398142	-12.651787	-3.271050	-1.824826	0.487778	-5.490311	0.210318	-0.132620	-0.032035	0.999578	-0.009123	0.002439	-0.027448	
 2493	    0	20.254112	-12.714010	-2.090036	-1.805367	0.361875	-5.484774	0.198914	-0.132812	-0.020081	0.999581	-0.009026	0.001809	-0.027420	
 2494	    0	19.352867	-11.928639	-0.742380	-1.716465	0.252949	-5.436681	0.190182	-0.124546	-0.006612	0.999593	-0.008581	0.001265	-0.027180	
 2495	    0	18.446967	-11.038560	-0.218865	-1.489255	0.067147	-5.300810	0.181458	-0.115234	-0.001404	0.999620	-0.007445	0.000336	-0.026501	
 2496	    0	17.102038	-10.912444	0.012926	-1.238578	-0.115598	-4.991319	0.168226	-0.113342	0.000920	0.999669	-0.006192	-0.000578	-0.024954	
 2497	    0	15.798150	-11.228073	0.630013	-0.953762	-0.220319	-4.604002	0.155334	-0.115845	0.007019	0.999722	-0.004768	-0.001101	-0.023018	
 2498	    0	14.185520	-10.983087	0.792155	-0.351169	-0.342394	-4.172441	0.139509	-0.112743	0.008358	0.999779	-0.001756	-0.001712	-0.020861	
 2499	    0	12.541263	-10.050040	0.680483	0.461796	-0.429559	-3.651637	0.123535	-0.102783	0.006836	0.999828	0.002309	-0.002148	-0.018257	
 2500	    0	10.796650	-8.102160	0.153186	1.337303	-0.442144	-3.003830	0.106730	-0.082640	0.001220	0.999862	0.006686	-0.002211	-0.015018	
 2501	    0	8.439817	-5.552821	-1.205499	2.002792	-0.393501	-2.215660	0.083801	-0.056335	-0.012451	0.999887	0.010014	-0.001967	-0.011078	
 2502	    0	5.628121	-3.906933	-0.582198	2.302619	-0.281533	-1.302185	0.056034	-0.039365	-0.006195	0.999911	0.011513	-0.001408	-0.006511	
 2503	    0	2.853608	-2.845372	-0.793556	2.759069	-0.186926	-0.283823	0.028503	-0.028381	-0.008301	0.999903	0.013795	-0.000935	-0.001419	
 2504	    0	0.055408	-1.411729	-1.979560	3.151461	0.009728	0.823248	0.000610	-0.013801	-0.020015	0.999866	0.015757	0.000049	0.004116	
 2505	    0	-2.208528	0.199192	-2.778197	3.004807	0.361653	1.909739	-0.022156	0.002197	-0.027710	0.999840	0.015023	0.001808	0.009548	
 2506	    0	-3.003782	1.348463	-3.359399	2.407416	0.888308	2.912513	-0.030382	0.013446	-0.033298	0.999811	0.012036	0.004441	0.014562	
 2507	    0	-3.132236	1.733979	-4.082873	1.797826	1.311602	3.876055	-0.031921	0.017090	-0.040466	0.999750	0.008988	0.006557	0.019379	
 2508	    0	-3.265920	2.092073	-5.276720	1.146065	1.563632	4.853419	-0.033569	0.020414	-0.052389	0.999659	0.005730	0.007817	0.024264	
 2509	    0	-3.494914	2.296546	-5.522079	0.329067	1.755787	5.726719	-0.036072	0.022034	-0.054871	0.999550	0.001645	0.008778	0.028629	
 2510	    0	-2.652068	1.890318	-4.587295	-0.307522	1.766153	6.445370	-0.027514	0.017957	-0.045661	0.999440	-0.001537	0.008829	0.032221	
 2511	    0	-0.997933	1.464695	-3.941090	-0.617159	1.660511	6.937364	-0.010803	0.014160	-0.039368	0.999359	-0.003085	0.008301	0.034679	
 2512	    0	1.087825	1.210838	-3.149379	-0.879880	1.496292	7.379391	0.010189	0.012354	-0.031626	0.999281	-0.004398	0.007480	0.036888	
 2513	    0	3.158987	0.428444	-2.265951	-1.157685	1.273110	7.770300	0.031250	0.005371	-0.022888	0.999207	-0.005787	0.006364	0.038841	
 2514	    0	4.929488	-1.015837	-0.859972	-1.250998	0.946500	8.039433	0.049610	-0.008223	-0.008779	0.999161	-0.006253	0.004731	0.040186	
 2515	    0	6.421108	-2.690100	0.243522	-1.001262	0.556532	8.189436	0.065247	-0.024231	0.002380	0.999145	-0.005005	0.002782	0.040936	
 2516	    0	7.617370	-4.037617	0.782652	-0.298965	0.083184	8.182141	0.077743	-0.037205	0.007852	0.999162	-0.001494	0.000416	0.040899	
 2517	    0	9.006435	-3.550961	0.150016	0.677877	-0.436528	8.300898	0.091431	-0.031738	0.001587	0.999130	0.003388	-0.002182	0.041492	
 2518	    0	10.425302	-2.463433	-0.352902	1.373525	-0.748103	8.476592	0.105184	-0.020165	-0.003285	0.999071	0.006866	-0.003739	0.042370	
 2519	    0	11.532908	-1.627185	-0.510323	1.855493	-1.010457	8.529355	0.115906	-0.011292	-0.004639	0.999035	0.009274	-0.005051	0.042633	
 2520	    0	12.344050	0.383559	-2.167037	2.502729	-1.349722	8.623606	0.123257	0.009418	-0.020743	0.998969	0.012509	-0.006746	0.043103	
 2521	    0	13.904647	3.548669	-3.125881	2.559047	-1.397249	8.774640	0.137512	0.041931	-0.029785	0.998931	0.012791	-0.006984	0.043858	
 2522	    0	16.786825	5.152799	-2.985488	2.194809	-1.294218	8.910698	0.165528	0.059255	-0.028156	0.998926	0.010970	-0.006469	0.044538	
 2523	    0	20.982509	5.737319	-2.702221	1.858428	-1.174397	9.039514	0.207092	0.067017	-0.025208	0.998918	0.009289	-0.005870	0.045181	
 2524	    0	25.599846	6.513154	-2.755929	1.727721	-0.978056	9.037953	0.252831	0.076835	-0.025687	0.998929	0.008636	-0.004889	0.045174	
 2525	    0	29.415122	9.943933	-3.635052	1.844851	-0.805179	8.869176	0.289490	0.112671	-0.034180	0.998966	0.009221	-0.004025	0.044331	
 2526	    0	31.047307	14.976804	-4.982161	1.539905	-0.545864	8.526046	0.303838	0.163191	-0.047764	0.999058	0.007697	-0.002728	0.042617	
 2527	    0	30.668653	17.773624	-6.373166	1.023565	-0.347230	7.913022	0.299438	0.190002	-0.062256	0.999203	0.005116	-0.001736	0.039555	
 2528	    0	29.574147	19.011401	-8.205312	0.705106	-0.434777	7.088640	0.288928	0.200723	-0.080725	0.999363	0.003525	-0.002173	0.035436	
 2529	    0	24.771985	20.205876	-8.313086	0.962976	-0.834592	5.906813	0.241943	0.209656	-0.081116	0.999543	0.004814	-0.004172	0.029530	
 2530	    0	22.101442	27.219434	-5.589155	1.403749	-1.174846	4.365566	0.215314	0.277313	-0.052681	0.999720	0.007018	-0.005874	0.021826	
 2531	    0	18.881765	35.063011	1.148339	0.979080	-1.026194	2.719223	0.183960	0.353088	0.014160	0.999882	0.004895	-0.005131	0.013596	
 2532	    0	15.952450	36.898026	3.590909	0.224305	-0.436595	1.062399	0.157482	0.369780	0.036669	0.999983	0.001122	-0.002183	0.005312	
 2533	    0	11.123490	32.574483	0.417230	-0.176239	0.071907	-0.769045	0.112488	0.325317	0.003845	0.999991	-0.000881	0.000360	-0.003845	
 2534	    0	10.147146	23.949867	-2.972128	0.447665	0.079920	-2.354297	0.104270	0.238348	-0.029228	0.999926	0.002238	0.000400	-0.011771	
 2535	    0	11.524552	18.704111	-6.235157	0.915006	-0.170145	-3.544052	0.118591	0.185242	-0.061401	0.999832	0.004575	-0.000851	-0.017719	
 2536	    0	13.229938	25.874345	-2.427685	1.951247	-0.247220	-4.817362	0.138511	0.255676	-0.021604	0.999661	0.009755	-0.001236	-0.024084	
 2537	    0	17.236981	31.390000	-28.365955	1.044045	-1.213252	-5.716782	0.182983	0.310242	-0.280945	0.999559	0.005219	-0.006065	-0.028580	
 2538	    0	31.639773	18.543448	-35.701230	-2.910140	-0.555929	-6.818625	0.323349	0.169276	-0.358662	0.999309	-0.014547	-0.002779	-0.034085	
 2539	    0	64.592543	27.174935	-18.004803	-1.217186	-0.481608	-9.724512	0.658508	0.238831	-0.179993	0.998796	-0.006083	-0.002407	-0.048603	
 2540	    0	44.043649	-8.904313	10.778543	-3.800056	-1.212049	-9.129294	0.435156	-0.106886	0.112352	0.998759	-0.018992	-0.006058	-0.045628	
 2541	    0	7.913807	14.398895	19.487699	-2.347431	-1.451309	-7.528414	0.083130	0.143188	0.193787	0.999196	-0.011734	-0.007255	-0.037632	
 2542	    0	0.035842	14.738844	9.645512	-0.650148	-1.500225	-6.559858	0.004477	0.147599	0.095999	0.999429	-0.003250	-0.007500	-0.032793	
 2543	    0	-8.560909	16.767706	-1.907218	-0.033384	-0.900410	-6.068609	-0.080383	0.170166	-0.019470	0.999529	-0.000167	-0.004501	-0.030338	
 2544	    0	2.108624	11.904178	-6.031375	-0.087368	-0.260768	-5.503015	0.024428	0.118374	-0.060335	0.999620	-0.000437	-0.001304	-0.027512	
 2545	    0	17.119896	10.146538	-4.824238	-0.309591	-0.064093	-4.676484	0.173523	0.097351	-0.048340	0.999725	-0.001548	-0.000320	-0.023380	
 2546	    0	16.516707	11.832796	-4.789898	-0.841388	-0.044063	-3.923679	0.167454	0.114855	-0.048350	0.999798	-0.004207	-0.000220	-0.019617	
 2547	    0	15.928281	10.157988	-7.576063	-1.863974	0.271814	-3.319751	0.160828	0.098206	-0.076904	0.999818	-0.009319	0.001359	-0.016598	
 2548	    0	19.963475	8.501454	-5.326675	-1.686558	0.311103	-2.905220	0.200753	0.081649	-0.054276	0.999857	-0.008432	0.001555	-0.014525	
 2549	    0	26.200826	8.422040	-4.070817	-1.512013	0.321210	-2.590278	0.263000	0.080505	-0.041748	0.999886	-0.007560	0.001606	-0.012951	
 2550	    0	30.284575	5.682005	-1.207120	-1.847337	0.396171	-2.353567	0.303460	0.053133	-0.013174	0.999886	-0.009236	0.001981	-0.011767	
 2551	    0	31.282668	-2.498078	2.435735	-1.738035	0.309955	-2.231673	0.312561	-0.028259	0.024109	0.999898	-0.008690	0.001550	-0.011158	
 2552	    0	31.130472	0.244843	3.952938	-1.832069	0.267038	-2.123521	0.311362	-0.000498	0.039109	0.999900	-0.009160	0.001335	-0.010617	
 2553	    0	28.849348	-3.021361	3.335149	-2.340778	0.189406	-1.625116	0.288269	-0.032166	0.033447	0.999898	-0.011703	0.000947	-0.008125	
 2554	    0	26.148770	-5.279673	1.251087	-3.110837	0.189408	-1.121954	0.261199	-0.054062	0.013098	0.999863	-0.015553	0.000947	-0.005610	
 2555	    0	21.279125	-11.052267	-0.493895	-3.285370	0.226794	-0.582913	0.212463	-0.111206	-0.003357	0.999860	-0.016426	0.001134	-0.002914	
 2556	    0	20.684573	-12.235760	-4.532204	-2.373945	0.342759	-0.420772	0.206511	-0.123322	-0.044216	0.999926	-0.011869	0.001714	-0.002104	
 2557	    0	22.493688	-13.571370	-6.853744	-0.835231	0.402071	-0.368501	0.224548	-0.136414	-0.068420	0.999987	-0.004176	0.002010	-0.001842	
 2558	    0	19.413330	-8.841781	-10.285801	-0.330927	0.430491	-0.932889	0.193496	-0.089492	-0.103127	0.999985	-0.001655	0.002152	-0.004664	
 2559	    0	15.600576	-6.334527	-9.564966	0.106050	0.338941	-1.961550	0.155212	-0.064819	-0.095947	0.999949	0.000530	0.001695	-0.009808	
 2560	    0	16.328666	13.880607	-6.895057	0.722928	0.185214	-3.686932	0.165748	0.136014	-0.068608	0.999823	0.003614	0.000926	-0.018434	
 2561	    0	14.925478	27.921836	-13.884084	0.002289	0.101674	-5.287023	0.156494	0.275146	-0.138916	0.999650	0.000011	0.000508	-0.026432	
 2562	    0	17.391367	6.400355	-9.323666	-2.278240	0.575521	-5.040437	0.175164	0.058528	-0.094427	0.999613	-0.011390	0.002877	-0.025199	
 2563	    0	20.538684	-9.620913	-5.022275	-2.539368	0.654109	-4.694169	0.202881	-0.101624	-0.049622	0.999639	-0.012695	0.003270	-0.023468	
 2564	    0	19.064086	-6.842802	-2.882648	-2.145249	0.754824	-4.717794	0.188843	-0.073206	-0.028773	0.999657	-0.010725	0.003774	-0.023586	
 2565	    0	17.938385	-5.071291	-3.406415	-1.865417	0.829413	-4.918489	0.177917	-0.055420	-0.034302	0.999645	-0.009326	0.004147	-0.024590	
 2566	    0	20.359486	-5.211848	-4.367553	-1.915034	0.920033	-5.140013	0.201957	-0.057744	-0.044072	0.999613	-0.009574	0.004600	-0.025697	
 2567	    0	22.256021	-7.591230	-5.282189	-2.001271	0.867580	-5.278733	0.220215	-0.082275	-0.052979	0.999592	-0.010005	0.004337	-0.026390	
 2568	    0	22.126316	-10.390884	-5.439530	-2.097231	0.783076	-5.328729	0.218168	-0.110318	-0.054119	0.999582	-0.010485	0.003915	-0.026640	
 2569	    0	21.353242	-12.031256	-4.563616	-2.127376	0.750266	-5.369564	0.210022	-0.126465	-0.045105	0.999576	-0.010635	0.003751	-0.026844	
 2570	    0	20.905400	-12.737003	-3.038188	-1.969425	0.773730	-5.423740	0.205377	-0.133269	-0.029888	0.999576	-0.009846	0.003868	-0.027115	
 2571	    0	20.986153	-12.478002	-1.667385	-1.702360	0.633520	-5.549647	0.206238	-0.130676	-0.016235	0.999574	-0.008511	0.003167	-0.027744	
 2572	    0	20.630578	-12.107161	-1.019281	-1.329416	0.413189	-5.603997	0.202785	-0.126853	-0.009784	0.999583	-0.006646	0.002066	-0.028016	
 2573	    0	20.065484	-12.091975	-0.748925	-0.965813	0.193811	-5.431293	0.197266	-0.126343	-0.007080	0.999619	-0.004828	0.000969	-0.027153	
 2574	    0	18.760281	-11.939557	-0.333924	-0.596113	-0.001335	-5.147938	0.184447	-0.124180	-0.002973	0.999664	-0.002980	-0.000007	-0.025737	
 2575	    0	16.501123	-11.720063	-0.247213	-0.175493	-0.208112	-4.846667	0.162109	-0.121155	-0.002197	0.999705	-0.000877	-0.001040	-0.024231	
 2576	    0	13.854028	-10.324401	0.083273	0.297190	-0.374444	-4.494287	0.136172	-0.106323	0.000933	0.999744	0.001486	-0.001872	-0.022470	
 2577	    0	11.295603	-8.228051	-0.177792	0.841774	-0.535622	-4.043108	0.111267	-0.084534	-0.001831	0.999783	0.004209	-0.002678	-0.020214	
 2578	    0	8.775987	-6.537585	-0.806476	1.328164	-0.603711	-3.426750	0.086648	-0.066813	-0.008243	0.999826	0.006640	-0.003018	-0.017133	
 2579	    0	6.275672	-5.298209	-1.165587	1.773150	-0.536179	-2.677273	0.062073	-0.053711	-0.011963	0.999867	0.008865	-0.002681	-0.013386	
 2580	    0	3.562012	-4.913367	-1.067758	2.192572	-0.407805	-1.780570	0.035204	-0.049328	-0.011146	0.999898	0.010962	-0.002039	-0.008903	
 2581	    0	0.870017	-4.205806	-1.146114	2.733896	-0.255593	-0.811795	0.008545	-0.041931	-0.012024	0.999897	0.013669	-0.001278	-0.004059	
 2582	    0	-1.826821	-2.274696	-2.005061	3.163470	0.005532	0.204667	-0.018246	-0.022445	-0.020407	0.999874	0.015817	0.000028	0.001023	
 2583	    0	-4.334148	0.021655	-3.071922	3.204507	0.340479	1.294010	-0.043396	0.000427	-0.030640	0.999848	0.016022	0.001702	0.006470	
 2584	    0	-5.474149	1.621002	-4.438599	2.775165	0.838138	2.389095	-0.055120	0.016165	-0.043931	0.999824	0.013875	0.004190	0.011945	
 2585	    0	-5.549718	2.231973	-4.943518	2.028808	1.371295	3.453322	-0.056213	0.021851	-0.048828	0.999776	0.010143	0.006856	0.017265	
 2586	    0	-5.633985	2.171468	-6.006839	1.344440	1.711070	4.507154	-0.057326	0.020831	-0.059439	0.999686	0.006721	0.008554	0.022533	
 2587	    0	-6.206792	1.862297	-6.854950	0.569235	1.999380	5.495480	-0.063232	0.017090	-0.067871	0.999568	0.002846	0.009995	0.027473	
 2588	    0	-5.584289	1.144781	-6.166698	-0.007631	2.096373	6.321740	-0.056809	0.009660	-0.061075	0.999445	-0.000038	0.010480	0.031603	
 2589	    0	-3.416069	0.334429	-5.338932	-0.279106	2.042831	6.909914	-0.034790	0.002075	-0.053040	0.999350	-0.001395	0.010212	0.034542	
 2590	    0	-1.319414	-0.195720	-4.052207	-0.413995	1.885300	7.390675	-0.013489	-0.002536	-0.040391	0.999270	-0.002069	0.009424	0.036944	
 2591	    0	0.806999	0.084381	-3.466433	-0.298961	1.607176	7.805413	0.007751	0.001099	-0.034729	0.999205	-0.001494	0.008034	0.039017	
 2592	    0	2.850090	0.661219	-3.112872	-0.337318	1.362435	8.248637	0.027985	0.007721	-0.031333	0.999125	-0.001686	0.006810	0.041231	
 2593	    0	4.493007	0.698970	-2.623052	-0.471454	1.073031	8.620119	0.044434	0.008850	-0.026489	0.999054	-0.002357	0.005363	0.043087	
 2594	    0	5.881202	-0.741112	-2.096313	-0.580407	0.750599	8.851685	0.058986	-0.004864	-0.021168	0.999009	-0.002901	0.003752	0.044244	
 2595	    0	7.084667	-3.060876	-1.353414	-0.396858	0.371864	8.843835	0.072083	-0.027466	-0.013611	0.999019	-0.001984	0.001859	0.044205	
 2596	    0	8.328071	-4.332162	-1.378464	0.364230	-0.145005	8.761925	0.085080	-0.039595	-0.013798	0.999038	0.001821	-0.000725	0.043796	
 2597	    0	10.037226	-3.193228	-1.641639	1.125703	-0.558463	8.759877	0.101685	-0.027405	-0.016296	0.999021	0.005627	-0.002791	0.043785	
 2598	    0	11.640762	-1.147440	-1.624075	1.709179	-0.907059	8.785349	0.116830	-0.006211	-0.015779	0.998988	0.008543	-0.004534	0.043912	
 2599	    0	13.416553	1.706534	-2.520211	2.103417	-1.210266	8.966236	0.133362	0.023315	-0.024170	0.998921	0.010513	-0.006049	0.044815	
 2600	    0	15.492921	4.142624	-2.670177	1.923898	-1.275730	9.182545	0.152967	0.048729	-0.025276	0.998879	0.009616	-0.006376	0.045896	
 2601	    0	18.069401	4.745111	-2.032799	1.734252	-1.328785	9.322103	0.178345	0.055969	-0.018677	0.998854	0.008668	-0.006641	0.046593	
 2602	    0	23.134771	6.464426	-2.722732	1.641332	-1.279178	9.374214	0.228140	0.075603	-0.025170	0.998847	0.008204	-0.006393	0.046853	
 2603	    0	27.587843	7.910978	-2.958198	1.544764	-1.097324	9.257900	0.271973	0.091980	-0.027405	0.998883	0.007721	-0.005485	0.046272	
 2604	    0	30.900265	10.485711	-4.334354	1.722191	-1.023278	9.063350	0.304033	0.119072	-0.040794	0.998922	0.008608	-0.005115	0.045300	
 2605	    0	31.720727	13.955200	-6.458970	1.644869	-0.980701	8.697332	0.311035	0.153687	-0.061829	0.999008	0.008222	-0.004902	0.043472	
 2606	    0	32.177866	14.868398	-7.146953	1.429964	-0.977412	8.075339	0.315756	0.162015	-0.068789	0.999147	0.007148	-0.004886	0.040365	
 2607	    0	31.565821	15.688551	-7.627329	1.543216	-1.166808	7.245808	0.310120	0.168762	-0.073181	0.999296	0.007714	-0.005833	0.036221	
 2608	    0	28.219531	18.199787	-6.097990	1.860186	-1.441448	6.086285	0.276895	0.191023	-0.057222	0.999467	0.009299	-0.007206	0.030426	
 2609	    0	24.176779	23.798651	-3.711228	2.280698	-1.683054	4.532400	0.236572	0.243774	-0.032349	0.999642	0.011402	-0.008414	0.022659	
 2610	    0	21.239500	33.855148	0.868440	1.835358	-1.476374	2.917651	0.207340	0.341493	0.013352	0.999824	0.009176	-0.007381	0.014587	
 2611	    0	15.215758	35.969876	3.305315	0.524145	-0.810060	1.310744	0.149658	0.360596	0.034607	0.999967	0.002621	-0.004050	0.006554	
 2612	    0	9.058907	29.390644	2.046848	0.136757	-0.296403	-0.597192	0.091435	0.293620	0.020804	0.999993	0.000684	-0.001482	-0.002986	
 2613	    0	9.173013	21.346892	-0.903748	0.908683	-0.160793	-2.236230	0.094116	0.212463	-0.007996	0.999927	0.004543	-0.000804	-0.011181	
 2614	    0	9.843285	19.544340	-1.004199	1.183193	-0.152024	-3.413768	0.101757	0.193780	-0.008816	0.999836	0.005916	-0.000760	-0.017068	
 2615	    0	9.726100	16.071557	-5.132751	0.598949	-0.260752	-4.009523	0.100525	0.158875	-0.050720	0.999793	0.002995	-0.001304	-0.020046	
 2616	    0	11.852886	23.663595	-3.012557	0.658101	-0.169962	-4.860030	0.124258	0.233760	-0.029249	0.999699	0.003290	-0.000850	-0.024298	
 2617	    0	12.970110	29.017292	-35.610299	-0.860508	-1.398636	-5.113072	0.139526	0.285156	-0.356384	0.999640	-0.004302	-0.006992	-0.025562	
 2618	    0	30.072273	18.324047	-44.181721	-4.328137	-0.544881	-6.588170	0.307537	0.163579	-0.444668	0.999219	-0.021635	-0.002724	-0.032932	
 2619	    0	73.844999	30.320538	-12.469000	-2.598100	-0.174797	-10.403086	0.752930	0.262634	-0.127625	0.998562	-0.012984	-0.000874	-0.051991	
 2620	    0	39.009962	-12.784411	9.828603	-3.736781	-1.999946	-7.848098	0.383710	-0.141071	0.104699	0.999005	-0.018678	-0.009996	-0.039227	
 2621	    0	10.207646	19.503313	29.350963	-2.904356	-1.222565	-7.491838	0.107605	0.195312	0.291321	0.999174	-0.014518	-0.006111	-0.037449	
 2622	    0	-1.865670	12.660494	8.950762	-0.431512	-1.708879	-5.975927	-0.015622	0.127295	0.089091	0.999515	-0.002157	-0.008543	-0.029875	
 2623	    0	-6.861395	13.004932	-3.666160	0.114649	-0.846226	-5.911371	-0.064575	0.132019	-0.036865	0.999554	0.000573	-0.004230	-0.029552	
 2624	    0	7.660087	10.888866	-7.271332	-0.165768	-0.206018	-5.295229	0.079521	0.106749	-0.072721	0.999648	-0.000829	-0.001030	-0.026473	
 2625	    0	19.016344	9.723280	-5.168758	-0.444069	-0.081451	-4.534542	0.192322	0.092773	-0.051819	0.999740	-0.002220	-0.000407	-0.022671	
 2626	    0	16.064253	11.697716	-7.906557	-1.069521	-0.090605	-3.832689	0.162875	0.113445	-0.079605	0.999802	-0.005347	-0.000453	-0.019162	
 2627	    0	15.588838	10.342088	-8.825201	-1.989673	0.201428	-3.184697	0.157410	0.100037	-0.089417	0.999823	-0.009948	0.001007	-0.015923	
 2628	    0	21.514226	7.830838	-3.086653	-1.732523	0.174721	-2.801068	0.216181	0.075013	-0.031714	0.999864	-0.008662	0.000874	-0.014005	
 2629	    0	28.883954	8.721104	-2.290621	-1.680628	0.254831	-2.471254	0.289856	0.083435	-0.023987	0.999887	-0.008403	0.001274	-0.012356	
 2630	    0	29.655935	1.091820	1.518722	-1.898448	0.199325	-2.099489	0.296668	0.007946	0.014807	0.999899	-0.009492	0.000997	-0.010497	
 2631	    0	30.086306	0.889184	2.801804	-1.627398	0.207716	-2.084412	0.300964	0.005981	0.027649	0.999911	-0.008137	0.001039	-0.010422	
 2632	    0	29.672549	-1.570091	1.869191	-2.006968	0.147061	-1.627205	0.296599	-0.017927	0.018646	0.999916	-0.010035	0.000735	-0.008136	
 2633	    0	27.660658	-2.066223	0.516932	-2.656457	0.194556	-1.129953	0.276489	-0.022156	0.005188	0.999895	-0.013282	0.000973	-0.005650	
 2634	    0	23.879993	-8.095262	-2.355808	-3.232339	0.280011	-0.568225	0.238536	-0.082001	-0.022573	0.999864	-0.016161	0.001400	-0.002841	
 2635	    0	21.877542	-12.952106	-3.776791	-2.577092	0.315866	-0.231177	0.218567	-0.130249	-0.036438	0.999914	-0.012885	0.001579	-0.001156	
 2636	    0	20.900018	-13.871863	-7.341263	-1.262102	0.302508	-0.213434	0.208741	-0.139402	-0.072850	0.999978	-0.006310	0.001513	-0.001067	
 2637	    0	19.819997	-7.557550	-7.956092	-0.370027	0.356484	-0.638582	0.197815	-0.076355	-0.079773	0.999991	-0.001850	0.001782	-0.003193	
 2638	    0	15.250709	-4.389385	-10.903470	-0.255969	0.357059	-1.449599	0.151988	-0.045136	-0.109249	0.999970	-0.001280	0.001785	-0.007248	
 2639	    0	16.603524	6.568134	-6.364382	0.264939	0.341045	-2.748960	0.166809	0.063477	-0.063843	0.999903	0.001325	0.001705	-0.013744	
 2640	    0	16.954694	27.704004	-11.739077	0.106249	0.055699	-4.592155	0.175816	0.273113	-0.117293	0.999736	0.000531	0.000278	-0.022959	
 2641	    0	18.242901	14.932645	-11.094822	-2.328773	0.493872	-4.835333	0.185669	0.143555	-0.113098	0.999637	-0.011642	0.002469	-0.024174	
 2642	    0	21.174861	-7.349290	-5.473123	-3.087409	0.651055	-4.290897	0.209918	-0.078850	-0.054227	0.999645	-0.015435	0.003255	-0.021452	
 2643	    0	18.388796	-6.108348	-2.795475	-2.503480	0.675467	-4.438507	0.182373	-0.065491	-0.027771	0.999669	-0.012516	0.003377	-0.022190	
 2644	    0	15.662181	-2.695688	-3.644692	-1.967465	0.614809	-4.827481	0.155792	-0.031084	-0.036634	0.999655	-0.009836	0.003074	-0.024135	
 2645	    0	17.590110	-2.094376	-4.945286	-1.959479	0.672426	-5.142107	0.175110	-0.025940	-0.049805	0.999616	-0.009796	0.003362	-0.025707	
 2646	    0	20.179723	-4.531754	-6.033345	-2.285893	0.677775	-5.250514	0.200298	-0.051280	-0.060451	0.999584	-0.011428	0.003388	-0.026249	
 2647	    0	20.556972	-7.712353	-6.021170	-2.592843	0.642679	-5.245203	0.203247	-0.083252	-0.059814	0.999566	-0.012962	0.003213	-0.026222	
 2648	    0	19.919319	-9.905781	-5.615610	-2.731540	0.665001	-5.279183	0.196288	-0.105025	-0.055405	0.999553	-0.013656	0.003325	-0.026392	
 2649	    0	19.911709	-10.037147	-4.636864	-2.782102	0.747223	-5.327658	0.196167	-0.106262	-0.045654	0.999541	-0.013908	0.003736	-0.026634	
 2650	    0	20.570222	-9.827235	-3.199577	-2.773529	0.821624	-5.411806	0.202806	-0.104225	-0.031415	0.999529	-0.013865	0.004107	-0.027055	
 2651	    0	21.088963	-10.364169	-1.867627	-2.693420	0.863024	-5.545939	0.207825	-0.109680	-0.018127	0.999516	-0.013465	0.004314	-0.027725	
 2652	    0	20.655293	-11.306612	-1.486570	-2.314740	0.743410	-5.635955	0.203201	-0.118992	-0.014271	0.999529	-0.011572	0.003716	-0.028175	
 2653	    0	20.369847	-12.396223	-0.693787	-1.761123	0.592319	-5.642767	0.200073	-0.129700	-0.006409	0.999558	-0.008804	0.002961	-0.028210	
 2654	    0	19.461502	-11.696709	-0.377698	-1.042697	0.385336	-5.580129	0.191244	-0.122354	-0.003519	0.999595	-0.005213	0.001926	-0.027897	
 2655	    0	17.757390	-10.326001	-0.357346	-0.371597	0.187134	-5.425932	0.174683	-0.108032	-0.003540	0.999629	-0.001858	0.000936	-0.027126	
 2656	    0	15.539894	-9.172013	-0.420282	0.229480	-0.011827	-5.199065	0.152946	-0.095713	-0.004302	0.999661	0.001147	-0.000059	-0.025992	
 2657	    0	13.187234	-8.273666	-0.740065	0.718189	-0.209829	-4.852782	0.129822	-0.085876	-0.007568	0.999699	0.003591	-0.001049	-0.024261	
 2658	    0	11.118411	-8.333344	-1.344658	1.182658	-0.357468	-4.369348	0.109354	-0.085655	-0.013752	0.999742	0.005913	-0.001787	-0.021845	
 2659	    0	8.946745	-8.784546	-1.873327	1.752601	-0.508727	-3.795904	0.087830	-0.089355	-0.019287	0.999778	0.008762	-0.002543	-0.018978	
 2660	    0	6.802718	-8.131832	-1.605849	2.335700	-0.588646	-3.134359	0.066792	-0.082178	-0.016817	0.999804	0.011678	-0.002943	-0.015671	
 2661	    0	4.700105	-6.301268	-2.192268	2.923951	-0.605810	-2.353810	0.046326	-0.063232	-0.022705	0.999819	0.014619	-0.003029	-0.011768	
 2662	    0	2.144843	-3.718019	-2.688857	3.248387	-0.515011	-1.376416	0.021264	-0.036884	-0.027434	0.999841	0.016241	-0.002575	-0.006882	
 2663	    0	-0.403238	-1.592291	-3.300944	3.230428	-0.166900	-0.303663	-0.004028	-0.015381	-0.033264	0.999867	0.016151	-0.000834	-0.001518	
 2664	    0	-2.766916	-0.398669	-4.165639	3.148982	0.273907	0.844421	-0.027711	-0.003448	-0.041676	0.999866	0.015744	0.001369	0.004222	
 2665	    0	-4.997155	0.665611	-5.276977	2.856598	0.726548	2.034868	-0.050232	0.006897	-0.052490	0.999839	0.014282	0.003633	0.010174	
 2666	    0	-6.065083	1.634482	-6.171262	2.115396	1.269619	3.250729	-0.061302	0.016001	-0.061154	0.999791	0.010576	0.006348	0.016253	
 2667	    0	-6.306866	1.364325	-6.295738	1.225593	1.763328	4.375891	-0.063904	0.012634	-0.062317	0.999702	0.006127	0.008816	0.021877	
 2668	    0	-6.549517	1.091224	-6.808995	0.441232	2.058320	5.432134	-0.066458	0.009265	-0.067388	0.999576	0.002206	0.010290	0.027157	
 2669	    0	-6.050565	1.207573	-6.706588	-0.373720	2.219810	6.341223	-0.061584	0.010010	-0.066406	0.999434	-0.001868	0.011097	0.031700	
 2670	    0	-4.173303	0.174177	-5.452890	-0.992241	2.242605	7.022951	-0.042361	-0.000008	-0.054059	0.999308	-0.004960	0.011210	0.035107	
 2671	    0	-2.198990	-1.289480	-3.637071	-1.084418	2.057609	7.534453	-0.021851	-0.013916	-0.036072	0.999223	-0.005421	0.010285	0.037663	
 2672	    0	-0.163951	-1.869117	-2.226778	-0.694657	1.800270	7.900508	-0.001098	-0.018819	-0.022191	0.999173	-0.003472	0.008999	0.039492	
 2673	    0	2.577925	-1.479857	-1.537955	-0.119053	1.477673	8.238336	0.026245	-0.013733	-0.015564	0.999124	-0.000595	0.007386	0.041180	
 2674	    0	5.499901	-0.225321	-1.821788	0.319201	1.159464	8.651432	0.054920	0.000154	-0.018538	0.999046	0.001595	0.005795	0.043243	
 2675	    0	7.589331	-0.606823	-1.537969	0.383126	0.948085	8.986675	0.075989	-0.002625	-0.015747	0.998977	0.001915	0.004739	0.044918	
 2676	    0	9.063806	-2.245767	-1.536020	0.561717	0.701955	9.047000	0.091474	-0.018288	-0.015736	0.998966	0.002808	0.003509	0.045219	
 2677	    0	10.133032	-3.082919	-2.172065	1.119614	0.309287	8.972939	0.102539	-0.026123	-0.022034	0.998977	0.005596	0.001546	0.044849	
 2678	    0	11.109286	-1.509900	-3.145040	1.614367	-0.036443	8.974323	0.111619	-0.009843	-0.031524	0.998960	0.008069	-0.000182	0.044856	
 2679	    0	11.409943	-0.200255	-3.198492	1.809565	-0.299750	8.995163	0.114075	0.003418	-0.031799	0.998946	0.009045	-0.001498	0.044960	
 2680	    0	12.355171	0.320785	-3.139283	1.964127	-0.567639	9.038535	0.123318	0.009091	-0.030972	0.998926	0.009817	-0.002837	0.045177	
 2681	    0	13.950099	1.621884	-3.283875	2.247711	-0.808833	9.250344	0.138672	0.023010	-0.032043	0.998858	0.011234	-0.004043	0.046234	
 2682	    0	16.028389	3.193170	-2.179874	2.312054	-0.917227	9.449522	0.158627	0.039698	-0.020639	0.998806	0.011556	-0.004584	0.047229	
 2683	    0	19.568968	5.558670	-1.750283	2.390699	-1.047946	9.577296	0.192810	0.065063	-0.015747	0.998768	0.011949	-0.005238	0.047867	
 2684	    0	24.409374	8.317193	-2.740814	2.138627	-0.908077	9.610275	0.239834	0.095046	-0.025338	0.998777	0.010689	-0.004539	0.048032	
 2685	    0	28.485737	10.002752	-3.753327	1.874518	-0.701227	9.520661	0.279785	0.113770	-0.035522	0.998816	0.009369	-0.003505	0.047585	
 2686	    0	32.208965	13.203048	-5.801334	1.763636	-0.672216	9.388314	0.315598	0.147449	-0.055690	0.998854	0.008815	-0.003360	0.046924	
 2687	    0	33.928010	16.420759	-7.161318	1.460965	-0.672383	8.992079	0.331665	0.179749	-0.069214	0.998957	0.007302	-0.003361	0.044945	
 2688	    0	34.726545	18.569224	-7.484808	1.579749	-0.820974	8.211644	0.339539	0.200317	-0.071899	0.999117	0.007896	-0.004104	0.041046	
 2689	    0	33.433748	22.016510	-6.923601	1.797324	-0.991285	7.119090	0.326538	0.232483	-0.065552	0.999313	0.008985	-0.004955	0.035587	
 2690	    0	26.898170	24.861973	-5.783993	2.004934	-1.161756	5.645293	0.262133	0.256637	-0.053758	0.999532	0.010023	-0.005808	0.028222	
 2691	    0	22.696391	32.045673	-4.486492	2.074616	-1.262586	3.918041	0.220886	0.325256	-0.040100	0.999734	0.010372	-0.006312	0.019588	
 2692	    0	18.120754	39.785780	0.362289	1.091417	-0.959997	2.240248	0.176709	0.399823	0.006657	0.999910	0.005457	-0.004800	0.011201	
 2693	    0	12.637316	37.897219	2.525046	0.129700	-0.414086	0.406647	0.125549	0.379211	0.025757	0.999995	0.000648	-0.002070	0.002033	
 2694	    0	10.517063	30.069895	0.472296	0.392346	-0.111200	-1.542680	0.107483	0.299866	0.005371	0.999968	0.001962	-0.000556	-0.007713	
 2695	    0	12.734689	22.410497	-3.974258	0.943799	-0.179871	-3.175500	0.130920	0.222229	-0.038574	0.999862	0.004719	-0.000899	-0.015877	
 2696	    0	11.413371	22.686649	-2.474841	1.437888	-0.197047	-4.398358	0.119111	0.224453	-0.023013	0.999731	0.007189	-0.000985	-0.021990	
 2697	    0	14.450938	30.171743	-19.958134	0.956288	-0.767624	-5.660276	0.153748	0.298401	-0.197571	0.999580	0.004781	-0.003838	-0.028297	
 2698	    0	19.932731	13.817249	-35.004028	-3.352355	-0.867419	-5.374679	0.204360	0.126842	-0.351351	0.999489	-0.016759	-0.004336	-0.026869	
 2699	    0	37.146938	9.821154	-45.096576	-1.996264	-1.716016	-6.545089	0.378174	0.081421	-0.448608	0.999377	-0.009979	-0.008578	-0.032719	
 2700	    0	65.040044	18.336795	-8.204150	-2.880863	-0.639110	-10.896555	0.659314	0.146412	-0.082231	0.998407	-0.014397	-0.003194	-0.054454	
 2701	    0	27.895893	13.679789	19.548620	-4.118947	-1.639146	-7.730371	0.282471	0.129944	0.195068	0.999007	-0.020588	-0.008193	-0.038639	
 2702	    0	9.656424	12.904993	27.329498	-2.934127	-1.096578	-6.429135	0.099237	0.129885	0.271933	0.999360	-0.014668	-0.005482	-0.032139	
 2703	    0	-3.692106	6.677148	4.992630	0.067340	-1.147634	-5.897646	-0.035217	0.067810	0.049744	0.999548	0.000337	-0.005737	-0.029484	
 2704	    0	1.524578	12.141374	-2.714842	0.741302	-0.598040	-5.802418	0.018841	0.121001	-0.026647	0.999567	0.003706	-0.002990	-0.029008	
 2705	    0	13.811425	12.648786	-8.421534	-0.067718	-0.128187	-5.040512	0.141296	0.122925	-0.084167	0.999681	-0.000339	-0.000641	-0.025200	
 2706	    0	15.600640	7.312530	-5.643953	-0.653503	-0.223557	-4.039093	0.157501	0.069770	-0.056496	0.999789	-0.003267	-0.001118	-0.020194	
 2707	    0	15.290781	11.986769	-9.234388	-1.486297	-0.101286	-3.528048	0.155029	0.116455	-0.093140	0.999816	-0.007431	-0.000506	-0.017639	
 2708	    0	17.980069	9.667318	-7.580193	-2.219516	0.080304	-2.934621	0.181154	0.093172	-0.076921	0.999830	-0.011097	0.000401	-0.014672	
 2709	    0	24.291008	7.578427	-4.442285	-2.160556	0.109868	-2.590302	0.243835	0.072144	-0.045349	0.999857	-0.010802	0.000549	-0.012951	
 2710	    0	30.097369	5.091351	0.038221	-2.227310	0.186738	-2.371321	0.301549	0.047338	-0.000440	0.999866	-0.011136	0.000934	-0.011856	
 2711	    0	30.778107	-0.479599	2.653614	-2.324012	0.240527	-2.159210	0.307739	-0.007812	0.026245	0.999873	-0.011620	0.001203	-0.010796	
 2712	    0	30.515496	-5.161843	3.678574	-2.181896	0.240335	-1.982570	0.304670	-0.054237	0.037002	0.999890	-0.010909	0.001202	-0.009912	
 2713	    0	28.147357	-3.618636	2.645421	-2.456756	0.216111	-1.669373	0.281189	-0.038208	0.026611	0.999888	-0.012283	0.001081	-0.008347	
 2714	    0	23.704818	-4.822254	0.316992	-2.997339	0.278104	-1.222474	0.236753	-0.049619	0.003577	0.999867	-0.014986	0.001390	-0.006112	
 2715	    0	21.483164	-8.879450	-1.765430	-2.864183	0.328267	-0.864443	0.214417	-0.089966	-0.016724	0.999887	-0.014320	0.001641	-0.004322	
 2716	    0	19.945983	-13.344465	-5.724850	-1.986541	0.318915	-0.658048	0.198928	-0.134662	-0.056232	0.999944	-0.009933	0.001595	-0.003290	
 2717	    0	18.662528	-13.640945	-7.342930	-0.378992	0.209046	-0.838474	0.185974	-0.137329	-0.073364	0.999989	-0.001895	0.001045	-0.004192	
 2718	    0	14.128073	-6.842630	-9.835828	0.178720	0.177576	-1.469054	0.140686	-0.069373	-0.098545	0.999971	0.000894	0.000888	-0.007345	
 2719	    0	13.336025	-2.580662	-9.121569	0.216679	0.187877	-2.091256	0.132996	-0.027100	-0.091370	0.999944	0.001083	0.000939	-0.010456	
 2720	    0	16.694559	12.655865	-4.681575	0.497651	0.157173	-3.320660	0.168981	0.123880	-0.046638	0.999858	0.002488	0.000786	-0.016603	
 2721	    0	16.124549	27.232813	-14.017269	-0.090608	-0.043492	-4.919930	0.167908	0.268188	-0.140259	0.999697	-0.000453	-0.000217	-0.024597	
 2722	    0	17.675415	5.429862	-10.830017	-2.214501	0.278315	-4.815095	0.177822	0.048820	-0.109108	0.999647	-0.011071	0.001391	-0.024073	
 2723	    0	19.560688	-8.510877	-6.212132	-2.315776	0.314556	-4.581193	0.193481	-0.090271	-0.061401	0.999669	-0.011578	0.001573	-0.022903	
 2724	    0	17.645585	-6.648982	-2.950466	-1.531574	0.276214	-4.821530	0.174741	-0.070941	-0.029215	0.999679	-0.007657	0.001381	-0.024105	
 2725	    0	17.376279	-1.595622	-3.504201	-1.222375	0.266489	-5.213027	0.173218	-0.020691	-0.035156	0.999640	-0.006111	0.001332	-0.026062	
 2726	    0	19.940137	-0.790050	-4.596867	-1.717031	0.408799	-5.348149	0.198994	-0.013622	-0.046275	0.999603	-0.008584	0.002044	-0.026737	
 2727	    0	22.224975	-3.920900	-5.276149	-2.492690	0.576102	-5.282588	0.220947	-0.045715	-0.052856	0.999569	-0.012462	0.002880	-0.026409	
 2728	    0	22.149705	-7.918733	-5.318013	-3.026852	0.642875	-5.201943	0.219154	-0.085708	-0.052623	0.999541	-0.015132	0.003214	-0.026006	
 2729	    0	21.316097	-10.598335	-4.706449	-3.233654	0.755429	-5.160569	0.210144	-0.112183	-0.046082	0.999529	-0.016166	0.003777	-0.025799	
 2730	    0	20.806541	-11.522183	-3.705885	-3.082957	0.849859	-5.293164	0.204755	-0.121232	-0.036096	0.999521	-0.015412	0.004249	-0.026462	
 2731	    0	20.333502	-11.565011	-2.676110	-2.790517	0.842611	-5.474968	0.199951	-0.121521	-0.025940	0.999518	-0.013950	0.004212	-0.027370	
 2732	    0	20.341810	-11.438901	-1.438443	-2.403076	0.731777	-5.702369	0.199993	-0.120292	-0.013699	0.999515	-0.012013	0.003658	-0.028507	
 2733	    0	20.263650	-11.077940	-0.815434	-1.893904	0.559510	-5.710708	0.199341	-0.116577	-0.007629	0.999543	-0.009468	0.002797	-0.028549	
 2734	    0	19.920415	-10.921229	0.014301	-1.402094	0.369314	-5.560305	0.196067	-0.114690	0.000570	0.999587	-0.007010	0.001846	-0.027798	
 2735	    0	18.673533	-10.756857	0.408471	-0.853071	0.176451	-5.344281	0.183777	-0.112488	0.004395	0.999633	-0.004265	0.000882	-0.026718	
 2736	    0	16.678846	-10.315870	0.505299	-0.218033	-0.027087	-5.075810	0.164099	-0.107341	0.005191	0.999677	-0.001090	-0.000135	-0.025376	
 2737	    0	14.515329	-9.370755	0.257821	0.517322	-0.240158	-4.723804	0.142883	-0.097107	0.002502	0.999717	0.002586	-0.001201	-0.023617	
 2738	    0	12.442136	-8.424269	-0.309974	1.320945	-0.389321	-4.174378	0.122634	-0.086793	-0.003428	0.999758	0.006604	-0.001946	-0.020870	
 2739	    0	9.858763	-7.436388	-1.409738	2.186743	-0.434716	-3.525036	0.097290	-0.075928	-0.014709	0.999782	0.010933	-0.002173	-0.017624	
 2740	    0	6.698156	-6.190938	-1.877377	2.846140	-0.407055	-2.712426	0.066175	-0.062536	-0.019526	0.999804	0.014230	-0.002035	-0.013561	
 2741	    0	3.468382	-4.638619	-1.406214	3.340541	-0.389886	-1.767837	0.034302	-0.046448	-0.014771	0.999819	0.016702	-0.001949	-0.008839	
 2742	    0	0.419454	-2.504411	-2.017273	3.694372	-0.278108	-0.731702	0.004132	-0.024681	-0.020625	0.999822	0.018471	-0.001390	-0.003658	
 2743	    0	-2.631269	-0.678941	-2.717110	3.600699	0.040438	0.370809	-0.026306	-0.006348	-0.027283	0.999836	0.018003	0.000202	0.001854	
 2744	    0	-4.334173	0.618635	-3.989855	3.144998	0.436233	1.491432	-0.043476	0.006488	-0.039703	0.999846	0.015724	0.002181	0.007457	
 2745	    0	-4.983565	1.310821	-4.769121	2.301150	0.953917	2.608631	-0.050232	0.013000	-0.047302	0.999837	0.011505	0.004769	0.013042	
 2746	    0	-5.527451	1.325111	-5.462426	1.467430	1.294993	3.695948	-0.055863	0.012621	-0.054170	0.999781	0.007337	0.006474	0.018478	
 2747	    0	-6.247114	1.306970	-6.174267	0.651046	1.539010	4.730721	-0.063232	0.011780	-0.061218	0.999685	0.003255	0.007694	0.023651	
 2748	    0	-6.077446	1.180572	-5.555401	-0.149367	1.732888	5.650390	-0.061553	0.010033	-0.055031	0.999562	-0.000747	0.008663	0.028248	
 2749	    0	-4.422172	0.352275	-4.232147	-0.695739	1.791714	6.392330	-0.044678	0.001953	-0.041931	0.999443	-0.003478	0.008957	0.031956	
 2750	    0	-2.166621	-1.123277	-2.866484	-0.894551	1.714890	6.970781	-0.021499	-0.012112	-0.028427	0.999346	-0.004472	0.008573	0.034846	
 2751	    0	0.013308	-2.344739	-1.973685	-0.751487	1.534643	7.429778	0.000854	-0.023499	-0.019653	0.999273	-0.003757	0.007671	0.037140	
 2752	    0	1.921524	-2.397039	-1.484254	-0.334828	1.251168	7.833440	0.020041	-0.023221	-0.014927	0.999211	-0.001674	0.006254	0.039157	
 2753	    0	3.526259	-2.063622	-1.264798	-0.016789	0.956428	8.232184	0.036011	-0.019165	-0.012817	0.999141	-0.000084	0.004781	0.041149	
 2754	    0	5.127871	-2.417085	-1.229163	0.202813	0.706127	8.553461	0.052205	-0.021938	-0.012498	0.999079	0.001014	0.003530	0.042754	
 2755	    0	6.635109	-3.465993	-1.497353	0.501603	0.422804	8.751435	0.067749	-0.031677	-0.015198	0.999037	0.002507	0.002113	0.043743	
 2756	    0	8.083236	-4.063399	-1.989776	0.841798	0.123828	8.829532	0.082505	-0.036931	-0.020109	0.999016	0.004208	0.000619	0.044133	
 2757	    0	9.544413	-3.585968	-2.269621	1.155669	-0.122875	8.905733	0.096924	-0.031433	-0.022827	0.998991	0.005776	-0.000614	0.044514	
 2758	    0	10.694745	-2.297484	-2.642527	1.384066	-0.390759	8.967239	0.107880	-0.017968	-0.026351	0.998969	0.006918	-0.001953	0.044821	
 2759	    0	11.900922	-1.295792	-2.731668	1.536343	-0.584429	9.089840	0.119507	-0.007324	-0.027039	0.998933	0.007679	-0.002921	0.045433	
 2760	    0	13.866278	0.033487	-2.557216	1.724133	-0.762274	9.346115	0.138535	0.007030	-0.025002	0.998863	0.008617	-0.003810	0.046713	
 2761	    0	16.477613	2.224355	-1.439894	1.654900	-0.831934	9.580216	0.163513	0.030212	-0.013489	0.998810	0.008271	-0.004158	0.047882	
 2762	    0	19.836734	3.802460	-0.636876	1.562186	-0.916856	9.745200	0.196226	0.047667	-0.005118	0.998772	0.007808	-0.004582	0.048706	
 2763	    0	24.549368	6.559327	-1.499946	1.585474	-0.912855	9.813950	0.241943	0.077637	-0.013306	0.998755	0.007924	-0.004562	0.049049	
 2764	    0	28.697746	9.182992	-3.095976	1.534135	-0.689025	9.759313	0.282140	0.105908	-0.029205	0.998774	0.007668	-0.003444	0.048777	
 2765	    0	32.352527	12.572760	-4.421965	1.547273	-0.506026	9.541994	0.317139	0.141296	-0.042358	0.998829	0.007733	-0.002529	0.047691	
 2766	    0	34.573500	16.405939	-5.659208	1.519170	-0.446096	9.091742	0.337916	0.179962	-0.054505	0.998935	0.007593	-0.002230	0.045443	
 2767	    0	35.384397	20.396594	-6.327252	1.643098	-0.521052	8.273489	0.345154	0.218872	-0.060608	0.999106	0.008213	-0.002604	0.041355	
 2768	    0	32.756069	23.582726	-6.379827	1.765267	-0.656657	7.104947	0.319100	0.247809	-0.060589	0.999324	0.008824	-0.003283	0.035517	
 2769	    0	26.784949	26.269401	-6.447812	2.182340	-0.950577	5.567257	0.260681	0.270691	-0.060303	0.999541	0.010910	-0.004752	0.027832	
 2770	    0	22.821119	34.124365	-4.548433	2.030153	-1.083270	3.724777	0.222028	0.345847	-0.040775	0.999760	0.010150	-0.005416	0.018622	
 2771	    0	18.131445	40.289087	1.642531	1.072907	-0.777453	1.888317	0.177429	0.404480	0.019287	0.999933	0.005364	-0.003887	0.009441	
 2772	    0	12.758603	38.339250	3.762958	0.463868	-0.247002	-0.111961	0.127753	0.383232	0.038676	0.999996	0.002319	-0.001235	-0.000560	
 2773	    0	11.475319	30.901735	1.454251	0.717941	0.040627	-2.092786	0.117981	0.307739	0.015625	0.999938	0.003590	0.000203	-0.010464	
 2774	    0	13.397383	22.086762	-4.158299	1.147719	-0.091749	-3.583166	0.137923	0.218654	-0.040261	0.999823	0.005738	-0.000459	-0.017915	
 2775	    0	13.105146	25.449920	-1.652493	2.415778	-0.162336	-5.013923	0.137390	0.251282	-0.013367	0.999612	0.012077	-0.000812	-0.025066	
 2776	    0	15.819467	27.152318	-28.311163	1.854646	-1.088713	-6.079583	0.167930	0.269121	-0.279712	0.999479	0.009272	-0.005443	-0.030393	
 2777	    0	24.725776	16.511783	-43.336893	-2.288321	-1.384248	-6.380209	0.255249	0.152100	-0.433411	0.999401	-0.011439	-0.006920	-0.031895	
 2778	    0	53.104928	22.339228	-38.558346	-1.041416	-1.453556	-9.248719	0.543341	0.196451	-0.382733	0.998891	-0.005205	-0.007265	-0.046227	
 2779	    0	51.186336	1.709002	10.145630	-4.077384	-0.793837	-9.882508	0.511536	-0.006104	0.103455	0.998564	-0.020377	-0.003967	-0.049389	
 2780	    0	14.261492	20.203689	21.849510	-3.092638	-1.249456	-7.276188	0.148562	0.200060	0.216307	0.999199	-0.015459	-0.006246	-0.036371	
 2781	    0	0.308353	13.697460	14.054966	-1.267460	-1.152046	-6.188502	0.006531	0.137695	0.139709	0.999484	-0.006336	-0.005759	-0.030937	
 2782	    0	-6.887523	9.487905	1.181089	0.260010	-0.568665	-5.930062	-0.066056	0.096850	0.011745	0.999556	0.001300	-0.002843	-0.029646	
 2783	    0	4.583594	13.608273	-6.206334	0.432642	-0.012781	-5.499965	0.049561	0.134888	-0.061768	0.999619	0.002163	-0.000064	-0.027496	
 2784	    0	16.217036	10.331753	-4.400930	-0.090035	0.098237	-4.547130	0.164441	0.099576	-0.044135	0.999741	-0.000450	0.000491	-0.022734	
 2785	    0	17.283598	12.142511	-4.178471	-0.452451	0.068860	-3.841640	0.175110	0.117981	-0.042114	0.999812	-0.002262	0.000344	-0.019207	
 2786	    0	18.265311	9.296242	-7.257837	-1.446605	0.178918	-3.133358	0.184009	0.089558	-0.073399	0.999850	-0.007233	0.000895	-0.015666	
 2787	    0	21.140110	9.654585	-4.489823	-1.494658	0.162703	-2.716937	0.212646	0.093323	-0.045776	0.999879	-0.007473	0.000813	-0.013584	
 2788	    0	27.571383	7.231202	-2.430737	-1.392981	0.110248	-2.393608	0.276538	0.068833	-0.024947	0.999904	-0.006965	0.000551	-0.011968	
 2789	    0	29.497042	6.621277	-0.012207	-2.009464	0.225075	-2.136307	0.295654	0.063049	-0.001099	0.999891	-0.010047	0.001125	-0.010681	
 2790	    0	29.560758	-2.787303	2.153807	-1.946701	0.196082	-1.925720	0.295343	-0.030508	0.021537	0.999906	-0.009733	0.000980	-0.009628	
 2791	    0	29.871290	-1.525851	2.059236	-2.069154	0.132183	-1.696065	0.298584	-0.017578	0.020569	0.999909	-0.010345	0.000661	-0.008480	
 2792	    0	27.249302	-2.825053	0.747833	-2.766905	0.140958	-1.207016	0.272322	-0.029789	0.007691	0.999886	-0.013834	0.000705	-0.006035	
 2793	    0	23.101234	-8.222007	-1.957741	-3.305783	0.196085	-0.677522	0.230713	-0.083313	-0.018433	0.999857	-0.016528	0.000980	-0.003387	
 2794	    0	21.141410	-12.291513	-3.246484	-2.696502	0.189024	-0.348483	0.211169	-0.123708	-0.031000	0.999907	-0.013482	0.000945	-0.001742	
 2795	    0	20.366697	-13.555209	-6.666007	-1.649304	0.074006	-0.312046	0.203430	-0.136414	-0.065613	0.999964	-0.008246	0.000370	-0.001560	
 2796	    0	18.231875	-8.521857	-7.843442	-0.819019	0.136376	-0.688938	0.181970	-0.086166	-0.078207	0.999985	-0.004095	0.000682	-0.003445	
 2797	    0	13.932845	-7.027710	-11.504751	-0.494962	0.170900	-1.398481	0.138733	-0.071533	-0.114990	0.999971	-0.002475	0.000854	-0.006992	
 2798	    0	15.658049	0.438969	-8.458178	0.042153	0.136760	-2.454247	0.156561	0.002486	-0.084688	0.999924	0.000211	0.000684	-0.012271	
 2799	    0	17.115973	21.159991	-9.562652	0.575301	-0.131808	-4.297975	0.175720	0.208130	-0.094910	0.999764	0.002876	-0.000659	-0.021488	
 2800	    0	16.636077	19.516525	-12.737788	-1.094382	0.089657	-5.359746	0.171440	0.189915	-0.128503	0.999625	-0.005471	0.000448	-0.026795	
 2801	    0	19.935043	-4.434694	-7.349063	-2.127334	0.265726	-4.958947	0.198059	-0.050049	-0.073242	0.999635	-0.010635	0.001328	-0.024792	
 2802	    0	20.704929	-7.692115	-3.355287	-1.739504	0.264197	-4.855123	0.205052	-0.082205	-0.033125	0.999666	-0.008697	0.001321	-0.024273	
 2803	    0	18.517764	-4.087450	-2.745649	-1.253465	0.177786	-5.129839	0.184021	-0.045776	-0.027344	0.999651	-0.006267	0.000889	-0.025646	
 2804	    0	18.775253	-2.324789	-4.098665	-1.273129	0.244744	-5.409748	0.186977	-0.028574	-0.041045	0.999613	-0.006365	0.001224	-0.027045	
 2805	    0	20.935549	-3.490687	-5.073870	-1.760155	0.370077	-5.487060	0.208191	-0.041077	-0.050781	0.999582	-0.008800	0.001850	-0.027431	
 2806	    0	21.468555	-6.085407	-5.248083	-2.376528	0.474237	-5.453919	0.212785	-0.067296	-0.052213	0.999555	-0.011881	0.002371	-0.027266	
 2807	    0	20.601575	-8.731777	-4.580670	-2.795651	0.563899	-5.377264	0.203430	-0.093445	-0.045105	0.999537	-0.013976	0.002819	-0.026882	
 2808	    0	19.877232	-10.071563	-3.117064	-2.880364	0.714606	-5.417159	0.195830	-0.106488	-0.030368	0.999522	-0.014400	0.003572	-0.027081	
 2809	    0	19.948533	-10.185773	-1.903813	-2.684455	0.761727	-5.567306	0.196472	-0.107605	-0.018372	0.999515	-0.013420	0.003808	-0.027832	
 2810	    0	20.656931	-10.287755	-0.474747	-2.427119	0.765164	-5.748169	0.203482	-0.108809	-0.004233	0.999506	-0.012134	0.003825	-0.028736	
 2811	    0	21.185725	-10.608287	0.052694	-2.027461	0.636586	-5.883222	0.208618	-0.112244	0.000977	0.999511	-0.010136	0.003182	-0.029411	
 2812	    0	21.857313	-11.980291	0.890150	-1.570369	0.490073	-5.820971	0.214988	-0.126023	0.009345	0.999542	-0.007851	0.002450	-0.029100	
 2813	    0	21.259922	-12.308928	1.690482	-0.971931	0.295299	-5.729721	0.208984	-0.129028	0.017212	0.999577	-0.004859	0.001476	-0.028645	
 2814	    0	19.204034	-11.314349	1.838214	-0.313037	0.057800	-5.577431	0.188792	-0.118410	0.018510	0.999609	-0.001565	0.000289	-0.027884	
 2815	    0	16.502107	-9.857543	1.491777	0.354809	-0.189804	-5.348084	0.162292	-0.102966	0.014893	0.999640	0.001774	-0.000949	-0.026737	
 2816	    0	14.053919	-8.537244	0.925508	1.044197	-0.439692	-4.993984	0.138329	-0.088893	0.009103	0.999672	0.005220	-0.002198	-0.024967	
 2817	    0	11.718223	-7.749581	-0.018227	1.775533	-0.579700	-4.458289	0.115417	-0.080078	-0.000549	0.999707	0.008877	-0.002898	-0.022289	
 2818	    0	9.274606	-6.855474	-0.943070	2.495216	-0.553369	-3.741775	0.091471	-0.070151	-0.010045	0.999743	0.012475	-0.002767	-0.018707	
 2819	    0	6.301760	-5.442768	-0.881885	3.025274	-0.410300	-2.842919	0.062256	-0.055176	-0.009521	0.999782	0.015125	-0.002051	-0.014214	
 2820	    0	2.952842	-4.003782	-0.130213	3.346457	-0.239005	-1.840704	0.029160	-0.040278	-0.001940	0.999817	0.016731	-0.001195	-0.009203	
 2821	    0	-0.150319	-2.178682	-0.608175	3.570946	-0.049594	-0.785871	-0.001587	-0.021667	-0.006470	0.999832	0.017854	-0.000248	-0.003929	
 2822	    0	-2.640430	-1.169214	-1.335046	3.423861	0.329225	0.299087	-0.026409	-0.011501	-0.013505	0.999850	0.017118	0.001646	0.001495	
 2823	    0	-3.392035	-0.809052	-1.759190	3.006126	0.795975	1.358097	-0.033936	-0.008057	-0.017578	0.999856	0.015030	0.003980	0.006790	
 2824	    0	-3.429168	-0.197302	-2.598250	2.438109	1.257585	2.422086	-0.034430	-0.002074	-0.025791	0.999832	0.012190	0.006288	0.012110	
 2825	    0	-4.209400	0.853732	-3.668090	1.789230	1.661237	3.515893	-0.042542	0.008118	-0.036255	0.999770	0.008945	0.008306	0.017578	
 2826	    0	-5.877973	1.589122	-4.904948	0.997273	2.024685	4.651397	-0.059624	0.014753	-0.048373	0.999665	0.004986	0.010122	0.023254	
 2827	    0	-7.480686	1.537433	-5.644298	0.126668	2.362630	5.733646	-0.075867	0.013245	-0.055542	0.999518	0.000633	0.011811	0.028664	
 2828	    0	-7.110851	0.671575	-5.182416	-0.601136	2.585017	6.699676	-0.071939	0.004161	-0.050913	0.999351	-0.003005	0.012922	0.033491	
 2829	    0	-3.869930	-0.599068	-4.436554	-1.136890	2.579417	7.451311	-0.039001	-0.007690	-0.043823	0.999207	-0.005683	0.012894	0.037247	
 2830	    0	-0.347428	-1.659016	-3.633480	-1.541411	2.388148	8.013087	-0.003231	-0.017002	-0.036165	0.999096	-0.007705	0.011937	0.040053	
 2831	    0	1.550830	-2.535629	-2.665876	-1.665083	2.010234	8.426346	0.016296	-0.024902	-0.026611	0.999027	-0.008323	0.010048	0.042118	
 2832	    0	2.859872	-2.450474	-2.273157	-1.516663	1.537842	8.733261	0.029462	-0.023403	-0.022776	0.998988	-0.007581	0.007687	0.043652	
 2833	    0	4.694317	-1.894236	-2.354084	-1.372248	1.104553	9.016537	0.047607	-0.016968	-0.023682	0.998944	-0.006859	0.005521	0.045067	
 2834	    0	6.917626	-2.150247	-1.982332	-1.310061	0.698343	9.209920	0.070003	-0.018421	-0.019939	0.998912	-0.006548	0.003490	0.046033	
 2835	    0	8.830504	-2.593860	-1.305013	-1.085098	0.309101	9.205875	0.089355	-0.021912	-0.013062	0.998924	-0.005424	0.001545	0.046013	
 2836	    0	10.568538	-1.947987	-1.363043	-0.618003	-0.132416	9.074478	0.106434	-0.014703	-0.013510	0.998965	-0.003089	-0.000662	0.045357	
 2837	    0	11.175530	-2.452395	-1.312374	-0.045791	-0.536333	8.886602	0.112732	-0.019531	-0.012817	0.999009	-0.000229	-0.002681	0.044418	
 2838	    0	12.047752	-3.038866	-1.438711	0.895031	-0.980509	8.780694	0.121723	-0.024999	-0.013912	0.999014	0.004474	-0.004901	0.043889	
 2839	    0	14.104679	-1.538602	-1.838411	2.018691	-1.383509	8.898268	0.141663	-0.008911	-0.017517	0.998935	0.010090	-0.006915	0.044476	
 2840	    0	16.648576	0.913342	-2.134664	2.603006	-1.551080	9.116817	0.165989	0.016974	-0.019871	0.998846	0.013010	-0.007752	0.045567	
 2841	    0	20.231607	3.940200	-2.875843	2.687594	-1.582217	9.374998	0.200378	0.049194	-0.026550	0.998779	0.013433	-0.007908	0.046856	
 2842	    0	24.962493	6.508547	-3.558100	2.335752	-1.418701	9.585151	0.246353	0.077343	-0.032969	0.998758	0.011674	-0.007091	0.047906	
 2843	    0	29.079235	7.898256	-4.791324	1.995912	-1.292763	9.674258	0.286804	0.093384	-0.045166	0.998759	0.009975	-0.006461	0.048351	
 2844	    0	32.153651	11.507949	-5.555975	1.720164	-1.160133	9.586553	0.315828	0.130774	-0.052636	0.998797	0.008597	-0.005798	0.047914	
 2845	    0	31.980050	16.944926	-6.921602	1.253403	-0.954792	9.307502	0.311768	0.184509	-0.066589	0.998886	0.006265	-0.004772	0.046520	
 2846	    0	31.345866	19.868596	-6.980852	0.600431	-0.750396	8.627167	0.304756	0.212166	-0.068030	0.999058	0.003001	-0.003751	0.043122	
 2847	    0	33.016412	20.643351	-7.466641	0.337493	-0.766179	7.616762	0.322266	0.218933	-0.073059	0.999266	0.001687	-0.003830	0.038074	
 2848	    0	29.695504	21.329166	-6.679276	0.505151	-0.957460	6.277383	0.290378	0.222641	-0.064837	0.999493	0.002525	-0.004786	0.031382	
 2849	    0	23.653219	25.741725	-3.496854	1.312390	-1.251158	4.613967	0.230713	0.263000	-0.031799	0.999692	0.006561	-0.006255	0.023067	
 2850	    0	18.596163	32.625217	1.717300	1.718796	-1.227057	2.699603	0.181416	0.328551	0.021112	0.999853	0.008594	-0.006135	0.013497	
 2851	    0	15.699900	36.669158	5.387353	1.482413	-0.766575	0.856794	0.155212	0.366943	0.057190	0.999955	0.007412	-0.003833	0.004284	
 2852	    0	11.911404	33.034752	4.223019	1.060685	-0.243380	-0.906380	0.120556	0.329573	0.044126	0.999974	0.005303	-0.001217	-0.004532	
 2853	    0	10.386852	25.148080	2.026495	1.672616	-0.075534	-2.453703	0.106934	0.250000	0.022400	0.999889	0.008363	-0.000378	-0.012268	
 2854	    0	11.159140	19.857023	-1.734116	2.102629	-0.230234	-3.692906	0.115252	0.196631	-0.015136	0.999773	0.010512	-0.001151	-0.018463	
 2855	    0	11.848931	22.987647	-0.546735	2.526403	-0.239402	-4.797952	0.123962	0.226990	-0.002441	0.999631	0.012630	-0.001197	-0.023987	
 2856	    0	14.555749	33.044043	-23.212517	2.135235	-1.003044	-5.715136	0.156115	0.328527	-0.227845	0.999522	0.010674	-0.005014	-0.028571	
 2857	    0	24.332338	26.846984	-41.986777	-2.298243	-1.074434	-6.450418	0.253967	0.255554	-0.421509	0.999399	-0.011489	-0.005371	-0.032246	
 2858	    0	51.270592	17.858172	-34.035901	-2.187885	-0.943116	-8.615883	0.521255	0.152525	-0.339678	0.999001	-0.010936	-0.004714	-0.043065	
 2859	    0	53.688894	0.094501	0.428675	-3.639020	-1.254795	-9.225490	0.536133	-0.023682	0.007935	0.998751	-0.018188	-0.006271	-0.046108	
 2860	    0	11.308725	15.011657	16.199086	-2.350987	-1.909712	-6.935439	0.116702	0.148010	0.161345	0.999284	-0.011752	-0.009546	-0.034669	
 2861	    0	7.003251	16.440034	17.006173	-1.816722	-1.188128	-6.486250	0.074341	0.163574	0.169006	0.999414	-0.009082	-0.005939	-0.032425	
 2862	    0	-5.776972	15.150934	1.274911	0.050552	-1.111572	-5.776857	-0.053432	0.153091	0.012483	0.999567	0.000253	-0.005557	-0.028880	
 2863	    0	3.570886	11.422733	-6.013071	0.086986	-0.442369	-5.457225	0.038940	0.113220	-0.059998	0.999625	0.000435	-0.002212	-0.027283	
 2864	    0	17.715993	8.052072	-6.159023	-0.095949	-0.174348	-4.764245	0.179064	0.076241	-0.061472	0.999715	-0.000480	-0.000872	-0.023819	
 2865	    0	16.867322	10.092860	-5.024306	-0.324844	-0.201430	-4.040042	0.170715	0.097412	-0.050232	0.999794	-0.001624	-0.001007	-0.020199	
 2866	    0	15.565162	9.278785	-8.450761	-1.182047	0.023462	-3.368747	0.157169	0.089647	-0.085062	0.999840	-0.005910	0.000117	-0.016843	
 2867	    0	20.118808	9.397073	-4.975388	-1.616748	0.222980	-3.016810	0.202515	0.090515	-0.050720	0.999852	-0.008083	0.001115	-0.015083	
 2868	    0	25.587618	7.535223	-4.068724	-1.877104	0.235377	-2.643320	0.256790	0.071574	-0.041673	0.999867	-0.009385	0.001177	-0.013216	
 2869	    0	31.575336	8.106100	0.155440	-2.382014	0.391598	-2.438474	0.316711	0.077209	0.000000	0.999852	-0.011909	0.001958	-0.012192	
 2870	    0	32.209852	-3.063094	2.828114	-2.376660	0.292600	-2.167987	0.321785	-0.033785	0.028199	0.999869	-0.011883	0.001463	-0.010839	
 2871	    0	31.894896	-1.789526	4.213588	-2.281279	0.193222	-2.054677	0.318787	-0.020691	0.042053	0.999881	-0.011406	0.000966	-0.010273	
 2872	    0	28.375849	-4.677527	2.586246	-2.670013	0.190933	-1.551309	0.283411	-0.048626	0.026233	0.999880	-0.013350	0.000955	-0.007756	
 2873	    0	23.726440	-8.208460	-0.666033	-3.036631	0.232897	-1.062821	0.236816	-0.083435	-0.005676	0.999869	-0.015182	0.001164	-0.005314	
 2874	    0	22.096730	-11.788499	-2.687161	-2.608570	0.259789	-0.706694	0.220514	-0.119004	-0.025611	0.999907	-0.013042	0.001299	-0.003533	
 2875	    0	20.682598	-14.671668	-6.878885	-1.413741	0.179483	-0.549322	0.206360	-0.147766	-0.067932	0.999970	-0.007069	0.000897	-0.002747	
 2876	    0	18.701735	-10.543319	-8.035720	-0.253106	0.133896	-0.830272	0.186523	-0.106310	-0.080348	0.999990	-0.001266	0.000669	-0.004151	
 2877	    0	13.462874	-7.086244	-11.249214	0.080872	0.041390	-1.430524	0.134094	-0.071777	-0.112549	0.999974	0.000404	0.000207	-0.007153	
 2878	    0	12.640240	-1.018320	-8.632090	0.417527	-0.063516	-2.192161	0.126309	-0.011388	-0.086304	0.999937	0.002088	-0.000318	-0.010961	
 2879	    0	15.410283	19.221394	-8.410289	0.552401	-0.259224	-3.743968	0.157776	0.189514	-0.083374	0.999820	0.002762	-0.001296	-0.018719	
 2880	    0	17.004425	22.332142	-12.349910	-1.001081	-0.022318	-4.900108	0.175450	0.218445	-0.124581	0.999687	-0.005005	-0.000112	-0.024498	
 2881	    0	18.921275	-0.694131	-7.200078	-2.385967	0.216889	-4.468252	0.188904	-0.012024	-0.072083	0.999679	-0.011929	0.001084	-0.022339	
 2882	    0	20.641212	-8.802533	-4.769401	-2.216561	0.199910	-4.361970	0.204372	-0.093020	-0.046886	0.999700	-0.011082	0.000999	-0.021808	
 2883	    0	17.639745	-5.516263	-3.404541	-1.783930	0.186366	-4.539940	0.175049	-0.059448	-0.033691	0.999701	-0.008919	0.000932	-0.022697	
 2884	    0	17.045092	-3.894187	-4.663064	-1.773269	0.282510	-4.857415	0.169366	-0.043477	-0.046498	0.999664	-0.008865	0.001412	-0.024284	
 2885	    0	19.517940	-4.382716	-5.679057	-2.171603	0.439700	-5.078775	0.193848	-0.049377	-0.056702	0.999616	-0.010857	0.002198	-0.025391	
 2886	    0	20.803128	-6.902331	-5.724301	-2.742965	0.511433	-5.115661	0.206017	-0.075091	-0.056769	0.999575	-0.013713	0.002557	-0.025575	
 2887	    0	20.703028	-9.510562	-4.989826	-3.103916	0.575343	-5.130017	0.204346	-0.101135	-0.048950	0.999546	-0.015517	0.002876	-0.025646	
 2888	    0	20.568690	-10.462761	-3.554525	-3.224501	0.692858	-5.199109	0.202744	-0.110486	-0.034501	0.999526	-0.016120	0.003464	-0.025991	
 2889	    0	20.730917	-10.180957	-2.088336	-3.053010	0.789197	-5.340669	0.204407	-0.107605	-0.020081	0.999518	-0.015263	0.003945	-0.026699	
 2890	    0	21.002062	-10.165246	-0.397692	-2.855577	0.859401	-5.505126	0.207101	-0.107431	-0.003365	0.999510	-0.014276	0.004296	-0.027521	
 2891	    0	20.769138	-10.182007	0.265393	-2.451719	0.754096	-5.659632	0.204712	-0.107605	0.003174	0.999516	-0.012257	0.003770	-0.028294	
 2892	    0	20.510538	-11.693337	1.296637	-1.762646	0.648783	-5.591058	0.201776	-0.122489	0.013371	0.999565	-0.008812	0.003243	-0.027951	
 2893	    0	19.590621	-11.556364	2.220812	-0.887414	0.473275	-5.494641	0.192688	-0.120789	0.022278	0.999610	-0.004436	0.002366	-0.027470	
 2894	    0	17.460969	-10.092190	2.669377	-0.050741	0.261719	-5.324422	0.171876	-0.105515	0.026494	0.999644	-0.000254	0.001308	-0.026619	
 2895	    0	14.724204	-8.520244	2.481076	0.706559	0.035290	-5.076392	0.145020	-0.088989	0.024475	0.999671	0.003532	0.000176	-0.025379	
 2896	    0	12.267718	-6.990474	1.792682	1.370566	-0.183505	-4.686440	0.120976	-0.072874	0.017546	0.999701	0.006852	-0.000917	-0.023430	
 2897	    0	10.064542	-6.575578	0.483503	2.035896	-0.365481	-4.150763	0.099243	-0.067871	0.004333	0.999731	0.010179	-0.001827	-0.020752	
 2898	    0	7.476404	-6.175648	-0.916421	2.668412	-0.485461	-3.547009	0.073678	-0.062942	-0.009819	0.999750	0.013341	-0.002427	-0.017734	
 2899	    0	4.707604	-4.749371	-1.425895	3.105581	-0.463901	-2.772725	0.046448	-0.047913	-0.014893	0.999781	0.015527	-0.002319	-0.013863	
 2900	    0	2.273865	-3.085436	-1.838997	3.354852	-0.386643	-1.840896	0.022491	-0.030748	-0.018863	0.999815	0.016773	-0.001933	-0.009204	
 2901	    0	-0.156422	-1.128454	-2.086984	3.361870	-0.205241	-0.801126	-0.001587	-0.010925	-0.021057	0.999849	0.016809	-0.001026	-0.004005	
 2902	    0	-2.420685	0.659393	-3.274496	3.158320	0.126653	0.292027	-0.024238	0.007074	-0.032620	0.999873	0.015791	0.000633	0.001460	
 2903	    0	-4.366385	1.435651	-3.840315	2.534006	0.611137	1.433616	-0.043884	0.014526	-0.038086	0.999889	0.012670	0.003056	0.007168	
 2904	    0	-5.475330	1.338959	-3.849161	1.751788	1.059961	2.562829	-0.055124	0.013020	-0.038085	0.999865	0.008759	0.005300	0.012814	
 2905	    0	-5.909244	1.603270	-4.494409	1.105575	1.428511	3.635656	-0.059692	0.015198	-0.044434	0.999793	0.005527	0.007142	0.018177	
 2906	    0	-6.699265	2.238041	-5.164148	0.295671	1.784705	4.720428	-0.067954	0.020860	-0.051006	0.999681	0.001478	0.008923	0.023600	
 2907	    0	-7.244899	1.912105	-4.677888	-0.556078	2.041941	5.705379	-0.073425	0.016907	-0.046082	0.999537	-0.002780	0.010208	0.028522	
 2908	    0	-6.012882	0.606359	-3.541488	-1.054782	2.096591	6.482264	-0.060646	0.003919	-0.034805	0.999406	-0.005273	0.010481	0.032405	
 2909	    0	-3.789187	-0.160643	-2.956081	-1.137611	1.952044	7.045827	-0.038086	-0.003113	-0.029175	0.999315	-0.005687	0.009758	0.035221	
 2910	    0	-1.765835	-0.946722	-2.300712	-1.030417	1.747760	7.482686	-0.017485	-0.010242	-0.022802	0.999249	-0.005151	0.008737	0.037404	
 2911	    0	0.023044	-1.601547	-1.774950	-0.665461	1.441005	7.849693	0.000732	-0.016052	-0.017700	0.999198	-0.003326	0.007203	0.039238	
 2912	    0	2.060990	-1.405517	-1.750214	-0.279124	1.079866	8.184280	0.021068	-0.013224	-0.017596	0.999146	-0.001395	0.005398	0.040910	
 2913	    0	3.991691	-1.146244	-1.938654	-0.047126	0.732643	8.471180	0.040283	-0.009766	-0.019531	0.999096	-0.000236	0.003662	0.042343	
 2914	    0	5.764472	-1.459860	-2.564175	0.059146	0.396852	8.642221	0.058152	-0.012085	-0.025761	0.999064	0.000296	0.001984	0.043198	
 2915	    0	7.225743	-1.380223	-3.335235	0.080897	0.080325	8.728510	0.072754	-0.010620	-0.033386	0.999047	0.000404	0.000401	0.043629	
 2916	    0	8.911619	-1.490227	-2.947815	-0.173815	-0.144624	8.785595	0.089678	-0.010996	-0.029403	0.999034	-0.000869	-0.000723	0.043914	
 2917	    0	10.073873	-2.666652	-1.817465	-0.149392	-0.418986	8.676587	0.101807	-0.022278	-0.017944	0.999056	-0.000747	-0.002094	0.043369	
 2918	    0	10.795974	-2.691664	-1.295964	0.368421	-0.793508	8.503260	0.109023	-0.022272	-0.012572	0.999086	0.001842	-0.003966	0.042503	
 2919	    0	11.946162	-0.229479	-0.566876	1.156405	-1.202768	8.491113	0.119446	0.002808	-0.004944	0.999063	0.005780	-0.006012	0.042442	
 2920	    0	13.400311	2.692330	-0.635875	1.700197	-1.445483	8.598102	0.132720	0.032696	-0.005135	0.999013	0.008498	-0.007225	0.042976	
 2921	    0	15.901911	4.711767	-0.952871	1.817189	-1.503321	8.813481	0.156799	0.054138	-0.007874	0.998960	0.009083	-0.007514	0.044052	
 2922	    0	19.839733	6.121427	-1.989081	1.605037	-1.440565	9.023469	0.195498	0.070230	-0.017936	0.998923	0.008022	-0.007200	0.045101	
 2923	    0	23.260692	6.647059	-3.137189	1.370927	-1.256253	9.137221	0.229431	0.077209	-0.029419	0.998913	0.006852	-0.006279	0.045670	
 2924	    0	26.716450	7.193363	-3.753383	1.436178	-1.078040	9.120219	0.263703	0.084274	-0.035530	0.998919	0.007178	-0.005388	0.045585	
 2925	    0	30.321247	10.329905	-4.710163	1.806692	-1.019639	8.860021	0.298462	0.117004	-0.044556	0.998964	0.009030	-0.005096	0.044285	
 2926	    0	31.612142	13.256677	-4.802825	2.020506	-0.873454	8.319179	0.310434	0.146028	-0.045234	0.999074	0.010099	-0.004366	0.041583	
 2927	    0	32.500382	16.486214	-4.981715	2.418396	-0.869791	7.552051	0.318665	0.177551	-0.046326	0.999204	0.012089	-0.004348	0.037750	
 2928	    0	30.738461	20.108735	-6.501570	2.375523	-0.899501	6.577519	0.300817	0.211796	-0.061179	0.999378	0.011875	-0.004497	0.032881	
 2929	    0	25.016638	22.829148	-6.956401	2.251944	-1.076660	5.268843	0.244385	0.235535	-0.065613	0.999575	0.011258	-0.005383	0.026340	
 2930	    0	20.872757	28.906369	-5.015906	2.013755	-1.232059	3.790407	0.203485	0.293430	-0.045955	0.999750	0.010068	-0.006160	0.018950	
 2931	    0	16.911295	33.883217	0.986334	1.191177	-1.042208	2.252268	0.165222	0.340637	0.012756	0.999905	0.005956	-0.005211	0.011261	
 2932	    0	13.360789	32.902287	3.090516	0.546648	-0.496485	0.550081	0.132624	0.329302	0.032135	0.999989	0.002733	-0.002482	0.002750	
 2933	    0	9.654766	25.715605	0.290201	0.901994	-0.185396	-1.246656	0.098145	0.256531	0.004150	0.999969	0.004510	-0.000927	-0.006233	
 2934	    0	10.098275	19.940814	-4.021673	1.443920	-0.236139	-2.714455	0.103725	0.198296	-0.038661	0.999881	0.007219	-0.001181	-0.013572	
 2935	    0	9.272937	20.516476	-3.667139	1.361938	-0.262278	-3.764596	0.096619	0.203613	-0.035156	0.999799	0.006809	-0.001311	-0.018822	
 2936	    0	12.728681	31.862354	-11.268257	1.558488	-0.505698	-5.063655	0.135592	0.316124	-0.109877	0.999645	0.007792	-0.002528	-0.025315	
 2937	    0	17.392088	30.291397	-37.481433	-1.539631	-1.249866	-5.371064	0.184265	0.295166	-0.375977	0.999590	-0.007697	-0.006248	-0.026852	
 2938	    0	39.276759	12.263858	-37.321145	-3.945220	-0.577121	-6.764242	0.397527	0.101869	-0.374215	0.999229	-0.019721	-0.002885	-0.033813	
 2939	    0	72.586448	18.804298	-10.352215	-2.542450	-0.461049	-10.727029	0.734741	0.147461	-0.103882	0.998478	-0.012706	-0.002304	-0.053608	
 2940	    0	30.579108	-2.599826	13.403764	-3.158865	-1.829951	-8.190992	0.303198	-0.036302	0.137340	0.998995	-0.015789	-0.009147	-0.040941	
 2941	    0	9.587537	21.808720	28.640538	-2.500585	-0.999700	-7.249731	0.102356	0.218018	0.284180	0.999252	-0.012500	-0.004997	-0.036240	
 2942	    0	-4.592111	7.186554	7.172573	0.008203	-1.193617	-6.042864	-0.044149	0.073215	0.071462	0.999525	0.000041	-0.005967	-0.030210	
 2943	    0	-5.654167	13.761639	-4.141817	0.508387	-0.496750	-6.042650	-0.052246	0.139343	-0.041199	0.999537	0.002542	-0.002483	-0.030209	
 2944	    0	10.003440	11.018799	-8.816740	-0.123611	-0.032620	-5.321940	0.102932	0.107420	-0.088218	0.999645	-0.000618	-0.000163	-0.026607	
 2945	    0	18.526753	9.933521	-5.438747	-0.507397	-0.071532	-4.461282	0.187439	0.095032	-0.054565	0.999747	-0.002537	-0.000358	-0.022305	
 2946	    0	17.435642	12.233172	-7.610644	-1.365753	0.019456	-3.768983	0.176606	0.118494	-0.076941	0.999799	-0.006828	0.000097	-0.018844	
 2947	    0	17.330081	8.920522	-8.042582	-1.976889	0.226797	-3.112207	0.174561	0.085693	-0.081482	0.999829	-0.009884	0.001134	-0.015560	
 2948	    0	23.711335	6.599594	-3.576407	-1.660609	0.185974	-2.746128	0.237953	0.062431	-0.036513	0.999870	-0.008303	0.000930	-0.013730	
 2949	    0	31.059773	7.640243	-1.030626	-1.803472	0.284588	-2.555189	0.311523	0.072327	-0.011414	0.999876	-0.009017	0.001423	-0.012775	
 2950	    0	31.452436	0.601862	2.409560	-2.080428	0.264178	-2.281852	0.314599	0.002677	0.023641	0.999880	-0.010402	0.001321	-0.011409	
 2951	    0	30.718787	-2.401260	4.183457	-1.781525	0.247392	-2.253038	0.306946	-0.027100	0.041687	0.999896	-0.008907	0.001237	-0.011265	
 2952	    0	28.701058	-3.608404	2.926733	-2.100060	0.191313	-1.862969	0.286688	-0.038447	0.029388	0.999901	-0.010500	0.000957	-0.009315	
 2953	    0	24.627285	-4.609745	1.417795	-2.774158	0.197800	-1.340538	0.245972	-0.047546	0.014587	0.999881	-0.013870	0.000989	-0.006702	
 2954	    0	20.961305	-9.460209	-1.197314	-2.962993	0.255595	-0.823054	0.209207	-0.095630	-0.010829	0.999881	-0.014814	0.001278	-0.004115	
 2955	    0	19.774183	-11.762821	-4.023669	-2.358876	0.285346	-0.503552	0.197388	-0.118591	-0.039124	0.999926	-0.011794	0.001427	-0.002518	
 2956	    0	19.943739	-14.552749	-5.790733	-0.635721	0.213624	-0.402070	0.199082	-0.146111	-0.057656	0.999991	-0.003179	0.001068	-0.002010	
 2957	    0	17.510405	-6.185769	-7.947102	0.188637	0.208283	-0.890354	0.174744	-0.062561	-0.079712	0.999989	0.000943	0.001041	-0.004452	
 2958	    0	14.104475	-5.193330	-9.896574	0.132562	0.221445	-1.372730	0.140574	-0.052834	-0.099156	0.999975	0.000663	0.001107	-0.006864	
 2959	    0	14.694452	7.200243	-6.654652	0.338182	0.220496	-2.526924	0.147766	0.070251	-0.066589	0.999918	0.001691	0.001102	-0.012634	
 2960	    0	15.786435	25.339301	-12.271777	0.352506	-0.045589	-4.310753	0.163307	0.250128	-0.122238	0.999765	0.001762	-0.000228	-0.021552	
 2961	    0	16.085543	13.768275	-11.627426	-1.666434	0.345075	-4.707065	0.163818	0.132874	-0.117676	0.999686	-0.008331	0.001725	-0.023533	
 2962	    0	19.543383	-6.815869	-6.916330	-2.302406	0.368538	-4.378959	0.193741	-0.073206	-0.068698	0.999692	-0.011511	0.001842	-0.021893	
 2963	    0	19.077228	-7.802614	-4.458469	-2.083031	0.409930	-4.383520	0.188904	-0.082642	-0.044128	0.999703	-0.010414	0.002049	-0.021915	
 2964	    0	16.500044	-4.753297	-4.082260	-1.774783	0.416799	-4.670251	0.163740	-0.051728	-0.040718	0.999685	-0.008873	0.002084	-0.023349	
 2965	    0	18.105122	-3.514289	-5.256881	-2.027949	0.616530	-4.973445	0.179932	-0.040161	-0.052734	0.999634	-0.010139	0.003082	-0.024864	
 2966	    0	20.860812	-5.128690	-5.507581	-2.567843	0.793759	-5.146940	0.206965	-0.057336	-0.055189	0.999578	-0.012837	0.003968	-0.025731	
 2967	    0	21.690131	-8.460688	-5.324511	-3.023995	0.887626	-5.199470	0.214355	-0.091003	-0.052856	0.999537	-0.015118	0.004437	-0.025993	
 2968	    0	21.587370	-11.188779	-4.621448	-3.177962	0.985494	-5.234985	0.212609	-0.118208	-0.045423	0.999518	-0.015887	0.004927	-0.026171	
 2969	    0	21.363069	-11.703759	-3.613860	-3.065799	1.059132	-5.342209	0.210205	-0.123230	-0.035400	0.999512	-0.015326	0.005295	-0.026707	
 2970	    0	21.083285	-11.523549	-1.802406	-2.876758	1.121707	-5.493692	0.207458	-0.121220	-0.017479	0.999503	-0.014381	0.005608	-0.027464	
 2971	    0	20.985004	-10.538924	-0.619343	-2.493516	1.050745	-5.762692	0.206665	-0.111450	-0.005920	0.999493	-0.012465	0.005253	-0.028809	
 2972	    0	20.877769	-10.490004	0.608142	-1.787851	0.911285	-5.835124	0.205628	-0.110876	0.006113	0.999523	-0.008938	0.004556	-0.029171	
 2973	    0	20.581994	-10.199130	1.292350	-0.998068	0.682357	-5.750339	0.202820	-0.107788	0.012756	0.999568	-0.004990	0.003411	-0.028748	
 2974	    0	19.380995	-9.771667	1.897720	-0.319332	0.463546	-5.556829	0.191040	-0.103021	0.018694	0.999610	-0.001596	0.002317	-0.027781	
 2975	    0	16.870498	-9.730490	1.794226	0.390861	0.201440	-5.277869	0.166077	-0.101746	0.017578	0.999649	0.001954	0.001007	-0.026386	
 2976	    0	14.039123	-8.605246	0.959081	1.084062	-0.101100	-4.948192	0.138200	-0.089540	0.009182	0.999679	0.005420	-0.000505	-0.024738	
 2977	    0	11.378535	-7.198448	-0.063107	1.703238	-0.392189	-4.520859	0.112122	-0.074524	-0.001038	0.999706	0.008515	-0.001961	-0.022602	
 2978	    0	8.864401	-5.869466	-1.025365	2.291693	-0.560047	-3.978321	0.087484	-0.060322	-0.010693	0.999732	0.011457	-0.002800	-0.019890	
 2979	    0	6.209287	-4.201149	-2.145533	2.801928	-0.648550	-3.299214	0.061462	-0.042725	-0.021851	0.999760	0.014009	-0.003242	-0.016495	
 2980	    0	3.191181	-2.428136	-2.665172	3.027730	-0.592079	-2.438321	0.031695	-0.024262	-0.026925	0.999806	0.015138	-0.002960	-0.012191	
 2981	    0	0.122763	-1.054877	-2.767758	3.061249	-0.451682	-1.356571	0.001221	-0.010132	-0.027832	0.999857	0.015306	-0.002258	-0.006783	
 2982	    0	-2.735593	-0.096813	-3.525328	2.972141	-0.180823	-0.212487	-0.027325	-0.000415	-0.035287	0.999888	0.014860	-0.000904	-0.001062	
 2983	    0	-4.959473	0.863500	-3.996553	2.575956	0.229652	0.955230	-0.049683	0.008911	-0.039795	0.999905	0.012879	0.001148	0.004776	
 2984	    0	-5.945365	1.589950	-4.166856	1.933738	0.658249	2.049327	-0.059752	0.015689	-0.041320	0.999895	0.009668	0.003291	0.010246	
 2985	    0	-6.213597	1.938032	-4.744020	1.173652	1.062829	3.136605	-0.062683	0.018677	-0.046997	0.999846	0.005868	0.005314	0.015682	
 2986	    0	-6.871225	1.771545	-5.088347	0.403628	1.399344	4.162744	-0.069416	0.016377	-0.050365	0.999757	0.002018	0.006996	0.020812	
 2987	    0	-7.572334	1.679556	-5.156749	-0.231008	1.628311	5.155048	-0.076538	0.014771	-0.050964	0.999634	-0.001155	0.008141	0.025772	
 2988	    0	-7.495212	1.387944	-4.730603	-0.764402	1.746277	6.020974	-0.075730	0.011428	-0.046694	0.999501	-0.003821	0.008730	0.030100	
 2989	    0	-5.981804	0.162776	-3.445499	-1.041432	1.733749	6.661807	-0.060120	-0.000549	-0.033936	0.999393	-0.005206	0.008667	0.033302	
 2990	    0	-3.471038	-1.198582	-2.158781	-0.955607	1.590897	7.120976	-0.034422	-0.013317	-0.021252	0.999323	-0.004777	0.007953	0.035597	
 2991	    0	-0.755739	-2.160815	-1.390338	-0.569099	1.338518	7.463346	-0.006836	-0.021912	-0.013794	0.999277	-0.002845	0.006691	0.037308	
 2992	    0	1.433440	-2.077884	-1.283004	-0.018888	1.000470	7.778063	0.015063	-0.020204	-0.012902	0.999230	-0.000094	0.005001	0.038880	
 2993	    0	3.411181	-1.614051	-1.657041	0.370891	0.725184	8.119165	0.034668	-0.014709	-0.016724	0.999167	0.001854	0.003625	0.040585	
 2994	    0	5.273663	-2.153923	-1.462027	0.480791	0.504831	8.314064	0.053533	-0.019289	-0.014803	0.999129	0.002403	0.002523	0.041558	
 2995	    0	7.170710	-3.053941	-1.482474	0.744083	0.231429	8.325332	0.072876	-0.027466	-0.015015	0.999125	0.003719	0.001157	0.041615	
 2996	    0	8.543334	-3.206994	-1.489411	1.145124	-0.018888	8.277058	0.086661	-0.028414	-0.015056	0.999126	0.005724	-0.000094	0.041373	
 2997	    0	9.328138	-2.372538	-1.676473	1.536250	-0.302022	8.268889	0.094177	-0.019714	-0.016785	0.999114	0.007679	-0.001510	0.041332	
 2998	    0	9.771212	-0.515476	-2.110750	1.852215	-0.560167	8.302723	0.097867	-0.000899	-0.020855	0.999091	0.009258	-0.002800	0.041501	
 2999	    0	10.781155	1.227344	-2.304660	1.844796	-0.711283	8.461371	0.107239	0.017029	-0.022522	0.999056	0.009221	-0.003555	0.042294	
 3000	    0	11.825075	2.142873	-2.583858	1.866961	-0.864316	8.688570	0.117274	0.026775	-0.025097	0.999003	0.009332	-0.004320	0.043428	
 3001	    0	13.352018	3.344151	-2.449097	1.655390	-0.937024	8.922619	0.131958	0.039551	-0.023560	0.998960	0.008274	-0.004683	0.044598	
 3002	    0	15.391560	3.756309	-1.905729	1.360232	-0.921004	9.085449	0.152080	0.044626	-0.018066	0.998934	0.006799	-0.004603	0.045411	
 3003	    0	18.579907	4.399580	-1.821907	1.124404	-0.855562	9.173825	0.183594	0.052551	-0.017151	0.998922	0.005620	-0.004276	0.045853	
 3004	    0	22.311440	5.501782	-2.327342	1.142911	-0.781721	9.170767	0.220365	0.065295	-0.022055	0.998924	0.005713	-0.003907	0.045837	
 3005	    0	26.738392	9.016818	-3.745113	1.286198	-0.795264	9.082951	0.263062	0.102417	-0.035767	0.998940	0.006429	-0.003975	0.045399	
 3006	    0	30.025474	12.926853	-4.753596	1.129912	-0.768539	8.882651	0.294292	0.142692	-0.045616	0.998990	0.005648	-0.003841	0.044398	
 3007	    0	31.285906	14.728307	-4.413099	1.196652	-0.780533	8.413197	0.306458	0.160522	-0.041992	0.999089	0.005981	-0.003901	0.042053	
 3008	    0	32.550380	18.173447	-4.411461	1.476282	-0.851848	7.622558	0.318438	0.194275	-0.041345	0.999237	0.007380	-0.004258	0.038103	
 3009	    0	29.931963	20.275780	-3.836316	1.677448	-0.901202	6.457213	0.292725	0.212585	-0.035278	0.999434	0.008386	-0.004505	0.032280	
 3010	    0	25.078156	22.178722	-4.586294	2.240094	-1.123004	5.029959	0.245334	0.228488	-0.041941	0.999605	0.011199	-0.005614	0.025146	
 3011	    0	21.320992	30.029296	-3.676815	2.233479	-1.162042	3.362521	0.208313	0.304199	-0.032166	0.999779	0.011167	-0.005810	0.016811	
 3012	    0	17.348245	36.237210	1.418309	1.415286	-0.871869	1.683656	0.170353	0.363699	0.017501	0.999929	0.007076	-0.004359	0.008418	
 3013	    0	12.417645	33.958471	2.913068	0.989728	-0.412752	-0.126649	0.124329	0.339355	0.031067	0.999985	0.004949	-0.002064	-0.000633	
 3014	    0	11.106132	28.315032	0.261078	1.281577	-0.124934	-1.987313	0.113865	0.282003	0.004491	0.999929	0.006408	-0.000625	-0.009936	
 3015	    0	12.481269	21.503516	-4.914575	1.159156	-0.182352	-3.331167	0.128418	0.213196	-0.047791	0.999844	0.005795	-0.000912	-0.016655	
 3016	    0	12.117100	23.111811	-3.192950	1.487293	-0.220891	-4.395117	0.126247	0.228609	-0.030086	0.999730	0.007436	-0.001104	-0.021974	
 3017	    0	14.920174	29.883981	-27.975471	0.564077	-1.004160	-5.497701	0.158752	0.295349	-0.278137	0.999605	0.002820	-0.005020	-0.027485	
 3018	    0	25.894643	11.249165	-36.113562	-4.297994	-0.398531	-5.761437	0.262615	0.097175	-0.362813	0.999352	-0.021485	-0.001992	-0.028801	
 3019	    0	54.260141	11.785688	-19.715450	-2.413077	-0.321858	-7.740618	0.546875	0.094360	-0.197510	0.999177	-0.012062	-0.001609	-0.038692	
 3020	    0	52.363074	14.041767	-4.182903	-3.074811	-1.503725	-10.267500	0.530196	0.112680	-0.039733	0.998536	-0.015367	-0.007515	-0.051312	
 3021	    0	16.766633	16.411957	16.287886	-3.276285	-1.624596	-7.671376	0.172546	0.160217	0.161621	0.999097	-0.016376	-0.008121	-0.038345	
 3022	    0	6.110892	11.550574	21.885016	-2.205728	-1.459802	-6.492227	0.063273	0.115883	0.218030	0.999385	-0.011026	-0.007298	-0.032454	
 3023	    0	-6.674481	9.235240	0.606790	0.059519	-1.104717	-6.005266	-0.063965	0.094299	0.005737	0.999534	0.000298	-0.005523	-0.030022	
 3024	    0	1.396530	13.605934	-5.812309	0.469847	-0.489877	-5.797065	0.018044	0.135712	-0.057763	0.999574	0.002349	-0.002449	-0.028981	
 3025	    0	16.993233	10.552971	-7.850913	-0.248745	-0.027278	-5.076383	0.172546	0.101074	-0.078613	0.999677	-0.001244	-0.000136	-0.025379	
 3026	    0	19.103117	8.519807	-8.572951	-0.851314	-0.097473	-4.154135	0.192782	0.080840	-0.085986	0.999775	-0.004256	-0.000487	-0.020769	
 3027	    0	15.780924	11.430304	-10.714082	-1.870090	0.113876	-3.545617	0.159729	0.110474	-0.108276	0.999799	-0.009350	0.000569	-0.017727	
 3028	    0	18.507663	7.811137	-3.467462	-1.765156	0.170335	-3.129746	0.186235	0.074892	-0.035503	0.999838	-0.008825	0.000852	-0.015648	
 3029	    0	25.866194	9.789292	-4.384624	-1.709630	0.295270	-2.710841	0.259888	0.093994	-0.045044	0.999870	-0.008548	0.001476	-0.013554	
 3030	    0	29.344345	4.756569	0.971096	-2.003750	0.337805	-2.335451	0.293988	0.044226	0.008760	0.999880	-0.010018	0.001689	-0.011677	
 3031	    0	31.249857	-0.147316	2.529545	-1.663836	0.349438	-2.275925	0.312500	-0.004822	0.024780	0.999899	-0.008319	0.001747	-0.011379	
 3032	    0	30.607227	-1.045416	2.994256	-1.883184	0.296793	-1.962914	0.305996	-0.013178	0.029604	0.999906	-0.009416	0.001484	-0.009814	
 3033	    0	28.301578	-2.599288	1.557131	-2.344400	0.360882	-1.514485	0.282837	-0.027954	0.015381	0.999901	-0.011722	0.001804	-0.007572	
 3034	    0	24.854609	-7.142991	-2.126696	-3.001530	0.421542	-0.951426	0.248158	-0.072925	-0.020703	0.999873	-0.015007	0.002108	-0.004757	
 3035	    0	22.347948	-11.181556	-3.520388	-2.625356	0.406087	-0.579089	0.223083	-0.112915	-0.034180	0.999907	-0.013126	0.002030	-0.002895	
 3036	    0	20.272479	-13.659005	-6.552221	-1.402868	0.216677	-0.435833	0.202355	-0.137487	-0.064779	0.999972	-0.007014	0.001083	-0.002179	
 3037	    0	18.531785	-7.940182	-7.028636	-0.289918	0.153542	-0.818637	0.184937	-0.080261	-0.070312	0.999990	-0.001450	0.000768	-0.004093	
 3038	    0	15.265153	-4.287162	-10.838119	-0.079156	0.230601	-1.470770	0.152205	-0.044035	-0.108540	0.999971	-0.000396	0.001153	-0.007354	
 3039	    0	16.647389	4.080173	-8.512252	0.190931	0.217443	-2.476566	0.166870	0.038818	-0.085266	0.999922	0.000955	0.001087	-0.012383	
 3040	    0	18.731876	26.002250	-11.105793	-0.075537	-0.013543	-4.313613	0.192875	0.255860	-0.111142	0.999767	-0.000378	-0.000068	-0.021566	
 3041	    0	19.045065	14.782966	-11.549209	-2.324959	0.277934	-4.865093	0.193787	0.141785	-0.117432	0.999635	-0.011623	0.001390	-0.024323	
 3042	    0	21.052538	-7.862778	-7.093946	-3.063958	0.373886	-4.448099	0.208560	-0.084359	-0.070067	0.999633	-0.015318	0.001869	-0.022238	
 3043	    0	18.908303	-5.951169	-3.711805	-2.417079	0.342599	-4.651414	0.187561	-0.064331	-0.036682	0.999655	-0.012084	0.001713	-0.023254	
 3044	    0	17.434147	-1.410922	-4.244408	-2.054659	0.286901	-5.035832	0.173844	-0.018928	-0.042516	0.999629	-0.010272	0.001434	-0.025176	
 3045	    0	19.845989	-0.398025	-6.158021	-2.366214	0.407659	-5.345156	0.198120	-0.010010	-0.061890	0.999570	-0.011829	0.002038	-0.026722	
 3046	    0	22.296755	-3.709094	-6.875627	-3.030698	0.599577	-5.429579	0.221626	-0.044163	-0.068789	0.999512	-0.015151	0.002997	-0.027143	
 3047	    0	22.573173	-8.246080	-6.228164	-3.477895	0.731787	-5.413238	0.223145	-0.089600	-0.061584	0.999475	-0.017386	0.003658	-0.027061	
 3048	    0	21.999250	-10.885162	-5.158981	-3.496025	0.861320	-5.424504	0.216698	-0.115649	-0.050546	0.999470	-0.017477	0.004306	-0.027118	
 3049	    0	21.643875	-11.051803	-3.806889	-3.227609	0.949263	-5.547543	0.213074	-0.117065	-0.037231	0.999474	-0.016135	0.004745	-0.027733	
 3050	    0	21.835740	-10.894710	-2.108258	-2.862097	1.049417	-5.728010	0.215004	-0.115435	-0.020596	0.999474	-0.014308	0.005246	-0.028635	
 3051	    0	21.877755	-10.678277	-1.505756	-2.296847	0.970818	-5.956540	0.215393	-0.113403	-0.014832	0.999478	-0.011482	0.004853	-0.029778	
 3052	    0	21.557831	-11.595709	-0.805375	-1.721472	0.821629	-5.960674	0.211962	-0.122379	-0.007895	0.999510	-0.008606	0.004107	-0.029799	
 3053	    0	21.277010	-12.317904	0.387100	-1.072663	0.673777	-5.872465	0.209045	-0.129333	0.003845	0.999548	-0.005363	0.003368	-0.029358	
 3054	    0	20.247476	-11.899613	1.146049	-0.350810	0.467937	-5.721308	0.198988	-0.124702	0.011208	0.999586	-0.001754	0.002339	-0.028603	
 3055	    0	18.301780	-11.157715	1.221279	0.384761	0.234252	-5.501492	0.179871	-0.116577	0.011780	0.999619	0.001924	0.001171	-0.027504	
 3056	    0	15.799110	-9.564528	0.533289	1.012539	-0.015070	-5.209771	0.155428	-0.099742	0.004847	0.999647	0.005062	-0.000075	-0.026046	
 3057	    0	13.345865	-8.352930	-0.388583	1.429326	-0.248744	-4.800155	0.131409	-0.086670	-0.004333	0.999685	0.007146	-0.001244	-0.023998	
