// Start Time: Unknown
// Update Rate: 100.0Hz
// Filter Profile: human (34.3)
// Firmware Version: 2.1.4
PacketCounter	SampleTimeFine	Acc_X	Acc_Y	Acc_Z	Gyr_X	Gyr_Y	Gyr_Z	VelInc_X	VelInc_Y	VelInc_Z	OriInc_q0	OriInc_q1	OriInc_q2	OriInc_q3	
60017	    0	14.401558	5.234556	-4.368148	-0.962846	0.023079	-1.790650	0.144470	0.050842	-0.043945	0.999948	-0.004814	0.000115	-0.008953	
60018	    0	14.106580	5.737436	-5.931637	-0.926222	0.066377	-1.589988	0.141495	0.055975	-0.059625	0.999957	-0.004631	0.000332	-0.007950	
60019	    0	14.832602	5.134410	-6.500571	-1.236742	0.151255	-1.364918	0.148621	0.049927	-0.065430	0.999957	-0.006184	0.000756	-0.006824	
60020	    0	18.448460	3.289860	-3.417989	-1.565577	0.214199	-1.202412	0.184640	0.031519	-0.034628	0.999950	-0.007828	0.001071	-0.006012	
60021	    0	20.203161	2.496852	-2.424045	-1.832617	0.195507	-1.171898	0.202148	0.023560	-0.024658	0.999940	-0.009163	0.000978	-0.005859	
60022	    0	20.806217	0.558449	0.100753	-1.832998	0.186542	-1.163124	0.208091	0.004382	0.000770	0.999940	-0.009165	0.000933	-0.005816	
60023	    0	20.393005	-1.169352	0.945868	-1.735530	0.104525	-1.242852	0.203857	-0.012878	0.009460	0.999943	-0.008677	0.000523	-0.006214	
60024	    0	20.670215	-1.047991	1.422817	-1.726947	-0.008583	-1.320293	0.206627	-0.011721	0.014335	0.999941	-0.008635	-0.000043	-0.006601	
60025	    0	19.106673	-1.247670	1.812172	-2.021074	-0.058557	-1.252776	0.190979	-0.013489	0.018311	0.999928	-0.010105	-0.000293	-0.006264	
60026	    0	16.596137	-1.844074	0.758141	-2.298991	-0.064279	-1.177439	0.165847	-0.019328	0.007854	0.999916	-0.011495	-0.000321	-0.005887	
60027	    0	15.020263	-4.563115	0.578213	-2.485732	-0.071528	-1.028473	0.149963	-0.046326	0.006409	0.999909	-0.012428	-0.000358	-0.005142	
60028	    0	12.987158	-5.373169	-0.271342	-2.185302	-0.074007	-1.028086	0.129594	-0.054423	-0.002073	0.999927	-0.010926	-0.000370	-0.005140	
60029	    0	12.677197	-4.084207	0.323151	-1.786839	-0.000572	-1.190971	0.126526	-0.041565	0.003601	0.999942	-0.008934	-0.000003	-0.005955	
60030	    0	10.811146	-5.153680	-0.386855	-1.443693	0.029946	-1.168840	0.107807	-0.052194	-0.003510	0.999956	-0.007218	0.000150	-0.005844	
60031	    0	9.065292	-5.050199	-1.773622	-0.952921	0.052071	-1.242078	0.090332	-0.051147	-0.017517	0.999969	-0.004765	0.000260	-0.006210	
60032	    0	8.598746	-5.554835	-1.631970	-0.734718	0.160410	-1.294339	0.085612	-0.056163	-0.016183	0.999971	-0.003674	0.000802	-0.006472	
60033	    0	8.367444	-7.507957	-1.518039	-0.389102	0.247385	-1.232156	0.083191	-0.075623	-0.015137	0.999978	-0.001945	0.001237	-0.006161	
60034	    0	8.877036	-6.811389	-2.519043	0.176622	0.298693	-1.388752	0.088257	-0.068706	-0.025383	0.999974	0.000883	0.001493	-0.006944	
60035	    0	9.324963	-5.306965	-3.616091	0.574693	0.396734	-1.737239	0.092712	-0.053772	-0.036499	0.999956	0.002873	0.001984	-0.008686	
60036	    0	10.087947	-1.740308	-3.848849	1.002721	0.437558	-2.324359	0.100585	-0.018379	-0.038799	0.999917	0.005013	0.002188	-0.011621	
60037	    0	11.636590	6.440897	-7.741057	1.403124	0.313013	-3.354831	0.117310	0.062988	-0.077148	0.999833	0.007015	0.001565	-0.016773	
60038	    0	11.941935	4.877709	-8.062855	0.674098	0.288790	-3.736340	0.120190	0.046808	-0.080642	0.999818	0.003370	0.001444	-0.018681	
60039	    0	13.425048	-2.853400	-4.967886	0.287643	0.214588	-3.526491	0.133667	-0.030823	-0.049866	0.999843	0.001438	0.001073	-0.017632	
60040	    0	14.791981	-7.584869	-3.266618	0.025751	0.143440	-3.495776	0.146541	-0.078414	-0.032782	0.999846	0.000129	0.000717	-0.017478	
60041	    0	14.081349	-8.908647	-2.397752	-0.297371	0.119025	-3.478418	0.139221	-0.091553	-0.023926	0.999847	-0.001487	0.000595	-0.017391	
60042	    0	13.103118	-7.947385	-1.641710	-0.608856	0.062946	-3.400400	0.129649	-0.081736	-0.016212	0.999850	-0.003044	0.000315	-0.017001	
60043	    0	13.690548	-7.707794	-1.349603	-0.757634	0.068096	-3.259429	0.135620	-0.079346	-0.013245	0.999860	-0.003788	0.000340	-0.016296	
60044	    0	15.845074	-8.699463	-1.890499	-0.643946	0.126844	-2.966995	0.157125	-0.089393	-0.018720	0.999884	-0.003220	0.000634	-0.014834	
60045	    0	17.375385	-7.815221	-3.380726	-0.382244	0.183302	-2.645190	0.172668	-0.080505	-0.033813	0.999909	-0.001911	0.000916	-0.013226	
60046	    0	15.743665	-5.989744	-3.918996	-0.380333	0.166706	-2.210091	0.156729	-0.061707	-0.039205	0.999936	-0.001902	0.000834	-0.011050	
60047	    0	12.104047	-3.780533	-2.957493	-0.489052	0.100137	-1.860838	0.120667	-0.039001	-0.029541	0.999953	-0.002445	0.000501	-0.009304	
60048	    0	9.436848	-1.947426	-2.121079	-0.433926	0.045014	-1.401151	0.094224	-0.020181	-0.021189	0.999972	-0.002170	0.000225	-0.007006	
60049	    0	8.180368	-1.665759	-1.299518	-0.361444	0.087738	-0.850681	0.081726	-0.017029	-0.013000	0.999989	-0.001807	0.000439	-0.004253	
60050	    0	7.716857	-2.595977	-0.353582	-0.205040	0.154305	-0.265503	0.077131	-0.026066	-0.003569	0.999998	-0.001025	0.000772	-0.001328	
60051	    0	7.342573	-3.528071	0.093478	0.119782	0.161171	0.340271	0.073486	-0.035156	0.000854	0.999997	0.000599	0.000806	0.001701	
60052	    0	7.110557	-3.129973	-0.412635	0.469210	0.122643	0.958447	0.071252	-0.030949	-0.004243	0.999985	0.002346	0.000613	0.004792	
60053	    0	6.933959	-1.607389	-0.722270	0.617988	0.152780	1.580067	0.069458	-0.015503	-0.007324	0.999963	0.003090	0.000764	0.007900	
60054	    0	6.643811	-0.529550	-1.060706	0.706116	0.160602	2.173090	0.066482	-0.004536	-0.010677	0.999934	0.003531	0.000803	0.010865	
60055	    0	6.683939	-0.102593	-1.177627	0.821142	0.188453	2.742098	0.066833	-0.000061	-0.011841	0.999897	0.004106	0.000942	0.013710	
60056	    0	6.978593	-0.066097	-1.298731	0.893636	0.225460	3.282897	0.069769	0.000543	-0.013065	0.999854	0.004468	0.001127	0.016414	
60057	    0	7.179062	-0.396287	-0.758459	0.981394	0.253312	3.792053	0.071838	-0.002563	-0.007690	0.999807	0.004907	0.001266	0.018959	
60058	    0	7.557037	-0.441590	-0.223666	1.140880	0.274490	4.311920	0.075639	-0.002772	-0.002359	0.999750	0.005704	0.001372	0.021558	
60059	    0	8.223209	0.173589	-0.317578	1.252875	0.338971	4.786410	0.082153	0.003723	-0.003296	0.999692	0.006264	0.001695	0.023930	
60060	    0	8.581798	1.093688	-0.810746	1.138823	0.392389	5.218748	0.085477	0.013217	-0.008204	0.999641	0.005693	0.001962	0.026091	
60061	    0	8.831358	1.603271	-1.752132	0.854611	0.440468	5.702241	0.087769	0.018616	-0.017639	0.999581	0.004272	0.002202	0.028507	
60062	    0	8.812258	1.340389	-2.233283	0.364934	0.544253	6.149318	0.087593	0.016144	-0.022544	0.999521	0.001824	0.002721	0.030742	
60063	    0	8.952779	0.324558	-2.269987	-0.002098	0.557809	6.531931	0.089294	0.006165	-0.022949	0.999462	-0.000010	0.002789	0.032654	
60064	    0	10.055265	-0.390867	-2.526477	-0.092334	0.473689	6.890331	0.100548	-0.000456	-0.025502	0.999403	-0.000462	0.002368	0.034445	
60065	    0	11.678697	-0.508980	-2.701468	-0.139457	0.357133	7.178517	0.116821	-0.000916	-0.027222	0.999353	-0.000697	0.001785	0.035885	
60066	    0	13.156242	-0.376823	-2.761121	-0.197647	0.168267	7.452212	0.131558	0.001107	-0.027721	0.999305	-0.000988	0.000841	0.037252	
60067	    0	14.673638	-0.317937	-3.015801	-0.224169	-0.093102	7.706071	0.146729	0.002441	-0.030090	0.999256	-0.001121	-0.000465	0.038521	
60068	    0	16.906096	0.384255	-3.842307	-0.120957	-0.408470	7.903827	0.168812	0.010495	-0.038083	0.999216	-0.000605	-0.002042	0.039509	
60069	    0	19.356065	2.546943	-4.152846	-0.041019	-0.791379	7.964162	0.192505	0.033142	-0.040771	0.999199	-0.000205	-0.003956	0.039810	
60070	    0	20.745497	4.680418	-4.045686	0.066393	-1.219499	7.857867	0.205645	0.054922	-0.039182	0.999209	0.000332	-0.006096	0.039279	
60071	    0	21.060624	6.359935	-4.046016	0.475430	-1.588645	7.557274	0.208313	0.071594	-0.038635	0.999251	0.002377	-0.007941	0.037777	
60072	    0	21.722293	9.491400	-3.431327	1.104028	-1.747520	7.003242	0.214005	0.102627	-0.031881	0.999333	0.005519	-0.008736	0.035008	
60073	    0	23.925863	14.927029	-1.006046	1.368966	-1.526733	6.331277	0.234436	0.156799	-0.007202	0.999446	0.006844	-0.007632	0.031651	
60074	    0	22.337776	17.910092	0.020641	1.241480	-1.211340	5.601541	0.218235	0.185250	0.002676	0.999570	0.006207	-0.006056	0.028004	
60075	    0	17.873458	20.467116	-3.619553	1.265273	-1.008708	4.661270	0.174072	0.208984	-0.033997	0.999695	0.006326	-0.005043	0.023304	
60076	    0	15.373987	24.744345	-5.975716	1.126737	-0.851872	3.475393	0.149654	0.250397	-0.057709	0.999824	0.005633	-0.004259	0.017376	
60077	    0	10.909704	26.760410	-3.879340	1.246678	-0.815415	2.134002	0.106384	0.268982	-0.036682	0.999915	0.006233	-0.004077	0.010670	
60078	    0	8.926723	28.824516	-0.799446	1.462191	-0.671776	0.556762	0.088486	0.288539	-0.005588	0.999963	0.007311	-0.003359	0.002784	
60079	    0	9.635937	30.338945	0.390903	1.234449	-0.414853	-0.903330	0.097717	0.302917	0.005981	0.999969	0.006172	-0.002074	-0.004517	
60080	    0	9.231619	28.710943	-0.072802	0.755324	-0.238614	-1.975669	0.095146	0.286179	0.000466	0.999943	0.003777	-0.001193	-0.009878	
60081	    0	10.807115	22.568049	-0.441473	0.332843	-0.133519	-2.733699	0.111145	0.224182	-0.003967	0.999905	0.001664	-0.000668	-0.013668	
60082	    0	10.195100	16.653211	0.185653	0.615724	-0.234234	-3.440461	0.104793	0.164739	0.002487	0.999846	0.003078	-0.001171	-0.017201	
60083	    0	9.323945	16.675993	0.261256	1.835792	-0.424041	-4.169065	0.096680	0.164734	0.004333	0.999738	0.009178	-0.002120	-0.020844	
60084	    0	10.550025	11.232067	-12.078821	1.606363	-0.760357	-4.946706	0.108706	0.110621	-0.119486	0.999654	0.008031	-0.003801	-0.024731	
60085	    0	10.281831	-14.231129	-18.303621	0.525132	-0.727135	-4.127046	0.100525	-0.143921	-0.183044	0.999777	0.002625	-0.003635	-0.020634	
60086	    0	26.681283	-5.816968	-9.395893	1.172171	-0.583892	-4.448717	0.265713	-0.063540	-0.093544	0.999731	0.005860	-0.002919	-0.022242	
60087	    0	48.143677	32.117432	-1.203055	1.201139	-1.114716	-7.190045	0.492615	0.303650	-0.007446	0.999320	0.006004	-0.005572	-0.035942	
60088	    0	31.174032	16.150316	3.697609	-1.121370	-1.363844	-6.801479	0.316737	0.150999	0.038259	0.999382	-0.005606	-0.006818	-0.034000	
60089	    0	11.614756	10.036146	7.227296	-1.995237	-0.929419	-6.013753	0.118774	0.097534	0.071838	0.999487	-0.009974	-0.004646	-0.030064	
60090	    0	-1.951315	1.627718	-4.254869	-0.340118	-1.401865	-4.940006	-0.018806	0.016675	-0.042710	0.999668	-0.001700	-0.007009	-0.024697	
60091	    0	-2.572303	10.710583	-5.592778	-0.206585	-0.951476	-4.666580	-0.022949	0.107605	-0.056152	0.999716	-0.001033	-0.004757	-0.023331	
60092	    0	4.764410	11.846365	-3.095245	-0.195899	-0.660754	-4.156611	0.050194	0.117408	-0.030905	0.999778	-0.000979	-0.003304	-0.020782	
60093	    0	10.827671	8.834607	-1.700177	-0.487352	-0.338762	-3.437980	0.109802	0.086426	-0.017029	0.999847	-0.002437	-0.001694	-0.017189	
60094	    0	12.792465	7.099229	-1.553283	-0.454537	-0.208480	-2.850251	0.128935	0.069124	-0.015557	0.999895	-0.002273	-0.001042	-0.014251	
60095	    0	14.382944	9.637065	-5.109545	-0.942831	0.043489	-2.529221	0.145020	0.094299	-0.051575	0.999908	-0.004714	0.000217	-0.012646	
60096	    0	14.578369	8.413163	-6.384393	-1.641321	0.205237	-2.048361	0.146565	0.082105	-0.064673	0.999913	-0.008206	0.001026	-0.010242	
60097	    0	15.175251	6.143420	-5.099023	-1.518283	0.166515	-1.697577	0.152222	0.059753	-0.051575	0.999934	-0.007591	0.000833	-0.008488	
60098	    0	13.869235	5.381524	-5.242012	-1.429200	0.219539	-1.359390	0.138994	0.052494	-0.052951	0.999950	-0.007146	0.001098	-0.006797	
60099	    0	13.991297	3.927454	-4.828077	-1.372547	0.229839	-1.134506	0.140076	0.038147	-0.048706	0.999959	-0.006863	0.001149	-0.005672	
60100	    0	16.176000	5.824550	-6.340517	-1.651981	0.213627	-1.054209	0.161994	0.056865	-0.064052	0.999951	-0.008260	0.001068	-0.005271	
60101	    0	20.580253	2.302041	-1.717674	-1.902043	0.302320	-0.856034	0.205872	0.021973	-0.017700	0.999944	-0.009510	0.001512	-0.004280	
60102	    0	21.888114	0.590296	-0.059836	-2.099082	0.233655	-0.807589	0.218902	0.005011	-0.000910	0.999935	-0.010495	0.001168	-0.004038	
60103	    0	22.862401	0.170441	1.891784	-2.032511	0.093271	-0.804154	0.228638	0.000977	0.018799	0.999940	-0.010162	0.000466	-0.004021	
60104	    0	21.695701	0.097040	2.388936	-2.246910	0.005531	-0.823613	0.216960	0.000345	0.023877	0.999928	-0.011234	0.000028	-0.004118	
60105	    0	19.187812	-2.913574	3.271815	-2.526165	0.007820	-0.729391	0.191772	-0.029419	0.033081	0.999913	-0.012630	0.000039	-0.003647	
60106	    0	16.571718	-2.919696	2.620657	-2.464934	0.028802	-0.688953	0.165620	-0.029442	0.026545	0.999918	-0.012324	0.000144	-0.003445	
60107	    0	15.539739	-4.151430	2.147462	-2.381767	0.076296	-0.634782	0.155273	-0.041748	0.021912	0.999924	-0.011909	0.000381	-0.003174	
60108	    0	13.013019	-5.220430	0.130795	-2.113766	0.053979	-0.603116	0.129972	-0.052579	0.001827	0.999939	-0.010569	0.000270	-0.003016	
60109	    0	11.891924	-6.391735	0.341812	-1.663039	0.076295	-0.646218	0.118713	-0.064270	0.003906	0.999960	-0.008315	0.000381	-0.003231	
60110	    0	9.491440	-3.994310	-0.983382	-1.107797	0.060654	-0.791174	0.094752	-0.040372	-0.009640	0.999976	-0.005539	0.000303	-0.003956	
60111	    0	7.494210	-3.780486	-2.408368	-0.699619	0.097085	-0.852971	0.074768	-0.038208	-0.023987	0.999984	-0.003498	0.000485	-0.004265	
60112	    0	6.734649	-5.481624	-2.051351	-0.204469	0.207330	-0.885967	0.067081	-0.055135	-0.020527	0.999989	-0.001022	0.001037	-0.004430	
60113	    0	7.041859	-5.259718	-1.497336	0.426485	0.318338	-1.004034	0.070129	-0.052917	-0.015198	0.999984	0.002132	0.001592	-0.005020	
60114	    0	8.102787	-2.802317	-2.043889	0.898562	0.428967	-1.296630	0.080800	-0.028455	-0.020740	0.999966	0.004493	0.002145	-0.006483	
60115	    0	9.185287	-0.339488	-2.840460	0.911920	0.576030	-1.797518	0.091736	-0.004089	-0.028687	0.999945	0.004560	0.002880	-0.008987	
60116	    0	10.290336	3.247223	-3.954388	1.279492	0.507944	-2.449688	0.103192	0.031463	-0.039602	0.999901	0.006397	0.002540	-0.012248	
60117	    0	10.835419	9.006543	-9.391368	1.252052	0.387785	-3.379244	0.109680	0.088806	-0.093567	0.999835	0.006260	0.001939	-0.016895	
60118	    0	11.667410	4.076825	-8.284364	0.382063	0.535041	-3.595934	0.117162	0.038823	-0.083081	0.999832	0.001910	0.002675	-0.017979	
60119	    0	13.881650	-3.513959	-5.202889	-0.145539	0.529510	-3.676817	0.138000	-0.037720	-0.052368	0.999826	-0.000728	0.002647	-0.018383	
60120	    0	14.779531	-8.772633	-3.480936	-0.281734	0.457031	-3.932066	0.145952	-0.090657	-0.035018	0.999803	-0.001409	0.002285	-0.019659	
60121	    0	13.920007	-9.008596	-2.542030	-0.399618	0.400572	-4.088883	0.137268	-0.092957	-0.025513	0.999786	-0.001998	0.002003	-0.020443	
60122	    0	13.581070	-7.082458	-1.881385	-0.516359	0.284789	-4.230249	0.134245	-0.073724	-0.018818	0.999771	-0.002582	0.001424	-0.021150	
60123	    0	13.698653	-4.732168	-1.616837	-1.013073	0.196091	-4.240754	0.135925	-0.050293	-0.016052	0.999762	-0.005065	0.000980	-0.021202	
60124	    0	13.513911	-4.317705	-1.390124	-1.575983	0.174918	-4.180303	0.134184	-0.046097	-0.013663	0.999750	-0.007879	0.000875	-0.020900	
60125	    0	13.368185	-5.228688	-1.523675	-1.754141	0.197045	-4.056117	0.132568	-0.055115	-0.014893	0.999755	-0.008770	0.000985	-0.020279	
60126	    0	13.996850	-5.269953	-2.297901	-1.483832	0.222603	-3.846060	0.138893	-0.055547	-0.022729	0.999786	-0.007419	0.001113	-0.019229	
60127	    0	15.122365	-4.571918	-2.874845	-1.097935	0.264946	-3.594420	0.150330	-0.048584	-0.028687	0.999822	-0.005489	0.001325	-0.017971	
60128	    0	15.891534	-3.228623	-2.955365	-0.772704	0.305572	-3.311890	0.158305	-0.035026	-0.029664	0.999854	-0.003863	0.001528	-0.016559	
60129	    0	15.272057	-2.508239	-2.790148	-0.517865	0.319684	-2.951924	0.152283	-0.027405	-0.028076	0.999886	-0.002589	0.001598	-0.014759	
60130	    0	13.427770	-2.980446	-2.096561	-0.287254	0.281150	-2.451006	0.133869	-0.031477	-0.021110	0.999923	-0.001436	0.001406	-0.012255	
60131	    0	11.763831	-3.200373	-0.820478	0.028229	0.259594	-1.940949	0.117310	-0.033142	-0.008362	0.999951	0.000141	0.001298	-0.009705	
60132	    0	10.321231	-3.299950	-0.244553	0.578886	0.216677	-1.401724	0.102975	-0.033714	-0.002654	0.999970	0.002894	0.001083	-0.007009	
60133	    0	8.836717	-2.638778	-0.241224	1.078042	0.155832	-0.814063	0.088257	-0.026733	-0.002625	0.999976	0.005390	0.000779	-0.004070	
60134	    0	7.537590	-1.133054	-0.615052	1.294718	0.171281	-0.180818	0.075360	-0.011358	-0.006289	0.999978	0.006474	0.000856	-0.000904	
60135	    0	6.264128	0.145467	-1.379787	1.300060	0.216104	0.524907	0.062622	0.001709	-0.013855	0.999974	0.006500	0.001081	0.002625	
60136	    0	5.031754	1.040570	-2.230350	1.201645	0.301937	1.272600	0.050216	0.010859	-0.022315	0.999960	0.006008	0.001510	0.006363	
60137	    0	3.751996	1.725008	-2.687374	1.018546	0.381669	2.003522	0.037292	0.017761	-0.026855	0.999934	0.005093	0.001908	0.010017	
60138	    0	2.818478	1.577599	-2.691599	0.799969	0.490968	2.696320	0.027902	0.016261	-0.026920	0.999898	0.004000	0.002455	0.013481	
60139	    0	2.833298	1.116126	-2.266971	0.731887	0.550870	3.369312	0.028076	0.011719	-0.022705	0.999847	0.003659	0.002754	0.016846	
60140	    0	3.695436	0.757639	-2.011131	0.723699	0.588458	4.000754	0.036733	0.008386	-0.020190	0.999788	0.003618	0.002942	0.020002	
60141	    0	4.686641	0.943341	-2.155757	0.541736	0.589233	4.572707	0.046570	0.010559	-0.021667	0.999730	0.002708	0.002946	0.022861	
60142	    0	5.010504	0.986981	-2.192219	0.168819	0.563684	5.132292	0.049767	0.011168	-0.022054	0.999666	0.000844	0.002818	0.025659	
60143	    0	4.950048	0.577897	-2.557948	-0.155660	0.450384	5.602239	0.049255	0.007141	-0.025696	0.999604	-0.000778	0.002252	0.028008	
60144	    0	5.407223	0.396865	-3.029265	-0.443335	0.311899	6.025279	0.053874	0.005527	-0.030388	0.999542	-0.002216	0.001559	0.030122	
60145	    0	6.255298	0.330801	-3.135815	-0.766124	0.184091	6.406752	0.062378	0.005188	-0.031433	0.999478	-0.003830	0.000920	0.032028	
60146	    0	6.999087	-0.278561	-2.623428	-0.995446	-0.002289	6.729661	0.070035	-0.000560	-0.026227	0.999421	-0.004976	-0.000011	0.033642	
60147	    0	7.898393	-1.322782	-2.053062	-0.941662	-0.229501	6.975471	0.079407	-0.010559	-0.020386	0.999379	-0.004707	-0.001147	0.034870	
60148	    0	9.087588	-1.513409	-1.665447	-0.583774	-0.593122	7.140934	0.091389	-0.011925	-0.016346	0.999353	-0.002918	-0.002965	0.035697	
60149	    0	10.510472	-1.071652	-1.489465	-0.243242	-0.911918	7.283894	0.105469	-0.006897	-0.014404	0.999325	-0.001216	-0.004559	0.036411	
60150	    0	12.102083	-0.390649	-1.156947	-0.007631	-1.175587	7.455306	0.121119	0.000607	-0.010858	0.999288	-0.000038	-0.005877	0.037268	
60151	    0	13.988991	0.548327	-0.669215	0.096345	-1.360660	7.611454	0.139587	0.010803	-0.005737	0.999252	0.000482	-0.006802	0.038048	
60152	    0	15.840483	1.099505	-0.461495	0.184679	-1.544016	7.713400	0.157853	0.017095	-0.003381	0.999226	0.000923	-0.007718	0.038557	
60153	    0	18.439925	2.101746	-0.218510	0.293809	-1.672611	7.746628	0.183411	0.028137	-0.000610	0.999213	0.001469	-0.008361	0.038723	
60154	    0	20.254257	2.928215	0.980192	0.506913	-1.705035	7.643754	0.201134	0.036961	0.011608	0.999229	0.002534	-0.008523	0.038209	
60155	    0	22.021642	5.043781	1.527508	1.172352	-1.694903	7.377902	0.218018	0.058411	0.017456	0.999266	0.005860	-0.008472	0.036880	
60156	    0	24.758199	8.895767	2.294780	1.631905	-1.260844	6.962208	0.244137	0.097298	0.025266	0.999340	0.008158	-0.006303	0.034803	
60157	    0	24.581329	10.371294	1.614002	2.205324	-0.847600	6.415281	0.242249	0.111328	0.018372	0.999415	0.011024	-0.004237	0.032070	
60158	    0	21.662840	13.208405	-3.743913	2.967578	-0.775279	5.617147	0.212934	0.138627	-0.034584	0.999488	0.014835	-0.003876	0.028081	
60159	    0	17.108515	19.624299	-9.235129	3.253791	-0.858419	4.483619	0.166992	0.201477	-0.088379	0.999607	0.016267	-0.004292	0.022415	
60160	    0	14.078508	27.978214	-8.171167	2.913904	-0.966151	3.197932	0.136655	0.283134	-0.076936	0.999754	0.014568	-0.004830	0.015988	
60161	    0	11.856740	33.747782	-2.505791	2.050855	-0.911555	1.886054	0.115479	0.338806	-0.021057	0.999892	0.010254	-0.004558	0.009430	
60162	    0	12.292802	34.960898	-0.007724	0.898367	-0.584034	0.649647	0.121788	0.350000	0.001851	0.999980	0.004492	-0.002920	0.003248	
60163	    0	9.803866	29.784703	-1.943907	0.115967	-0.205803	-0.508881	0.098816	0.297607	-0.019165	0.999995	0.000580	-0.001029	-0.002544	
60164	    0	8.296765	22.897729	-3.051987	0.195315	-0.166132	-1.666470	0.084897	0.228305	-0.030227	0.999964	0.000977	-0.000831	-0.008332	
60165	    0	9.362922	16.459743	-2.829607	0.841743	-0.296031	-2.780250	0.095947	0.163391	-0.027466	0.999893	0.004209	-0.001480	-0.013901	
60166	    0	8.907692	13.603918	-3.253827	1.590457	-0.477633	-3.708713	0.091658	0.134607	-0.031247	0.999793	0.007952	-0.002388	-0.018542	
60167	    0	8.815969	19.985970	-2.304311	2.179372	-0.544795	-4.462897	0.092651	0.198059	-0.020630	0.999687	0.010896	-0.002724	-0.022312	
60168	    0	7.311304	5.255220	-17.279781	0.482219	-0.797531	-4.454234	0.074953	0.051312	-0.172377	0.999741	0.002411	-0.003987	-0.022269	
60169	    0	10.554180	-12.049468	-26.699141	-0.847672	-0.916913	-3.409764	0.104675	-0.123413	-0.265991	0.999835	-0.004238	-0.004584	-0.017048	
60170	    0	42.915749	14.676092	-7.794954	1.142637	-0.577232	-5.174868	0.432991	0.136027	-0.075906	0.999644	0.005713	-0.002886	-0.025871	
60171	    0	54.247719	40.523106	2.214070	0.129737	-1.326184	-8.253594	0.558411	0.382385	0.026062	0.999125	0.000648	-0.006629	-0.041256	
60172	    0	29.639285	9.744042	12.084757	-3.735296	-0.330051	-6.607691	0.299247	0.089826	0.119615	0.999278	-0.018672	-0.001650	-0.033031	
60173	    0	-2.305827	-13.953168	7.668947	-0.375975	-1.320014	-4.645229	-0.026794	-0.138794	0.076782	0.999706	-0.001880	-0.006599	-0.023224	
60174	    0	-1.918909	7.815697	-8.633647	1.044780	-0.847155	-5.181359	-0.016784	0.079062	-0.085999	0.999641	0.005223	-0.004235	-0.025904	
60175	    0	1.802750	18.784578	-2.667304	0.323519	-0.601828	-4.838280	0.022644	0.187378	-0.026306	0.999701	0.001617	-0.003009	-0.024189	
60176	    0	9.090400	8.979049	-4.772322	-0.860270	-0.295086	-3.850616	0.092678	0.087811	-0.047968	0.999804	-0.004301	-0.001475	-0.019252	
60177	    0	10.926587	4.918448	-2.001767	-0.744470	-0.433368	-3.070961	0.110046	0.047424	-0.019958	0.999872	-0.003722	-0.002167	-0.015354	
60178	    0	10.901676	11.431296	-2.347127	-0.741031	-0.329792	-2.773763	0.110626	0.112699	-0.023709	0.999895	-0.003705	-0.001649	-0.013868	
60179	    0	12.276829	9.962249	-2.968395	-1.376955	-0.144200	-2.255315	0.123901	0.098022	-0.030273	0.999912	-0.006885	-0.000721	-0.011276	
60180	    0	14.314197	6.562351	-4.787174	-1.453813	-0.050546	-1.794092	0.143733	0.063986	-0.048305	0.999933	-0.007269	-0.000253	-0.008970	
60181	    0	15.143560	6.142581	-5.578385	-1.262496	-0.016785	-1.577023	0.151917	0.059875	-0.056152	0.999949	-0.006312	-0.000084	-0.007885	
60182	    0	14.634450	5.152522	-6.891615	-1.454950	0.020600	-1.378655	0.146686	0.050012	-0.069299	0.999949	-0.007275	0.000103	-0.006893	
60183	    0	16.194780	3.130013	-5.101586	-1.721223	0.065805	-1.174948	0.162109	0.029907	-0.051331	0.999946	-0.008606	0.000329	-0.005875	
60184	    0	19.793670	3.578907	-2.338190	-1.856268	0.131419	-1.095984	0.198112	0.034484	-0.023836	0.999941	-0.009281	0.000657	-0.005480	
60185	    0	20.149527	2.246800	-0.849560	-2.094888	0.125888	-1.006340	0.201599	0.021362	-0.008850	0.999931	-0.010474	0.000629	-0.005032	
60186	    0	19.846586	0.157739	0.877593	-2.115680	0.160984	-1.016831	0.198478	0.000660	0.008606	0.999930	-0.010578	0.000805	-0.005084	
60187	    0	19.655974	-1.757966	0.773758	-2.035376	0.112155	-1.010917	0.196472	-0.018494	0.007812	0.999935	-0.010177	0.000561	-0.005054	
60188	    0	20.134128	-0.671618	1.437960	-1.944583	0.057222	-1.135278	0.201303	-0.007719	0.014394	0.999936	-0.009723	0.000286	-0.005676	
60189	    0	17.817838	-1.327073	1.349837	-2.063609	0.034333	-1.155880	0.178101	-0.014160	0.013611	0.999929	-0.010318	0.000172	-0.005779	
60190	    0	15.815586	-3.666023	1.534413	-2.160506	0.074579	-1.056506	0.157966	-0.037327	0.015686	0.999928	-0.010802	0.000373	-0.005282	
60191	    0	13.836776	-3.783721	0.526237	-2.129222	0.078585	-0.974296	0.138184	-0.038452	0.005615	0.999931	-0.010646	0.000393	-0.004871	
60192	    0	13.407760	-5.004795	1.460231	-1.949921	0.126269	-0.955601	0.133846	-0.050543	0.015009	0.999940	-0.009749	0.000631	-0.004778	
60193	    0	11.861546	-4.313287	1.063220	-1.647784	0.212863	-1.006333	0.118408	-0.043640	0.010864	0.999952	-0.008239	0.001064	-0.005032	
60194	    0	9.780420	-4.639329	-1.314079	-1.325814	0.279430	-1.003277	0.097551	-0.046969	-0.012967	0.999964	-0.006629	0.001397	-0.005016	
60195	    0	8.691778	-6.321422	-2.427557	-1.027498	0.369266	-1.023111	0.086548	-0.063782	-0.024109	0.999971	-0.005137	0.001846	-0.005116	
60196	    0	9.029519	-7.361050	-2.608882	-0.427249	0.452617	-1.045424	0.089849	-0.074137	-0.026134	0.999981	-0.002136	0.002263	-0.005227	
60197	    0	10.017753	-8.064857	-3.426496	0.391582	0.489811	-1.194009	0.099609	-0.081177	-0.034668	0.999977	0.001958	0.002449	-0.005970	
60198	    0	10.970827	-7.839488	-3.452955	1.005760	0.444228	-1.512359	0.109035	-0.079045	-0.035169	0.999956	0.005029	0.002221	-0.007562	
60199	    0	10.056336	-5.142174	-4.070483	1.552820	0.424970	-2.162236	0.099915	-0.052185	-0.041321	0.999908	0.007764	0.002125	-0.010811	
60200	    0	10.184288	-0.175518	-4.332780	2.250609	0.206005	-2.922797	0.101763	-0.002754	-0.043460	0.999829	0.011252	0.001030	-0.014613	
60201	    0	10.953901	8.045776	-9.306491	2.299126	-0.083931	-3.931767	0.111145	0.079346	-0.092102	0.999741	0.011495	-0.000420	-0.019657	
60202	    0	11.820491	3.629534	-7.743683	1.284883	-0.098426	-3.973487	0.118939	0.034433	-0.077153	0.999782	0.006424	-0.000492	-0.019866	
60203	    0	14.118199	-3.700171	-4.755952	0.462559	-0.145730	-3.692077	0.140503	-0.039490	-0.047546	0.999826	0.002313	-0.000729	-0.018459	
60204	    0	15.084061	-7.628707	-3.294676	-0.145157	-0.204479	-3.640186	0.149452	-0.079040	-0.032737	0.999833	-0.000726	-0.001022	-0.018200	
60205	    0	14.448789	-8.813547	-2.613340	-0.546105	-0.267807	-3.645532	0.142883	-0.090820	-0.025696	0.999828	-0.002730	-0.001339	-0.018227	
60206	    0	14.070690	-8.138468	-2.711788	-0.839281	-0.330753	-3.595558	0.139256	-0.084009	-0.026538	0.999827	-0.004196	-0.001654	-0.017977	
60207	    0	15.155369	-7.271099	-3.119046	-1.018388	-0.308244	-3.412047	0.150330	-0.075439	-0.030579	0.999840	-0.005092	-0.001541	-0.017059	
60208	    0	16.547991	-7.240823	-3.716848	-1.071025	-0.233852	-3.131819	0.164360	-0.075185	-0.036578	0.999862	-0.005355	-0.001169	-0.015658	
60209	    0	16.160144	-6.894195	-3.879624	-1.121373	-0.163275	-2.800094	0.160645	-0.071411	-0.038269	0.999886	-0.005607	-0.000816	-0.014000	
60210	    0	13.606215	-5.603039	-3.723365	-1.068145	-0.126270	-2.369375	0.135407	-0.057835	-0.036842	0.999915	-0.005341	-0.000631	-0.011847	
60211	    0	10.883983	-3.939074	-2.843978	-1.002522	-0.073816	-1.944772	0.108459	-0.040588	-0.028198	0.999940	-0.005013	-0.000369	-0.009724	
60212	    0	9.670624	-1.813193	-1.493556	-0.976766	0.030518	-1.466961	0.096567	-0.018913	-0.014859	0.999961	-0.004884	0.000153	-0.007335	
60213	    0	8.623845	-1.068498	-0.833154	-0.887114	0.183107	-0.896460	0.086182	-0.011108	-0.008362	0.999979	-0.004436	0.000916	-0.004482	
60214	    0	6.978263	-1.771357	-0.549320	-0.743296	0.287820	-0.247384	0.069753	-0.017820	-0.005527	0.999990	-0.003716	0.001439	-0.001237	
60215	    0	5.903072	-2.216436	0.256027	-0.517083	0.389100	0.420381	0.059082	-0.022034	0.002502	0.999992	-0.002585	0.001945	0.002102	
60216	    0	5.647030	-1.631145	0.262216	-0.206567	0.428393	1.099975	0.056564	-0.015998	0.002518	0.999982	-0.001033	0.002142	0.005500	
60217	    0	5.693212	-0.880379	0.007755	0.105478	0.470740	1.765467	0.057007	-0.008301	-0.000061	0.999958	0.000527	0.002354	0.008827	
60218	    0	5.342713	-0.487668	-0.241566	0.420581	0.475132	2.347813	0.053473	-0.004244	-0.002552	0.999926	0.002103	0.002376	0.011739	
60219	    0	4.933419	-0.044306	-0.782884	0.741033	0.429551	2.915304	0.049316	0.000305	-0.007935	0.999884	0.003705	0.002148	0.014576	
60220	    0	4.729584	0.075492	-1.327684	1.033839	0.401519	3.438755	0.047246	0.001637	-0.013365	0.999836	0.005169	0.002007	0.017193	
60221	    0	4.917802	0.313947	-1.592472	1.294230	0.372341	3.944683	0.049072	0.004211	-0.015991	0.999783	0.006471	0.001862	0.019722	
60222	    0	5.348458	1.071621	-1.791368	1.378756	0.318175	4.440137	0.053199	0.012023	-0.017919	0.999728	0.006893	0.001591	0.022199	
60223	    0	5.911060	1.585908	-2.222678	1.226941	0.319134	4.967280	0.058655	0.017456	-0.022217	0.999671	0.006134	0.001595	0.024834	
60224	    0	6.384408	1.477729	-2.346631	0.821028	0.386287	5.457430	0.063362	0.016607	-0.023523	0.999617	0.004105	0.001931	0.027284	
60225	    0	6.867152	1.186367	-2.118199	0.350431	0.416626	5.893041	0.068237	0.013916	-0.021301	0.999561	0.001752	0.002083	0.029461	
60226	    0	7.182096	0.569601	-2.254024	-0.079549	0.404233	6.257892	0.071550	0.007929	-0.022688	0.999508	-0.000398	0.002021	0.031284	
60227	    0	7.736166	-0.359358	-2.259817	-0.311335	0.284055	6.538798	0.077393	-0.001099	-0.022705	0.999463	-0.001556	0.001420	0.032688	
60228	    0	8.969884	-0.681505	-2.302833	-0.326792	0.096149	6.818379	0.089851	-0.003791	-0.023064	0.999417	-0.001634	0.000481	0.034085	
60229	    0	10.249359	-0.498126	-2.435927	-0.275478	-0.124194	7.040336	0.102600	-0.001404	-0.024292	0.999379	-0.001377	-0.000621	0.035194	
60230	    0	11.724468	-0.054508	-2.749311	-0.180093	-0.357516	7.245127	0.117211	0.003677	-0.027286	0.999341	-0.000900	-0.001787	0.036218	
60231	    0	13.747400	0.435614	-2.793617	-0.132019	-0.603435	7.458711	0.137268	0.009460	-0.027527	0.999299	-0.000660	-0.003016	0.037285	
60232	    0	16.063756	1.066065	-3.038291	-0.085661	-0.882938	7.628026	0.160208	0.016765	-0.029681	0.999263	-0.000428	-0.004414	0.038131	
60233	    0	19.220850	2.378273	-3.290651	-0.099208	-1.170458	7.746580	0.191284	0.031189	-0.031799	0.999232	-0.000496	-0.005851	0.038723	
60234	    0	21.292175	3.314242	-2.691082	-0.133549	-1.430879	7.724078	0.211617	0.041316	-0.025419	0.999228	-0.000668	-0.007153	0.038610	
60235	    0	21.717032	4.550714	-1.548431	0.323756	-1.714744	7.461084	0.215393	0.053589	-0.013550	0.999266	0.001618	-0.008572	0.037296	
60236	    0	21.785952	8.777866	-0.255744	0.980018	-1.682266	6.962194	0.214638	0.095294	-0.000288	0.999347	0.004899	-0.008410	0.034803	
60237	    0	22.368673	12.260959	1.831210	1.345496	-1.268234	6.317516	0.219543	0.129456	0.020569	0.999458	0.006726	-0.006340	0.031582	
60238	    0	21.047102	12.413881	-0.319044	2.036783	-1.156981	5.535768	0.206937	0.129915	-0.000683	0.999548	0.010182	-0.005784	0.027675	
60239	    0	18.975072	17.999346	-5.547118	2.635695	-1.191089	4.466775	0.185974	0.184875	-0.051941	0.999645	0.013177	-0.005955	0.022331	
60240	    0	14.952484	26.150959	-5.332964	2.464474	-1.114545	3.191418	0.145602	0.264478	-0.049264	0.999781	0.012321	-0.005572	0.015956	
60241	    0	11.014243	31.078167	-1.320443	2.371314	-0.994723	1.818923	0.107361	0.311890	-0.008972	0.999875	0.011856	-0.004973	0.009094	
60242	    0	10.311347	32.716096	-0.300753	1.931606	-0.679600	0.218967	0.102757	0.327280	0.000503	0.999947	0.009658	-0.003398	0.001095	
60243	    0	10.032796	29.868544	-2.125702	1.276605	-0.369268	-1.171127	0.102112	0.298218	-0.019165	0.999960	0.006383	-0.001846	-0.005856	
60244	    0	10.691220	25.021525	-3.766265	0.827428	-0.269515	-2.236229	0.109752	0.249151	-0.036484	0.999928	0.004137	-0.001348	-0.011181	
60245	    0	10.632508	20.515581	-3.002148	0.831833	-0.333420	-3.180076	0.109619	0.203552	-0.028992	0.999863	0.004159	-0.001667	-0.015900	
60246	    0	9.518863	20.166437	-2.470987	1.638164	-0.411639	-4.085301	0.099332	0.199856	-0.022866	0.999755	0.008190	-0.002058	-0.020425	
60247	    0	12.889432	20.613779	-10.926018	1.157514	-0.620914	-5.119920	0.134460	0.203369	-0.107666	0.999650	0.005787	-0.003104	-0.025597	
60248	    0	11.833256	-4.052783	-17.903225	-0.735160	-0.665536	-4.614686	0.117940	-0.043909	-0.178482	0.999722	-0.003675	-0.003327	-0.023071	
60249	    0	18.922841	-7.890174	-18.082913	-0.221081	-0.856092	-4.468160	0.188171	-0.083313	-0.179932	0.999741	-0.001105	-0.004280	-0.022339	
60250	    0	42.110272	19.771262	-1.581637	1.137400	-0.641004	-6.975875	0.427702	0.182950	-0.013384	0.999370	0.005686	-0.003204	-0.034872	
60251	    0	37.183313	17.867913	9.067225	-0.466831	-1.069877	-7.181607	0.377441	0.165405	0.092285	0.999338	-0.002334	-0.005348	-0.035900	
60252	    0	19.368582	11.908272	12.637834	-1.622305	-0.803713	-6.365603	0.196858	0.113874	0.126227	0.999453	-0.008110	-0.004018	-0.031822	
60253	    0	1.285472	-5.484081	-1.790995	-0.254090	-1.315276	-5.216084	0.011536	-0.055176	-0.017761	0.999637	-0.001270	-0.006576	-0.026077	
60254	    0	-3.203446	9.459124	-8.209787	0.570171	-1.107341	-5.056190	-0.029172	0.095587	-0.081993	0.999660	0.002851	-0.005536	-0.025278	
60255	    0	0.084885	17.007116	-5.797740	-0.022890	-0.752135	-4.560495	0.004944	0.169983	-0.057983	0.999732	-0.000114	-0.003760	-0.022800	
60256	    0	7.418090	11.598606	-4.291187	-0.799225	-0.366041	-3.593268	0.076325	0.114455	-0.043233	0.999828	-0.003996	-0.001830	-0.017965	
60257	    0	11.060273	8.587503	0.267922	-0.916134	-0.160986	-2.866472	0.111816	0.084290	0.002380	0.999886	-0.004580	-0.000805	-0.014332	
60258	    0	13.614180	9.303665	-1.953830	-1.020845	0.043489	-2.541812	0.137304	0.091195	-0.020037	0.999906	-0.005104	0.000217	-0.012709	
60259	    0	15.013216	8.517941	-4.590612	-1.286159	0.164799	-2.162228	0.151001	0.083252	-0.046570	0.999920	-0.006431	0.000824	-0.010811	
60260	    0	15.721013	5.916193	-4.794111	-1.089306	0.108339	-1.756127	0.157694	0.057516	-0.048343	0.999946	-0.005446	0.000542	-0.008780	
60261	    0	15.496195	5.993948	-5.587054	-0.974096	0.071717	-1.538870	0.155396	0.058472	-0.056213	0.999958	-0.004870	0.000359	-0.007694	
60262	    0	16.880994	4.787065	-5.672472	-1.236742	0.125124	-1.348133	0.169090	0.046379	-0.057120	0.999957	-0.006184	0.000626	-0.006741	
60263	    0	19.364238	2.921352	-2.934770	-1.489281	0.171092	-1.198596	0.193787	0.027832	-0.029724	0.999953	-0.007446	0.000855	-0.005993	
60264	    0	20.640060	2.978264	-1.554054	-1.742776	0.169376	-1.130315	0.206551	0.028478	-0.015967	0.999946	-0.008714	0.000847	-0.005651	
60265	    0	21.004195	0.714341	0.829226	-1.839291	0.167850	-1.061269	0.210083	0.006104	0.008057	0.999943	-0.009196	0.000839	-0.005306	
60266	    0	21.269151	-0.256219	1.086285	-1.859701	0.059510	-1.086065	0.212677	-0.003616	0.010830	0.999942	-0.009298	0.000298	-0.005430	
60267	    0	21.058511	-1.314867	1.978071	-2.014775	-0.037385	-1.035331	0.210510	-0.014038	0.019958	0.999935	-0.010074	-0.000187	-0.005177	
60268	    0	18.918225	-0.439140	1.385149	-2.379293	-0.061991	-0.989178	0.189154	-0.005161	0.013968	0.999916	-0.011896	-0.000310	-0.004946	
60269	    0	17.131240	-2.649156	1.507657	-2.652825	-0.011254	-0.804927	0.171204	-0.026978	0.015442	0.999904	-0.013264	-0.000056	-0.004025	
60270	    0	15.002411	-3.635914	0.377037	-2.652061	0.022126	-0.692580	0.149898	-0.036824	0.004240	0.999906	-0.013260	0.000111	-0.003463	
60271	    0	12.794177	-5.990871	-0.907676	-2.454442	0.038339	-0.642412	0.127747	-0.060425	-0.008362	0.999919	-0.012272	0.000192	-0.003212	
60272	    0	12.043956	-6.928254	-0.398657	-1.830512	0.059510	-0.679599	0.120202	-0.069724	-0.003386	0.999951	-0.009152	0.000298	-0.003398	
60273	    0	10.028183	-4.334299	-2.239010	-1.205264	0.057984	-0.813301	0.100098	-0.043884	-0.022156	0.999973	-0.006026	0.000290	-0.004066	
60274	    0	8.459968	-5.828206	-3.173140	-0.926405	0.069619	-0.773625	0.084362	-0.058755	-0.031489	0.999981	-0.004632	0.000348	-0.003868	
60275	    0	8.318167	-7.477746	-2.553835	-0.460054	0.206948	-0.718691	0.082886	-0.075134	-0.025452	0.999990	-0.002300	0.001035	-0.003593	
60276	    0	8.929518	-6.814396	-2.653869	0.292398	0.377657	-0.922779	0.088929	-0.068516	-0.026807	0.999986	0.001462	0.001888	-0.004614	
60277	    0	9.871873	-4.508403	-3.341859	0.875865	0.522047	-1.334397	0.098328	-0.045593	-0.033875	0.999965	0.004379	0.002610	-0.006672	
60278	    0	9.682931	-0.189795	-3.932437	1.234659	0.601021	-2.085549	0.096685	-0.002663	-0.039630	0.999922	0.006173	0.003005	-0.010427	
60279	    0	10.243113	7.789229	-7.857831	1.682559	0.263228	-3.073278	0.103516	0.076965	-0.078064	0.999846	0.008412	0.001316	-0.015366	
60280	    0	10.115104	9.113996	-11.032512	1.020301	0.130089	-3.611395	0.102710	0.089856	-0.109931	0.999824	0.005101	0.000650	-0.018056	
60281	    0	11.511982	1.787667	-7.720587	0.224316	0.144394	-3.527253	0.115356	0.015930	-0.077271	0.999843	0.001122	0.000722	-0.017635	
60282	    0	14.543157	-4.981648	-4.501859	-0.464274	0.166330	-3.612146	0.144462	-0.052536	-0.045019	0.999833	-0.002321	0.000832	-0.018060	
60283	    0	15.582429	-8.982781	-2.289897	-0.817729	0.155649	-3.688269	0.154114	-0.092773	-0.022644	0.999821	-0.004088	0.000778	-0.018440	
60284	    0	14.679121	-9.132091	-1.021976	-1.086684	0.182735	-3.692092	0.145062	-0.094064	-0.009847	0.999814	-0.005433	0.000914	-0.018459	
60285	    0	13.785289	-8.741867	-0.529550	-1.255690	0.125893	-3.769169	0.136169	-0.090027	-0.004822	0.999802	-0.006278	0.000629	-0.018845	
60286	    0	13.065658	-7.990261	-0.378287	-1.448921	-0.044254	-3.781959	0.129115	-0.082378	-0.003163	0.999795	-0.007244	-0.000221	-0.018909	
60287	    0	13.238160	-7.759706	-1.424327	-1.634328	-0.069241	-3.697456	0.130920	-0.080139	-0.013550	0.999795	-0.008171	-0.000346	-0.018486	
60288	    0	13.545672	-7.287141	-1.954743	-1.639467	0.103003	-3.463194	0.134156	-0.075359	-0.019006	0.999816	-0.008197	0.000515	-0.017315	
60289	    0	13.815908	-6.145856	-2.283550	-1.225340	0.105481	-3.177797	0.137146	-0.063782	-0.022522	0.999854	-0.006126	0.000527	-0.015888	
60290	    0	13.340254	-4.328974	-2.696296	-0.813704	0.045397	-2.835377	0.132764	-0.045284	-0.026812	0.999890	-0.004068	0.000227	-0.014176	
60291	    0	12.588887	-2.062445	-2.360032	-0.639932	0.142673	-2.413240	0.125610	-0.022217	-0.023621	0.999922	-0.003200	0.000713	-0.012066	
60292	    0	11.305469	-1.738167	-1.692879	-0.491722	0.198558	-1.861601	0.112869	-0.018475	-0.016996	0.999952	-0.002459	0.000993	-0.009308	
60293	    0	9.692084	-2.865201	-0.608624	-0.144769	0.205232	-1.197059	0.096741	-0.029236	-0.006165	0.999981	-0.000724	0.001026	-0.005985	
60294	    0	8.162521	-3.414564	0.019428	0.415803	0.165940	-0.541307	0.081532	-0.034367	0.000055	0.999993	0.002079	0.000830	-0.002707	
60295	    0	6.310423	-2.451734	-0.411893	0.929454	0.125885	0.071717	0.063110	-0.024475	-0.004272	0.999989	0.004647	0.000629	0.000359	
60296	    0	4.641185	-1.183200	-0.644291	1.157960	0.160600	0.703245	0.046448	-0.011631	-0.006548	0.999976	0.005790	0.000803	0.003516	
60297	    0	3.832601	-0.252693	-1.007205	1.262684	0.235943	1.387045	0.038330	-0.002197	-0.010132	0.999955	0.006313	0.001180	0.006935	
60298	    0	3.582840	0.174357	-1.662740	1.286158	0.324067	2.080207	0.035780	0.002223	-0.016672	0.999924	0.006431	0.001620	0.010401	
60299	    0	3.277694	0.546426	-2.090431	1.221704	0.406662	2.755081	0.032654	0.006042	-0.020935	0.999884	0.006108	0.002033	0.013775	
60300	    0	3.050492	1.164786	-2.468540	1.120055	0.499562	3.379241	0.030239	0.012299	-0.024693	0.999838	0.005600	0.002498	0.016895	
60301	    0	2.990663	1.755488	-2.453114	0.931804	0.600475	3.917965	0.029480	0.018250	-0.024536	0.999792	0.004659	0.003002	0.019588	
60302	    0	3.444964	1.646630	-2.415791	0.779219	0.626618	4.440500	0.033996	0.017319	-0.024199	0.999741	0.003896	0.003133	0.022201	
60303	    0	4.394118	0.848416	-2.388515	0.620335	0.596109	4.961156	0.043640	0.009644	-0.023987	0.999682	0.003101	0.002980	0.024803	
60304	    0	5.556733	0.091645	-2.347627	0.389530	0.537368	5.467915	0.055450	0.002480	-0.023622	0.999620	0.001947	0.002687	0.027336	
60305	    0	6.564220	-0.006268	-2.359468	0.073253	0.452681	5.934256	0.065552	0.001892	-0.023743	0.999557	0.000366	0.002263	0.029667	
60306	    0	7.266363	0.185267	-2.585151	-0.318581	0.349867	6.343767	0.072512	0.004113	-0.025984	0.999494	-0.001593	0.001749	0.031713	
60307	    0	7.727050	-0.061198	-2.653365	-0.631833	0.192488	6.701400	0.077209	0.001892	-0.026611	0.999433	-0.003159	0.000962	0.033501	
60308	    0	8.403798	-0.661864	-2.545238	-0.784654	-0.034721	6.990921	0.084208	-0.003777	-0.025419	0.999381	-0.003922	-0.000174	0.034947	
60309	    0	9.733530	-1.334235	-2.444148	-0.682028	-0.354082	7.245713	0.097778	-0.009888	-0.024231	0.999336	-0.003409	-0.001770	0.036221	
60310	    0	11.552992	-1.785965	-2.541644	-0.526743	-0.625949	7.475898	0.116170	-0.013591	-0.025014	0.999292	-0.002633	-0.003129	0.037371	
60311	    0	14.050164	-1.846403	-2.292336	-0.241149	-0.890383	7.703042	0.141174	-0.013062	-0.022278	0.999248	-0.001205	-0.004451	0.038506	
60312	    0	17.498255	0.308708	-2.293455	0.037012	-1.113615	7.897563	0.174803	0.009997	-0.021959	0.999205	0.000185	-0.005567	0.039477	
60313	    0	20.560372	3.166740	-1.690870	0.073453	-1.300404	7.993976	0.204224	0.039856	-0.015564	0.999180	0.000367	-0.006500	0.039959	
60314	    0	22.414230	5.609842	-1.131578	0.016408	-1.522867	8.006022	0.221736	0.065009	-0.009616	0.999169	0.000082	-0.007612	0.040019	
60315	    0	22.899794	7.594731	-0.326838	0.207002	-1.730042	7.780992	0.225830	0.084778	-0.001221	0.999205	0.001035	-0.008648	0.038895	
60316	    0	23.827527	10.760317	0.859402	0.662007	-1.598929	7.353815	0.234026	0.116228	0.010852	0.999287	0.003309	-0.007993	0.036760	
60317	    0	25.090895	13.282226	2.143845	1.199011	-1.240028	6.755671	0.246094	0.141052	0.023804	0.999392	0.005994	-0.006199	0.033772	
60318	    0	24.205284	15.330459	-0.889108	1.772594	-1.049592	5.863179	0.237457	0.160375	-0.006236	0.999516	0.008862	-0.005247	0.029311	
60319	    0	19.782405	19.760972	-5.845696	2.309107	-1.047634	4.552975	0.193542	0.202698	-0.055115	0.999660	0.011544	-0.005238	0.022762	
60320	    0	15.375709	27.595772	-5.309365	2.659033	-1.108058	2.963468	0.149917	0.278864	-0.048561	0.999786	0.013294	-0.005540	0.014816	
60321	    0	12.029198	33.144550	0.065486	2.584943	-1.025241	1.380213	0.117981	0.332214	0.005554	0.999879	0.012924	-0.005126	0.006901	
60322	    0	11.973512	35.136873	2.377223	1.967275	-0.648129	-0.126078	0.119871	0.351034	0.027615	0.999946	0.009836	-0.003241	-0.000630	
60323	    0	11.208380	31.603098	0.200254	1.289387	-0.308041	-1.342793	0.114197	0.315247	0.004211	0.999955	0.006447	-0.001540	-0.006714	
60324	    0	11.027556	25.789426	-1.387620	1.054604	-0.244529	-2.428889	0.113413	0.256598	-0.012383	0.999911	0.005273	-0.001223	-0.012144	
60325	    0	9.181252	21.771572	-3.602804	1.493165	-0.357650	-3.531865	0.095703	0.216309	-0.034241	0.999814	0.007465	-0.001788	-0.017658	
60326	    0	10.685065	23.843218	-4.137413	2.410036	-0.426153	-4.798325	0.112620	0.236250	-0.038282	0.999637	0.012049	-0.002131	-0.023989	
60327	    0	11.316320	8.156466	-13.011906	0.724305	-0.545565	-5.216063	0.115601	0.079041	-0.129517	0.999649	0.003621	-0.002728	-0.026077	
60328	    0	10.044240	-14.806096	-16.412304	-0.463330	-0.612305	-4.180460	0.097815	-0.150503	-0.163474	0.999774	-0.002316	-0.003061	-0.020901	
60329	    0	17.142025	-3.220441	-14.971609	0.503583	-0.739161	-4.455950	0.171204	-0.035645	-0.149170	0.999742	0.002518	-0.003695	-0.022278	
60330	    0	37.735246	28.494669	-3.589362	1.316334	-0.697466	-6.773208	0.386833	0.272174	-0.032736	0.999398	0.006580	-0.003487	-0.033859	
60331	    0	33.193711	19.846730	5.367426	-0.595009	-0.905772	-6.480047	0.337891	0.187744	0.054626	0.999460	-0.002975	-0.004528	-0.032394	
60332	    0	15.645087	8.834358	10.378934	-1.886451	-0.600902	-5.563400	0.158534	0.084929	0.103452	0.999564	-0.009431	-0.003004	-0.027813	
60333	    0	0.592775	-3.123986	-2.389552	-0.002861	-1.099506	-4.781058	0.005310	-0.031372	-0.023865	0.999699	-0.000014	-0.005497	-0.023903	
60334	    0	1.918077	11.961193	-3.312041	0.502255	-0.720859	-4.808142	0.022168	0.119185	-0.032744	0.999701	0.002511	-0.003604	-0.024038	
60335	    0	7.390370	14.727213	-2.037185	-0.365285	-0.344875	-4.223951	0.077026	0.145630	-0.020508	0.999773	-0.001826	-0.001724	-0.021118	
60336	    0	11.300660	7.354084	-1.820897	-1.010949	-0.202762	-3.447337	0.114269	0.071486	-0.018458	0.999838	-0.005054	-0.001014	-0.017236	
60337	    0	11.517075	6.796831	-1.572990	-0.972595	-0.215157	-2.880208	0.116150	0.066223	-0.015930	0.999884	-0.004863	-0.001076	-0.014400	
60338	    0	13.357843	10.152352	-3.850666	-1.449256	-0.044634	-2.552315	0.134866	0.099525	-0.039203	0.999892	-0.007246	-0.000223	-0.012761	
60339	    0	14.856823	7.114401	-3.791893	-1.662494	0.017739	-2.080597	0.149292	0.069275	-0.038513	0.999911	-0.008312	0.000089	-0.010403	
60340	    0	14.849423	5.645276	-4.539120	-1.446184	-0.004768	-1.800386	0.148993	0.054783	-0.045788	0.999933	-0.007231	-0.000024	-0.009002	
60341	    0	15.991343	4.801007	-5.000660	-1.455527	0.083925	-1.646457	0.160278	0.046326	-0.050415	0.999939	-0.007277	0.000420	-0.008232	
60342	    0	20.133400	1.806321	-2.461448	-1.492149	0.209240	-1.609263	0.201444	0.016257	-0.024951	0.999939	-0.007461	0.001046	-0.008046	
60343	    0	22.376058	1.794594	-1.852617	-1.532779	0.238996	-1.672400	0.223877	0.015930	-0.018921	0.999934	-0.007664	0.001195	-0.008362	
60344	    0	22.168922	0.016082	-0.073942	-1.505501	0.233083	-1.623950	0.221680	-0.001646	-0.000990	0.999938	-0.007527	0.001165	-0.008120	
60345	    0	20.152927	-1.987842	-0.424581	-1.497681	0.182537	-1.623568	0.201355	-0.021545	-0.004272	0.999938	-0.007488	0.000913	-0.008118	
60346	    0	20.803867	-1.828979	-0.062177	-1.438934	0.131991	-1.694333	0.207873	-0.020056	-0.000619	0.999938	-0.007195	0.000660	-0.008471	
60347	    0	18.983277	-2.940791	0.080554	-1.644745	0.083925	-1.693002	0.189575	-0.031006	0.000977	0.999929	-0.008224	0.000420	-0.008465	
60348	    0	16.904814	-3.317314	-0.187763	-1.737828	0.036241	-1.673930	0.168762	-0.034601	-0.001612	0.999927	-0.008689	0.000181	-0.008369	
60349	    0	15.033478	-4.713741	-0.437435	-1.891374	-0.019646	-1.551095	0.149963	-0.048340	-0.003906	0.999925	-0.009457	-0.000098	-0.007755	
60350	    0	13.430758	-5.246810	-0.011301	-1.803440	-0.059701	-1.527440	0.133902	-0.053490	0.000406	0.999929	-0.009017	-0.000299	-0.007637	
60351	    0	11.941756	-5.275985	1.450576	-1.593049	-0.039483	-1.486998	0.119019	-0.053528	0.014954	0.999940	-0.007965	-0.000197	-0.007435	
60352	    0	9.315677	-4.442986	-0.294711	-1.364157	0.038338	-1.395820	0.092843	-0.045097	-0.002659	0.999952	-0.006821	0.000192	-0.006979	
60353	    0	8.148309	-4.566395	-1.369323	-1.053632	0.094033	-1.302353	0.081177	-0.046265	-0.013489	0.999965	-0.005268	0.000470	-0.006512	
60354	    0	7.674572	-5.895895	-1.266749	-0.861938	0.132180	-1.087770	0.076415	-0.059429	-0.012463	0.999975	-0.004310	0.000661	-0.005439	
60355	    0	7.968005	-5.642839	-1.019927	-0.391962	0.109864	-0.944523	0.079407	-0.056824	-0.010132	0.999987	-0.001960	0.000549	-0.004723	
60356	    0	8.230419	-4.840792	-1.948044	0.157548	0.134850	-1.074796	0.082029	-0.048834	-0.019574	0.999985	0.000788	0.000674	-0.005374	
60357	    0	8.835120	-2.531704	-2.576004	0.551802	0.247195	-1.435867	0.088135	-0.025879	-0.025940	0.999969	0.002759	0.001236	-0.007179	
60358	    0	9.882023	1.270601	-3.838648	0.956556	0.375947	-2.028127	0.098871	0.011888	-0.038514	0.999935	0.004783	0.001880	-0.010140	
60359	    0	11.154913	7.715574	-8.407604	1.024667	0.207718	-2.845873	0.112549	0.075989	-0.083801	0.999885	0.005123	0.001039	-0.014229	
60360	    0	11.389490	4.045084	-7.439954	0.223931	0.233277	-2.892596	0.114378	0.038882	-0.074489	0.999893	0.001120	0.001166	-0.014462	
60361	    0	13.116392	-3.253979	-5.260139	-0.110630	0.325213	-2.742855	0.130615	-0.034363	-0.052795	0.999904	-0.000553	0.001626	-0.013714	
60362	    0	13.768127	-7.926245	-4.030751	-0.438134	0.339711	-2.891263	0.136447	-0.081329	-0.040363	0.999891	-0.002191	0.001698	-0.014456	
60363	    0	12.829818	-10.689728	-2.814677	-0.601983	0.209244	-2.995417	0.126648	-0.108887	-0.027954	0.999883	-0.003010	0.001046	-0.014977	
60364	    0	12.170891	-10.358507	-2.353543	-0.529882	0.048258	-2.975196	0.120144	-0.105442	-0.023287	0.999886	-0.002649	0.000241	-0.014875	
60365	    0	12.628782	-8.854346	-1.885750	-0.457589	-0.057985	-2.880962	0.125000	-0.090393	-0.018616	0.999893	-0.002288	-0.000290	-0.014404	
60366	    0	14.309392	-7.786059	-2.536658	-0.528161	-0.059702	-2.647290	0.142054	-0.079812	-0.025115	0.999908	-0.002641	-0.000299	-0.013236	
60367	    0	15.110642	-6.059213	-3.363701	-0.768108	0.063326	-2.281244	0.150391	-0.062439	-0.033447	0.999928	-0.003840	0.000317	-0.011406	
60368	    0	13.822438	-4.696174	-3.761365	-0.891129	0.099756	-1.847300	0.137763	-0.048403	-0.037469	0.999947	-0.004456	0.000499	-0.009236	
60369	    0	11.025035	-3.638047	-3.370512	-0.881777	0.049592	-1.387803	0.109985	-0.037292	-0.033569	0.999966	-0.004409	0.000248	-0.006939	
60370	    0	9.359900	-1.646395	-2.439406	-0.805860	0.032616	-0.901991	0.093519	-0.016984	-0.024342	0.999981	-0.004029	0.000163	-0.004510	
60371	    0	8.619686	-0.399491	-2.091519	-0.711824	0.080300	-0.329591	0.086182	-0.004211	-0.020935	0.999991	-0.003559	0.000401	-0.001648	
60372	    0	7.738212	-1.319336	-1.568820	-0.521088	0.169182	0.288773	0.077388	-0.013123	-0.015719	0.999994	-0.002605	0.000846	0.001444	
60373	    0	6.985093	-2.453107	-1.129653	-0.177575	0.222016	0.887302	0.069946	-0.024231	-0.011353	0.999989	-0.000888	0.001110	0.004436	
60374	    0	6.704004	-2.684782	-0.699248	0.211336	0.234225	1.482787	0.067228	-0.026342	-0.007099	0.999970	0.001057	0.001171	0.007414	
60375	    0	6.922667	-2.392567	-0.685929	0.621808	0.250440	2.048532	0.069458	-0.023193	-0.007019	0.999942	0.003109	0.001252	0.010242	
60376	    0	7.439003	-1.364296	-0.835887	1.042591	0.274477	2.597131	0.074547	-0.012631	-0.008529	0.999901	0.005213	0.001372	0.012985	
60377	    0	7.955092	0.319191	-1.229209	1.275887	0.312057	3.134306	0.079468	0.004517	-0.012390	0.999855	0.006379	0.001560	0.015671	
60378	    0	7.921962	0.840187	-1.599272	1.354876	0.365281	3.658529	0.079018	0.009957	-0.016073	0.999807	0.006774	0.001826	0.018291	
60379	    0	7.802823	0.698418	-1.838388	1.404875	0.428807	4.144621	0.077820	0.008728	-0.018494	0.999758	0.007024	0.002144	0.020721	
60380	    0	7.924954	0.702974	-1.831095	1.432369	0.451323	4.614520	0.079016	0.008986	-0.018430	0.999705	0.007161	0.002256	0.023070	
60381	    0	8.603292	0.981038	-2.185472	1.427054	0.463921	5.078718	0.085693	0.012146	-0.021973	0.999649	0.007134	0.002319	0.025391	
60382	    0	9.386383	1.670379	-2.623802	1.152004	0.519060	5.553233	0.093281	0.019451	-0.026374	0.999594	0.005759	0.002595	0.027762	
60383	    0	9.859270	2.015537	-2.962750	0.600526	0.581640	6.011360	0.097839	0.023193	-0.029846	0.999539	0.003002	0.002908	0.030052	
60384	    0	9.900876	1.138024	-3.250759	0.023274	0.599202	6.410180	0.098478	0.014546	-0.032802	0.999481	0.000116	0.002995	0.032045	
60385	    0	10.115924	-0.202335	-3.333488	-0.250864	0.463192	6.741091	0.101074	0.001343	-0.033569	0.999428	-0.001254	0.002316	0.033699	
60386	    0	11.081358	-0.687135	-3.444961	-0.372963	0.250105	7.002741	0.110922	-0.003053	-0.034580	0.999384	-0.001864	0.001250	0.035007	
60387	    0	12.371405	-0.628378	-3.365697	-0.409787	-0.031860	7.205238	0.123840	-0.001892	-0.033630	0.999349	-0.002048	-0.000159	0.036018	
60388	    0	13.993203	0.172405	-3.742455	-0.311159	-0.378886	7.379879	0.139813	0.006827	-0.037168	0.999316	-0.001555	-0.001894	0.036891	
60389	    0	15.661991	1.811961	-4.023113	-0.211384	-0.744614	7.488493	0.155945	0.023926	-0.039673	0.999291	-0.001057	-0.003722	0.037434	
60390	    0	17.398813	3.143242	-4.116820	-0.082799	-1.151933	7.487562	0.172883	0.037903	-0.040185	0.999282	-0.000414	-0.005758	0.037429	
60391	    0	19.354505	4.273720	-3.643274	0.229890	-1.585763	7.360291	0.192078	0.049866	-0.034851	0.999290	0.001149	-0.007927	0.036793	
60392	    0	20.771410	5.871332	-2.599459	0.589504	-1.906063	7.091409	0.205691	0.066104	-0.023840	0.999321	0.002947	-0.009528	0.035449	
60393	    0	20.573706	9.291117	-0.263990	1.024074	-1.983094	6.634350	0.202515	0.099670	-0.000122	0.999387	0.005119	-0.009913	0.033165	
60394	    0	22.037959	13.480503	3.233772	1.251624	-1.549985	6.072696	0.215893	0.141193	0.034893	0.999489	0.006257	-0.007749	0.030358	
60395	    0	20.114962	14.248639	3.126782	1.529140	-1.195499	5.390141	0.197021	0.147583	0.033569	0.999589	0.007645	-0.005977	0.026947	
60396	    0	16.705006	17.245813	-3.214023	2.073121	-1.069942	4.401853	0.163359	0.176395	-0.029445	0.999689	0.010365	-0.005349	0.022007	
60397	    0	13.909597	22.385286	-6.306931	2.013718	-0.988833	3.238887	0.135742	0.226685	-0.060120	0.999805	0.010068	-0.004944	0.016193	
60398	    0	9.708974	24.546381	-2.565130	2.146042	-0.935210	1.978570	0.094764	0.246662	-0.022562	0.999882	0.010730	-0.004676	0.009892	
60399	    0	9.310222	27.493446	0.777227	2.211815	-0.768108	0.566115	0.092285	0.275085	0.011169	0.999927	0.011059	-0.003840	0.002831	
60400	    0	9.675922	29.871562	0.077444	1.537342	-0.415235	-0.668343	0.097752	0.298371	0.003271	0.999962	0.007687	-0.002076	-0.003342	
60401	    0	8.385472	27.790258	-1.900277	0.585372	-0.148012	-1.579303	0.086060	0.277283	-0.018127	0.999964	0.002927	-0.000740	-0.007896	
60402	    0	9.492361	20.594136	-2.434494	0.069238	-0.090982	-2.271320	0.097265	0.204854	-0.024230	0.999935	0.000346	-0.000455	-0.011356	
60403	    0	9.816504	14.836823	-2.246876	0.361647	-0.215729	-3.003808	0.100403	0.146912	-0.022095	0.999885	0.001808	-0.001079	-0.015018	
60404	    0	9.059362	16.309037	-2.024040	1.393797	-0.293752	-3.828506	0.093723	0.161451	-0.018975	0.999791	0.006968	-0.001469	-0.019141	
60405	    0	11.686230	19.450157	-13.530131	1.094165	-0.656766	-4.747487	0.121887	0.192383	-0.133850	0.999698	0.005470	-0.003284	-0.023735	
60406	    0	11.855091	-2.725391	-19.796622	-0.675449	-0.504536	-4.421607	0.118399	-0.030540	-0.197568	0.999746	-0.003377	-0.002522	-0.022106	
60407	    0	25.026259	-5.044964	-11.642264	-0.181405	-0.325804	-4.583381	0.249207	-0.056274	-0.115967	0.999735	-0.000907	-0.001629	-0.022915	
60408	    0	45.602210	21.576160	0.758705	0.252775	-0.797434	-6.943210	0.463107	0.199753	0.009684	0.999389	0.001264	-0.003986	-0.034709	
60409	    0	29.951777	10.932778	6.693937	-0.686766	-1.501538	-6.280858	0.302246	0.100098	0.068848	0.999473	-0.003433	-0.007506	-0.031399	
60410	    0	15.240607	17.600643	10.449526	-1.545032	-1.012025	-6.208361	0.157260	0.171979	0.103944	0.999475	-0.007724	-0.005059	-0.031036	
60411	    0	1.414154	1.406594	-2.151192	-0.295101	-1.504688	-5.005454	0.014648	0.013672	-0.021423	0.999657	-0.001475	-0.007523	-0.025024	
60412	    0	1.196663	8.440238	-5.170685	-0.008775	-1.006235	-4.985775	0.014325	0.084063	-0.051642	0.999676	-0.000044	-0.005031	-0.024926	
60413	    0	5.393945	11.485061	-4.730316	-0.231952	-0.697192	-4.342239	0.056580	0.113586	-0.047241	0.999757	-0.001160	-0.003486	-0.021709	
60414	    0	8.722921	9.850987	-4.565658	-0.634610	-0.449206	-3.576860	0.089073	0.096783	-0.045767	0.999832	-0.003173	-0.002246	-0.017883	
60415	    0	9.117679	8.800717	-1.907528	-0.697162	-0.331891	-2.893174	0.092468	0.086609	-0.019226	0.999887	-0.003486	-0.001659	-0.014465	
60416	    0	12.251219	9.664848	-3.279611	-1.085506	-0.062944	-2.516062	0.123724	0.094917	-0.033276	0.999906	-0.005427	-0.000315	-0.012580	
60417	    0	14.156511	7.809301	-4.999073	-1.536412	0.109866	-2.072964	0.142334	0.076233	-0.050659	0.999916	-0.007682	0.000549	-0.010365	
60418	    0	15.327119	6.726195	-4.901871	-1.448281	0.099375	-1.754417	0.153827	0.065557	-0.049574	0.999935	-0.007241	0.000497	-0.008772	
60419	    0	15.239196	4.716135	-5.804982	-1.419664	0.043488	-1.432825	0.152710	0.045654	-0.058411	0.999949	-0.007098	0.000217	-0.007164	
60420	    0	15.818370	4.386407	-6.711790	-1.618985	0.004768	-1.210615	0.158442	0.042360	-0.067469	0.999949	-0.008095	0.000024	-0.006053	
60421	    0	19.593343	3.490760	-2.513165	-1.754601	0.083925	-1.075764	0.196106	0.033630	-0.025513	0.999947	-0.008773	0.000420	-0.005379	
60422	    0	20.407645	1.589733	-0.935392	-2.049300	0.149539	-1.018356	0.204146	0.014760	-0.009662	0.999934	-0.010246	0.000748	-0.005092	
60423	    0	20.756530	0.119326	1.314220	-1.916542	0.190166	-1.034567	0.207581	0.000244	0.012939	0.999940	-0.009583	0.000951	-0.005173	
60424	    0	20.949030	-1.273344	0.972096	-1.787982	0.197033	-1.126120	0.209424	-0.013826	0.009635	0.999943	-0.008940	0.000985	-0.005630	
60425	    0	21.621502	-1.543781	0.909456	-1.669913	0.182346	-1.203177	0.216125	-0.016663	0.009033	0.999947	-0.008349	0.000912	-0.006016	
60426	    0	19.207184	-2.599434	0.515559	-1.800191	0.152209	-1.178574	0.191918	-0.027079	0.005250	0.999942	-0.009001	0.000761	-0.005893	
60427	    0	16.407299	-3.315734	-0.374847	-1.873626	0.131991	-1.131462	0.163879	-0.034119	-0.003540	0.999939	-0.009368	0.000660	-0.005657	
60428	    0	14.025392	-3.487706	-0.956687	-1.966516	0.101282	-0.990888	0.140074	-0.035664	-0.009290	0.999939	-0.009832	0.000506	-0.004954	
60429	    0	11.893976	-4.572172	-1.801385	-1.914061	0.113680	-0.936144	0.118713	-0.046448	-0.017639	0.999943	-0.009570	0.000568	-0.004681	
60430	    0	11.432479	-5.566073	-0.499042	-1.586555	0.130846	-0.929083	0.114061	-0.056229	-0.004621	0.999957	-0.007933	0.000654	-0.004645	
60431	    0	9.656874	-3.942386	-1.764563	-1.231969	0.115205	-0.925455	0.096375	-0.039978	-0.017456	0.999969	-0.006160	0.000576	-0.004627	
60432	    0	8.781769	-3.938185	-2.935177	-0.985153	0.116731	-0.876624	0.087626	-0.039910	-0.029207	0.999978	-0.004926	0.000584	-0.004383	
60433	    0	8.715666	-5.877175	-2.265758	-0.986487	0.217630	-0.738530	0.086914	-0.059204	-0.022461	0.999980	-0.004932	0.001088	-0.003693	
60434	    0	8.995398	-6.567441	-2.032007	-0.655368	0.296022	-0.660136	0.089706	-0.066037	-0.020237	0.999988	-0.003277	0.001480	-0.003301	
60435	    0	9.439271	-6.258982	-2.846337	-0.262262	0.389864	-0.896458	0.094055	-0.063049	-0.028564	0.999987	-0.001311	0.001949	-0.004482	
60436	    0	9.212064	-4.744763	-4.055673	0.256732	0.502210	-1.502816	0.091659	-0.048085	-0.040849	0.999968	0.001284	0.002511	-0.007514	
60437	    0	9.823413	-0.781420	-5.083024	0.876068	0.447094	-2.318634	0.098022	-0.008728	-0.051086	0.999920	0.004380	0.002235	-0.011593	
60438	    0	11.080534	7.624027	-9.255284	0.912712	0.175294	-3.334403	0.111979	0.074801	-0.092307	0.999849	0.004563	0.000876	-0.016671	
60439	    0	11.314227	4.125761	-7.727521	-0.112158	0.167283	-3.466971	0.113770	0.039246	-0.077393	0.999848	-0.000561	0.000836	-0.017334	
60440	    0	13.549950	-3.032077	-4.634077	-0.624305	0.304427	-3.319709	0.134899	-0.032708	-0.046447	0.999856	-0.003121	0.001522	-0.016598	
60441	    0	15.010233	-8.357401	-2.733593	-0.849961	0.333614	-3.506662	0.148560	-0.086304	-0.027222	0.999835	-0.004250	0.001668	-0.017532	
60442	    0	14.264147	-10.786503	-1.900712	-1.051772	0.276581	-3.531466	0.140680	-0.110459	-0.018626	0.999829	-0.005259	0.001383	-0.017656	
60443	    0	13.224542	-10.456915	-1.235373	-1.096215	0.198375	-3.508957	0.130371	-0.106934	-0.011902	0.999830	-0.005481	0.000992	-0.017544	
60444	    0	12.599559	-8.944252	-0.919630	-1.025447	0.083737	-3.492548	0.124404	-0.091670	-0.008782	0.999834	-0.005127	0.000419	-0.017462	
60445	    0	12.747366	-7.635544	-1.329235	-0.950671	0.026895	-3.372365	0.126160	-0.078552	-0.012939	0.999846	-0.004753	0.000134	-0.016861	
60446	    0	13.249063	-6.616094	-2.260879	-0.849571	0.066760	-3.155658	0.131416	-0.068336	-0.022366	0.999866	-0.004248	0.000334	-0.015778	
60447	    0	13.406838	-5.262707	-3.184644	-0.678086	0.020600	-2.832894	0.133301	-0.054626	-0.031677	0.999893	-0.003390	0.000103	-0.014164	
60448	    0	13.252077	-4.555188	-3.212309	-0.499547	0.058748	-2.392256	0.131953	-0.047213	-0.032045	0.999925	-0.002498	0.000294	-0.011961	
60449	    0	12.417925	-3.243137	-2.923287	-0.280576	0.080110	-1.966890	0.123840	-0.033691	-0.029236	0.999950	-0.001403	0.000401	-0.009834	
60450	    0	10.770572	-2.374474	-2.432044	-0.080682	0.053978	-1.490225	0.107518	-0.024556	-0.024340	0.999971	-0.000403	0.000270	-0.007451	
60451	    0	9.172419	-2.280188	-1.861827	0.222207	0.071717	-0.899509	0.091614	-0.023193	-0.018677	0.999989	0.001111	0.000359	-0.004498	
60452	    0	7.511227	-2.529338	-1.400042	0.579454	0.097847	-0.283814	0.075069	-0.025359	-0.014111	0.999994	0.002897	0.000489	-0.001419	
60453	    0	5.941385	-2.420437	-1.113778	0.933270	0.138856	0.350191	0.059448	-0.024048	-0.011292	0.999987	0.004666	0.000694	0.001751	
60454	    0	5.153228	-1.594003	-1.184375	1.211179	0.203707	0.985537	0.051598	-0.015614	-0.011992	0.999969	0.006056	0.001019	0.004928	
60455	    0	5.109404	-0.249489	-1.773544	1.379612	0.282293	1.640352	0.051086	-0.001953	-0.017822	0.999941	0.006898	0.001411	0.008202	
60456	    0	4.882513	1.193790	-2.751056	1.352351	0.353442	2.283927	0.048635	0.012680	-0.027513	0.999910	0.006762	0.001767	0.011419	
60457	    0	4.202757	1.811538	-3.359284	1.189472	0.418299	2.898528	0.041687	0.018921	-0.033569	0.999875	0.005947	0.002091	0.014492	
60458	    0	3.892506	1.710020	-3.490589	1.004656	0.506048	3.479198	0.038529	0.017948	-0.034915	0.999832	0.005023	0.002530	0.017395	
60459	    0	4.327911	1.258004	-3.564095	0.864665	0.566906	4.073634	0.042908	0.013611	-0.035706	0.999779	0.004323	0.002834	0.020367	
60460	    0	5.164655	0.915143	-3.259484	0.734015	0.591142	4.607053	0.051319	0.010456	-0.032710	0.999723	0.003670	0.002955	0.023033	
60461	    0	6.258192	1.034000	-3.177005	0.496157	0.576847	5.149660	0.062195	0.012024	-0.031921	0.999660	0.002481	0.002884	0.025745	
60462	    0	6.985661	1.318838	-3.172332	0.053985	0.561789	5.631626	0.069359	0.015155	-0.031915	0.999599	0.000270	0.002809	0.028154	
60463	    0	7.732822	1.182988	-3.378831	-0.448488	0.463177	6.090735	0.076843	0.014099	-0.033997	0.999531	-0.002242	0.002316	0.030449	
60464	    0	8.499435	0.848487	-3.396306	-0.914166	0.347009	6.496453	0.084603	0.011082	-0.034157	0.999460	-0.004570	0.001735	0.032476	
60465	    0	9.126732	-0.019289	-2.750892	-1.216941	0.149566	6.812120	0.091187	0.002747	-0.027588	0.999401	-0.006083	0.000748	0.034054	
60466	    0	9.904893	-1.122669	-2.252808	-1.085702	-0.223398	7.039797	0.099390	-0.007854	-0.022368	0.999365	-0.005427	-0.001117	0.035192	
60467	    0	11.323276	-1.561360	-2.309965	-0.752234	-0.608960	7.222820	0.113770	-0.011597	-0.022705	0.999336	-0.003760	-0.003044	0.036106	
60468	    0	13.447263	-1.561398	-1.968486	-0.386328	-0.985946	7.380478	0.135022	-0.010674	-0.018996	0.999305	-0.001931	-0.004929	0.036894	
60469	    0	16.262498	-0.937672	-1.294640	-0.080128	-1.280334	7.549605	0.162903	-0.003235	-0.011902	0.999267	-0.000401	-0.006400	0.037739	
60470	    0	19.185760	0.638119	-0.978007	0.155298	-1.549544	7.667017	0.191493	0.013735	-0.008286	0.999234	0.000776	-0.007746	0.038325	
60471	    0	20.820356	2.814710	0.052693	0.438803	-1.775627	7.646623	0.206909	0.036072	0.002441	0.999227	0.002193	-0.008876	0.038223	
60472	    0	21.713235	5.299118	0.834137	0.939605	-1.988339	7.449497	0.214861	0.060977	0.010759	0.999246	0.004697	-0.009939	0.037238	
60473	    0	22.124104	8.013994	1.292281	1.617813	-2.003761	7.071065	0.218079	0.087769	0.015808	0.999291	0.008087	-0.010016	0.035347	
60474	    0	23.547033	11.815672	2.221445	2.182853	-1.644866	6.607510	0.231202	0.125577	0.025472	0.999360	0.010912	-0.008223	0.033031	
60475	    0	24.349924	12.278467	1.697503	2.560131	-1.223788	5.993988	0.239563	0.129761	0.020081	0.999450	0.012798	-0.006118	0.029964	
60476	    0	21.363543	13.815863	-3.048631	3.302906	-1.190564	5.061187	0.210208	0.143971	-0.026882	0.999525	0.016512	-0.005952	0.025302	
60477	    0	17.505368	21.617571	-7.314914	3.754886	-1.205402	3.728943	0.171387	0.220703	-0.067993	0.999631	0.018772	-0.006026	0.018642	
60478	    0	13.414461	31.289933	-4.551545	3.382940	-1.125231	2.357662	0.130672	0.315155	-0.039455	0.999771	0.016913	-0.005626	0.011787	
60479	    0	11.608800	36.099892	-1.066437	2.188934	-0.840592	1.064330	0.114197	0.361694	-0.006226	0.999917	0.010944	-0.004203	0.005322	
60480	    0	9.642007	33.808697	-1.656885	0.934796	-0.378420	-0.229455	0.096837	0.338048	-0.014806	0.999986	0.004674	-0.001892	-0.001147	
60481	    0	8.889766	28.766568	-2.805000	0.285342	-0.115777	-1.454939	0.091003	0.287048	-0.027588	0.999972	0.001427	-0.000579	-0.007275	
60482	    0	10.950588	22.473875	-3.366876	0.098422	-0.136570	-2.496594	0.112323	0.223365	-0.033483	0.999921	0.000492	-0.000683	-0.012483	
60483	    0	9.860269	19.730354	-2.554444	0.386831	-0.157746	-3.557777	0.102112	0.195557	-0.025085	0.999839	0.001934	-0.000789	-0.017788	
60484	    0	10.575090	21.197539	-0.237474	1.169312	-0.184839	-4.549064	0.110537	0.209506	-0.001044	0.999723	0.005846	-0.000924	-0.022743	
60485	    0	11.298237	6.542606	-10.217954	-0.101481	-0.388948	-4.928328	0.114746	0.062561	-0.101990	0.999694	-0.000507	-0.001945	-0.024639	
60486	    0	9.335219	-16.980487	-15.366114	-0.626416	-0.583689	-3.973471	0.090395	-0.172100	-0.152858	0.999793	-0.003132	-0.002918	-0.019866	
60487	    0	17.108843	-6.924418	-18.550158	0.741639	-1.042834	-4.272052	0.170532	-0.072205	-0.184875	0.999751	0.003708	-0.005214	-0.021358	
60488	    0	40.421263	27.798837	-5.723207	1.897066	-1.073491	-6.762210	0.413602	0.264621	-0.052476	0.999369	0.009483	-0.005366	-0.033804	
60489	    0	37.402572	28.294157	7.201284	-0.726470	-0.946051	-6.967851	0.383240	0.269958	0.072815	0.999375	-0.003632	-0.004729	-0.034832	
60490	    0	15.523432	8.139273	12.475325	-2.156004	-0.555120	-5.519919	0.157081	0.078416	0.124331	0.999557	-0.010778	-0.002775	-0.027596	
60491	    0	-1.394321	-5.942179	-5.562248	0.453992	-1.238177	-4.586464	-0.014954	-0.058960	-0.055847	0.999715	0.002270	-0.006190	-0.022930	
60492	    0	-0.037899	12.607837	-6.785285	0.671263	-0.707316	-4.813106	0.002897	0.126262	-0.067423	0.999698	0.003356	-0.003536	-0.024063	
60493	    0	5.947430	13.253081	-4.150562	-0.070768	-0.356319	-4.205635	0.062317	0.131226	-0.041443	0.999777	-0.000354	-0.001781	-0.021027	
60494	    0	12.182979	7.703413	-2.598424	-0.850723	-0.053409	-3.486820	0.123154	0.074783	-0.026273	0.999839	-0.004253	-0.000267	-0.017433	
60495	    0	11.980885	5.573083	-0.562460	-0.815423	-0.080875	-2.912251	0.120605	0.053955	-0.005798	0.999886	-0.004077	-0.000404	-0.014561	
60496	    0	13.217975	10.312929	-2.113493	-1.039921	0.052835	-2.613917	0.133506	0.101278	-0.021700	0.999901	-0.005199	0.000264	-0.013069	
60497	    0	14.425523	8.781823	-3.650372	-1.540419	0.168042	-2.118744	0.145142	0.085999	-0.037292	0.999913	-0.007702	0.000840	-0.010593	
60498	    0	14.827310	5.448204	-4.006532	-1.311900	0.152591	-1.736866	0.148706	0.052927	-0.040529	0.999940	-0.006559	0.000763	-0.008684	
60499	    0	15.085519	4.918299	-5.462991	-1.190014	0.181583	-1.572444	0.151184	0.047668	-0.055054	0.999950	-0.005950	0.000908	-0.007862	
60500	    0	16.759901	3.236233	-6.197904	-1.413751	0.237087	-1.421571	0.167747	0.030730	-0.062399	0.999949	-0.007069	0.001185	-0.007108	
60501	    0	21.088130	1.536256	-3.113043	-1.530483	0.241284	-1.317619	0.210938	0.013733	-0.031494	0.999948	-0.007652	0.001206	-0.006588	
60502	    0	22.680239	1.585549	-2.108828	-1.773106	0.173954	-1.249910	0.226876	0.014249	-0.021417	0.999940	-0.008865	0.000870	-0.006249	
60503	    0	21.063479	-1.039368	0.532820	-1.860847	0.116160	-1.189447	0.210571	-0.011597	0.005310	0.999938	-0.009304	0.000581	-0.005947	
60504	    0	20.200043	-2.781910	0.700202	-1.815641	0.020218	-1.224161	0.201826	-0.028990	0.007241	0.999940	-0.009078	0.000101	-0.006121	
60505	    0	20.242217	-1.320946	1.367340	-1.950880	-0.044824	-1.253538	0.202332	-0.014343	0.013855	0.999932	-0.009754	-0.000224	-0.006268	
60506	    0	17.179986	-2.074484	1.352937	-2.199229	-0.073244	-1.128225	0.171675	-0.021563	0.013826	0.999923	-0.010996	-0.000366	-0.005641	
60507	    0	15.017283	-4.062642	1.086756	-2.193504	-0.046350	-1.007867	0.149963	-0.041260	0.011353	0.999927	-0.010967	-0.000232	-0.005039	
60508	    0	13.009202	-5.013086	0.627820	-2.012866	-0.036622	-0.940914	0.129853	-0.050675	0.006810	0.999938	-0.010064	-0.000183	-0.004704	
60509	    0	11.683178	-5.010152	0.362816	-1.598382	0.005531	-1.009384	0.116577	-0.050659	0.004028	0.999955	-0.007992	0.000028	-0.005047	
60510	    0	11.204261	-5.049094	1.440475	-1.081668	0.096703	-1.041613	0.111785	-0.050995	0.014626	0.999971	-0.005408	0.000484	-0.005208	
60511	    0	8.684226	-4.321663	-0.979362	-0.667576	0.129891	-1.042945	0.086609	-0.043701	-0.009705	0.999980	-0.003338	0.000649	-0.005215	
60512	    0	7.991368	-5.569746	-2.100658	-0.426104	0.198938	-1.058012	0.079597	-0.056164	-0.020967	0.999983	-0.002131	0.000995	-0.005290	
60513	    0	8.375584	-6.833987	-1.192232	-0.093079	0.319864	-1.056677	0.083374	-0.068787	-0.012024	0.999984	-0.000465	0.001599	-0.005283	
60514	    0	8.944561	-5.942627	-1.661404	0.431636	0.405696	-1.142128	0.089070	-0.059899	-0.016924	0.999979	0.002158	0.002028	-0.005711	
60515	    0	8.974513	-4.136319	-2.860500	0.738535	0.519759	-1.507588	0.089355	-0.041931	-0.028992	0.999961	0.003693	0.002599	-0.007538	
60516	    0	8.873771	-2.091792	-3.563316	0.969718	0.594916	-2.034806	0.088413	-0.021645	-0.036000	0.999931	0.004848	0.002975	-0.010174	
60517	    0	10.136258	3.215415	-5.603763	1.236199	0.368514	-2.702433	0.101685	0.031128	-0.056030	0.999887	0.006181	0.001842	-0.013512	
60518	    0	11.117274	8.536872	-8.928841	0.676189	0.184068	-3.416616	0.112531	0.083755	-0.089107	0.999847	0.003381	0.000920	-0.017082	
60519	    0	11.706498	2.554390	-6.740937	-0.144966	0.132949	-3.403638	0.117432	0.023499	-0.067505	0.999854	-0.000725	0.000665	-0.017017	
60520	    0	13.501340	-4.226917	-4.269358	-0.720629	0.119215	-3.221849	0.134282	-0.044590	-0.042616	0.999863	-0.003603	0.000596	-0.016109	
60521	    0	14.117935	-8.170494	-2.695880	-0.922249	0.139625	-3.335738	0.139771	-0.084167	-0.026672	0.999849	-0.004611	0.000698	-0.016678	
60522	    0	12.742546	-9.219994	-1.764494	-0.937893	0.084119	-3.443138	0.125805	-0.094457	-0.017259	0.999840	-0.004689	0.000421	-0.017215	
60523	    0	11.753097	-8.582537	-1.184070	-1.012475	0.024606	-3.444094	0.116028	-0.087891	-0.011414	0.999839	-0.005062	0.000123	-0.017220	
60524	    0	11.886924	-7.724107	-0.613231	-1.161446	0.003815	-3.364550	0.117547	-0.079260	-0.005678	0.999841	-0.005807	0.000019	-0.016822	
60525	    0	13.159931	-7.148222	-0.710971	-1.147516	0.127608	-3.190003	0.130432	-0.073608	-0.006775	0.999856	-0.005737	0.000638	-0.015949	
60526	    0	14.404680	-6.289124	-1.276123	-0.866542	0.271426	-2.905958	0.143095	-0.065030	-0.012677	0.999884	-0.004333	0.001357	-0.014529	
60527	    0	14.721883	-4.751227	-2.372856	-0.401318	0.235946	-2.642902	0.146545	-0.049500	-0.023804	0.999909	-0.002007	0.001180	-0.013214	
60528	    0	13.722462	-4.044315	-2.828435	-0.051309	0.214391	-2.269222	0.136724	-0.042004	-0.028420	0.999934	-0.000257	0.001072	-0.011346	
60529	    0	11.804520	-3.039185	-3.044855	0.225833	0.161173	-1.825740	0.117737	-0.031433	-0.030579	0.999957	0.001129	0.000806	-0.009129	
60530	    0	10.264696	-3.008989	-2.458389	0.482754	0.137140	-1.352703	0.102424	-0.030724	-0.024728	0.999973	0.002414	0.000686	-0.006763	
60531	    0	9.444015	-3.273170	-2.032224	0.798802	0.114632	-0.784306	0.094299	-0.033020	-0.020508	0.999984	0.003994	0.000573	-0.003922	
60532	    0	8.777935	-3.196473	-1.558164	1.003461	0.170136	-0.198556	0.087734	-0.031973	-0.015817	0.999986	0.005017	0.000851	-0.000993	
60533	    0	8.322655	-2.551597	-1.709299	1.086432	0.248147	0.369265	0.083252	-0.025269	-0.017334	0.999982	0.005432	0.001241	0.001846	
60534	    0	7.927558	-1.941379	-2.163681	1.078234	0.351909	0.987444	0.079331	-0.018905	-0.021879	0.999971	0.005391	0.001760	0.004937	
60535	    0	7.557230	-1.424594	-2.747093	1.056879	0.440223	1.616695	0.075623	-0.013489	-0.027710	0.999950	0.005284	0.002201	0.008083	
60536	    0	7.295598	-0.685149	-3.266574	1.004818	0.530448	2.260268	0.072939	-0.005862	-0.032890	0.999920	0.005024	0.002652	0.011301	
60537	    0	7.301270	0.087694	-3.406912	0.863682	0.657871	2.880973	0.072876	0.002075	-0.034302	0.999881	0.004318	0.003289	0.014404	
60538	    0	7.082235	0.048615	-3.175687	0.715868	0.794837	3.504186	0.070671	0.001840	-0.032033	0.999832	0.003579	0.003974	0.017520	
60539	    0	6.651383	-0.100235	-2.596913	0.536386	0.830330	4.091946	0.066406	0.000427	-0.026245	0.999778	0.002682	0.004151	0.020458	
60540	    0	6.334189	-0.354479	-2.038542	0.355754	0.824052	4.670202	0.063316	-0.002029	-0.020651	0.999717	0.001779	0.004120	0.023349	
60541	    0	6.418429	-0.529489	-2.061085	0.181028	0.808047	5.217587	0.064209	-0.003601	-0.020874	0.999651	0.000905	0.004040	0.026085	
60542	    0	6.843500	-0.324331	-2.397487	-0.029759	0.746640	5.722268	0.068400	-0.001289	-0.024230	0.999583	-0.000149	0.003733	0.028607	
60543	    0	7.439314	0.133624	-2.667403	-0.344142	0.639639	6.222026	0.074219	0.003601	-0.026917	0.999509	-0.001720	0.003198	0.031105	
60544	    0	7.540585	-0.038893	-3.014416	-0.643470	0.479598	6.665719	0.075293	0.002025	-0.030329	0.999436	-0.003217	0.002398	0.033322	
60545	    0	8.102994	-0.873243	-2.934728	-0.789046	0.243620	7.063256	0.081238	-0.005981	-0.029419	0.999368	-0.003944	0.001218	0.035309	
60546	    0	9.436975	-1.466380	-2.786394	-0.661620	-0.077456	7.383130	0.094838	-0.011260	-0.027786	0.999312	-0.003307	-0.000387	0.036907	
60547	    0	11.732377	-1.726530	-2.383757	-0.495079	-0.412089	7.654928	0.117920	-0.012817	-0.023560	0.999262	-0.002475	-0.002060	0.038265	
60548	    0	14.633658	-0.845894	-2.345299	-0.263856	-0.789851	7.915679	0.146610	-0.002689	-0.022868	0.999207	-0.001319	-0.003948	0.039568	
60549	    0	17.413802	1.092886	-1.501612	-0.170183	-1.070510	8.087113	0.173584	0.017944	-0.014099	0.999167	-0.000851	-0.005351	0.040424	
60550	    0	19.560117	3.066830	-0.407506	-0.036822	-1.342199	8.129512	0.194161	0.038581	-0.002775	0.999151	-0.000184	-0.006709	0.040636	
60551	    0	21.135864	5.509206	0.699711	0.277215	-1.628566	8.006227	0.208862	0.063477	0.008789	0.999165	0.001386	-0.008141	0.040020	
60552	    0	23.233655	9.609105	1.585089	0.643135	-1.704471	7.712093	0.228256	0.104891	0.018136	0.999215	0.003215	-0.008520	0.038550	
60553	    0	24.937537	13.413824	3.347729	0.862319	-1.321522	7.235845	0.244080	0.142883	0.035706	0.999314	0.004311	-0.006606	0.036171	
60554	    0	25.158103	15.394125	3.644769	1.287521	-0.936501	6.663672	0.246096	0.161959	0.038634	0.999413	0.006436	-0.004682	0.033312	
60555	    0	22.167258	18.104620	-2.228678	1.935300	-0.769923	5.676371	0.216492	0.187439	-0.019653	0.999542	0.009675	-0.003849	0.028378	
60556	    0	17.376789	23.908053	-7.904756	2.321095	-0.763970	4.256676	0.168908	0.243601	-0.075586	0.999699	0.011604	-0.003819	0.021281	
60557	    0	13.291961	30.781607	-6.331690	2.528721	-0.868276	2.644504	0.129089	0.310303	-0.058838	0.999823	0.012643	-0.004341	0.013222	
60558	    0	12.894249	35.196642	-0.693354	2.103669	-0.731869	1.108198	0.127005	0.352717	-0.002759	0.999922	0.010518	-0.003659	0.005541	
60559	    0	14.158353	36.184473	1.295411	1.206406	-0.345614	-0.260164	0.142029	0.361572	0.015381	0.999979	0.006032	-0.001728	-0.001301	
60560	    0	12.953783	33.797492	-1.072389	0.523764	-0.012398	-1.550501	0.132154	0.336984	-0.009832	0.999966	0.002619	-0.000062	-0.007752	
60561	    0	12.115817	27.266719	-4.421114	0.495164	-0.033380	-2.778718	0.124939	0.271057	-0.043518	0.999900	0.002476	-0.000167	-0.013893	
60562	    0	14.240151	28.210176	-5.849112	1.584959	-0.213833	-4.368413	0.148584	0.279352	-0.056113	0.999729	0.007924	-0.001069	-0.021840	
60563	    0	16.498034	16.118947	-13.514315	0.770098	-0.449430	-5.548063	0.169678	0.157043	-0.134155	0.999605	0.003850	-0.002247	-0.027737	
60564	    0	13.697597	-12.413412	-12.677840	-0.883010	-0.352899	-5.084605	0.133975	-0.128123	-0.125980	0.999665	-0.004415	-0.001764	-0.025420	
60565	    0	11.070632	-11.502849	-17.779113	0.364720	-1.270227	-4.639122	0.109131	-0.117249	-0.177307	0.999709	0.001823	-0.006351	-0.023193	
60566	    0	20.372140	10.403069	-8.999156	1.579943	-1.132019	-6.183181	0.207323	0.098358	-0.088033	0.999475	0.007898	-0.005659	-0.030910	
60567	    0	27.565050	31.899602	2.750556	0.313059	-1.137009	-6.851813	0.286194	0.309265	0.029602	0.999395	0.001565	-0.005684	-0.034252	
60568	    0	22.892114	25.423489	10.704916	-2.434772	-0.434188	-5.962262	0.236159	0.248549	0.104507	0.999478	-0.012172	-0.002171	-0.029806	
60569	    0	3.967033	-3.202315	3.268059	-1.249055	-1.011567	-4.594875	0.038757	-0.032715	0.033081	0.999703	-0.006245	-0.005057	-0.022972	
60570	    0	2.094531	2.570841	-3.864078	0.460856	-0.812602	-4.497351	0.021674	0.025315	-0.038495	0.999736	0.002304	-0.004063	-0.022485	
60571	    0	6.959465	13.985581	-2.180151	0.458754	-0.507395	-4.295688	0.072632	0.138367	-0.021301	0.999763	0.002294	-0.002537	-0.021477	
60572	    0	11.257464	10.870635	-3.975475	-0.401900	-0.142296	-3.584103	0.114526	0.106586	-0.039889	0.999837	-0.002009	-0.000711	-0.017920	
60573	    0	12.484240	6.105715	-1.760393	-0.815614	-0.137907	-2.936668	0.125732	0.059143	-0.017761	0.999883	-0.004078	-0.000690	-0.014683	
60574	    0	13.508381	7.486728	-2.957840	-0.947220	-0.059893	-2.636233	0.136063	0.072937	-0.029886	0.999902	-0.004736	-0.000299	-0.013181	
60575	    0	14.736824	7.994181	-5.008062	-1.316680	0.000000	-2.254550	0.148254	0.077942	-0.050598	0.999914	-0.006583	0.000000	-0.011272	
60576	    0	14.368320	5.821516	-4.064373	-1.269558	0.029946	-1.874773	0.144213	0.056605	-0.041028	0.999935	-0.006348	0.000150	-0.009374	
60577	    0	13.555277	4.953280	-4.910785	-1.164074	0.070192	-1.603725	0.135925	0.048157	-0.049438	0.999950	-0.005820	0.000351	-0.008018	
60578	    0	15.122498	5.388306	-6.595758	-1.353667	0.086023	-1.436066	0.151576	0.052347	-0.066381	0.999950	-0.006768	0.000430	-0.007180	
60579	    0	19.434358	4.201338	-3.422546	-1.631767	0.173953	-1.300836	0.194580	0.040466	-0.034729	0.999945	-0.008159	0.000870	-0.006504	
60580	    0	21.434825	1.993709	-1.057229	-1.828422	0.187115	-1.269176	0.214458	0.018477	-0.010946	0.999937	-0.009142	0.000936	-0.006346	
60581	    0	20.977802	-0.113242	1.406503	-1.789128	0.158122	-1.192497	0.209778	-0.002258	0.013916	0.999942	-0.008945	0.000791	-0.005962	
60582	    0	21.240110	0.002673	1.591475	-1.669915	0.118449	-1.304460	0.212405	-0.001226	0.015796	0.999943	-0.008349	0.000592	-0.006522	
60583	    0	21.330612	-1.812498	2.159538	-1.761471	0.088503	-1.268793	0.213196	-0.019287	0.021667	0.999941	-0.008807	0.000443	-0.006344	
60584	    0	19.077752	-2.791008	1.637211	-1.975676	0.048257	-1.194790	0.190611	-0.028886	0.016608	0.999933	-0.009878	0.000241	-0.005974	
60585	    0	16.527026	-2.909046	0.742025	-2.085163	0.047494	-1.158933	0.165100	-0.029968	0.007690	0.999928	-0.010426	0.000237	-0.005795	
60586	    0	14.322531	-4.079464	0.329665	-2.107479	0.042535	-1.069285	0.143005	-0.041522	0.003701	0.999929	-0.010537	0.000213	-0.005346	
60587	    0	12.311508	-3.495619	-0.955585	-1.923218	0.002289	-1.072715	0.122925	-0.035706	-0.009216	0.999939	-0.009616	0.000011	-0.005363	
60588	    0	11.425379	-4.439898	0.252479	-1.717025	-0.000572	-1.072139	0.114014	-0.044987	0.002910	0.999949	-0.008585	-0.000003	-0.005361	
60589	    0	9.319050	-3.157343	-1.285725	-1.461621	0.022888	-1.072708	0.093018	-0.032166	-0.012634	0.999958	-0.007308	0.000114	-0.005363	
60590	    0	8.348588	-4.279988	-2.689976	-1.187719	0.106622	-1.065456	0.083241	-0.043403	-0.026688	0.999968	-0.005939	0.000533	-0.005327	
60591	    0	8.324760	-6.514338	-2.599972	-0.815398	0.205232	-1.023872	0.082886	-0.065674	-0.025818	0.999977	-0.004077	0.001026	-0.005119	
60592	    0	8.693364	-7.332633	-2.778708	-0.017929	0.266458	-1.048093	0.086511	-0.073783	-0.027896	0.999985	-0.000090	0.001332	-0.005240	
60593	    0	9.182299	-6.019606	-3.292641	0.490765	0.280001	-1.344311	0.091370	-0.060730	-0.033203	0.999973	0.002454	0.001400	-0.006721	
60594	    0	8.951074	-3.289787	-3.725395	0.759901	0.374991	-1.887546	0.089126	-0.033598	-0.037548	0.999946	0.003799	0.001875	-0.009438	
60595	    0	9.700362	0.917657	-4.109206	1.216358	0.326549	-2.572720	0.097046	0.008179	-0.041199	0.999897	0.006082	0.001633	-0.012863	
60596	    0	10.649686	7.612463	-9.188260	1.346858	0.097280	-3.495230	0.107768	0.074865	-0.091428	0.999824	0.006734	0.000486	-0.017475	
60597	    0	11.807809	2.689913	-7.757531	0.438715	0.198566	-3.662318	0.118469	0.024902	-0.077637	0.999829	0.002193	0.000993	-0.018311	
60598	    0	13.700891	-4.628650	-4.683648	-0.136383	0.188265	-3.526871	0.136120	-0.048724	-0.046932	0.999844	-0.000682	0.000941	-0.017633	
60599	    0	14.343431	-10.051686	-2.572247	-0.328654	0.112921	-3.557013	0.141602	-0.103088	-0.025635	0.999840	-0.001643	0.000565	-0.017784	
60600	    0	13.516768	-11.191196	-1.016005	-0.196086	0.021554	-3.591159	0.133128	-0.114325	-0.010063	0.999838	-0.000980	0.000108	-0.017955	
60601	    0	13.124782	-8.563216	-0.861752	-0.082211	-0.056460	-3.557011	0.129700	-0.087952	-0.008545	0.999842	-0.000411	-0.000282	-0.017784	
60602	    0	13.846781	-6.472682	-0.928879	-0.148017	-0.016022	-3.363577	0.137354	-0.067050	-0.009229	0.999858	-0.000740	-0.000080	-0.016817	
60603	    0	15.139943	-6.407877	-2.023722	-0.185974	0.035097	-3.063322	0.150391	-0.066406	-0.020203	0.999882	-0.000930	0.000175	-0.015316	
60604	    0	14.894941	-6.176453	-3.439707	-0.223357	0.062944	-2.678761	0.148093	-0.063790	-0.034373	0.999909	-0.001117	0.000315	-0.013393	
60605	    0	12.636506	-4.854647	-3.973397	-0.401887	0.061036	-2.258350	0.125793	-0.050049	-0.039673	0.999933	-0.002009	0.000305	-0.011292	
60606	    0	10.315397	-3.968544	-3.276520	-0.594911	0.105859	-1.803044	0.102773	-0.040710	-0.032700	0.999954	-0.002975	0.000529	-0.009015	
60607	    0	8.986086	-3.576560	-2.384231	-0.578313	0.147439	-1.345837	0.089600	-0.036438	-0.023804	0.999972	-0.002892	0.000737	-0.006729	
60608	    0	8.336902	-3.479191	-1.587769	-0.365449	0.190545	-0.837520	0.083207	-0.035170	-0.015893	0.999989	-0.001827	0.000953	-0.004188	
60609	    0	8.177933	-2.868693	-1.158440	-0.156403	0.234413	-0.275421	0.081726	-0.028809	-0.011658	0.999997	-0.000782	0.001172	-0.001377	
60610	    0	8.105428	-2.051331	-0.925206	-0.033569	0.284958	0.302124	0.081072	-0.020392	-0.009364	0.999997	-0.000168	0.001425	0.001511	
60611	    0	7.817629	-1.927425	-0.945770	0.032234	0.311280	0.899509	0.078247	-0.018921	-0.009583	0.999989	0.000161	0.001556	0.004498	
60612	    0	7.668862	-1.716901	-1.255579	0.186731	0.322727	1.542108	0.076797	-0.016565	-0.012695	0.999969	0.000934	0.001614	0.007710	
60613	    0	7.573078	-1.597676	-1.668817	0.362594	0.341804	2.135510	0.075867	-0.015137	-0.016846	0.999939	0.001813	0.001709	0.010677	
60614	    0	7.505882	-1.690313	-1.880438	0.597782	0.325786	2.678766	0.075245	-0.015840	-0.018975	0.999904	0.002989	0.001629	0.013393	
60615	    0	7.348590	-1.427331	-2.125590	0.900501	0.290693	3.196864	0.073669	-0.013000	-0.021423	0.999861	0.004502	0.001453	0.015984	
60616	    0	7.154971	-0.704486	-2.062549	1.143337	0.248162	3.723381	0.071637	-0.005593	-0.020749	0.999809	0.005716	0.001241	0.018616	
60617	    0	7.149625	0.182608	-2.228327	1.271161	0.207727	4.230081	0.071411	0.003479	-0.022339	0.999755	0.006355	0.001039	0.021149	
60618	    0	7.557095	0.816746	-2.531141	1.205947	0.186939	4.756833	0.075322	0.010114	-0.025325	0.999698	0.006029	0.000935	0.023782	
60619	    0	7.950235	0.784617	-2.876161	0.958557	0.231198	5.261096	0.079224	0.010071	-0.028809	0.999641	0.004792	0.001156	0.026302	
60620	    0	8.160048	0.553744	-2.973469	0.572666	0.256193	5.740200	0.081357	0.007960	-0.029819	0.999582	0.002863	0.001281	0.028697	
60621	    0	8.356118	0.326993	-2.859307	0.136588	0.232161	6.159423	0.083374	0.005859	-0.028687	0.999524	0.000683	0.001161	0.030792	
60622	    0	8.624841	-0.570643	-2.830798	-0.139070	0.136400	6.507306	0.086354	-0.002917	-0.028364	0.999470	-0.000695	0.000682	0.032531	
60623	    0	9.719915	-1.000971	-2.701213	-0.202981	-0.054752	6.824293	0.097473	-0.006714	-0.026978	0.999417	-0.001015	-0.000274	0.034115	
60624	    0	11.143901	-1.090688	-2.574276	-0.301234	-0.266704	7.108855	0.111768	-0.006976	-0.025581	0.999366	-0.001506	-0.001333	0.035537	
60625	    0	12.696412	-1.295624	-2.163270	-0.301239	-0.497550	7.367094	0.127380	-0.008301	-0.021301	0.999317	-0.001506	-0.002487	0.036827	
60626	    0	14.819451	-0.615941	-1.749348	-0.236950	-0.716573	7.579347	0.148348	-0.000559	-0.016959	0.999274	-0.001184	-0.003582	0.037888	
60627	    0	17.662555	0.501503	-1.622684	-0.088523	-0.963646	7.744275	0.176331	0.011841	-0.015381	0.999238	-0.000443	-0.004817	0.038712	
60628	    0	20.561028	2.882004	-1.229837	-0.015835	-1.201941	7.789339	0.204350	0.036796	-0.011070	0.999223	-0.000079	-0.006008	0.038937	
60629	    0	20.962357	4.444433	0.087762	0.119049	-1.413894	7.664904	0.207703	0.052429	0.002380	0.999240	0.000595	-0.007068	0.038315	
60630	    0	21.743180	6.692488	1.219036	0.643503	-1.519568	7.413548	0.214652	0.074874	0.014061	0.999279	0.003217	-0.007596	0.037059	
60631	    0	23.850477	9.892715	2.723050	1.164687	-1.288119	6.978585	0.234680	0.106995	0.029358	0.999353	0.005822	-0.006439	0.034885	
60632	    0	24.149454	13.408681	2.055514	1.818616	-1.028253	6.366395	0.236955	0.141477	0.023046	0.999438	0.009091	-0.005140	0.031826	
60633	    0	20.645201	17.506740	-2.673710	2.200072	-0.888956	5.477956	0.201660	0.180908	-0.023865	0.999554	0.010999	-0.004444	0.027386	
60634	    0	17.453278	23.016703	-6.601182	2.272071	-0.847520	4.264878	0.169832	0.234547	-0.062637	0.999699	0.011359	-0.004237	0.021322	
60635	    0	13.679945	29.421400	-4.747852	2.325004	-0.868276	2.826857	0.132812	0.296631	-0.043457	0.999823	0.011624	-0.004341	0.014133	
60636	    0	12.151311	34.287253	-0.364806	2.008110	-0.760862	1.327359	0.119238	0.343679	0.000257	0.999920	0.010040	-0.003804	0.006637	
60637	    0	12.766074	36.404897	1.437513	1.188667	-0.385859	-0.097657	0.127808	0.363892	0.016785	0.999980	0.005943	-0.001929	-0.000488	
60638	    0	11.926461	33.287397	-0.963999	0.506406	-0.078774	-1.365483	0.121537	0.332072	-0.008751	0.999973	0.002532	-0.000394	-0.006827	
60639	    0	11.128692	30.691492	-1.450975	0.884275	0.046732	-2.622307	0.115295	0.305481	-0.013184	0.999904	0.004421	0.000234	-0.013111	
60640	    0	13.274535	31.509803	-8.847720	1.410405	-0.297379	-4.118865	0.139334	0.312886	-0.086061	0.999762	0.007051	-0.001487	-0.020593	
60641	    0	15.773457	16.746682	-18.653949	0.119985	-0.352517	-5.132860	0.162292	0.163452	-0.186157	0.999668	0.000600	-0.001762	-0.025661	
60642	    0	17.794997	-11.098335	-17.152629	-1.693331	-0.191327	-4.717177	0.175407	-0.116587	-0.170386	0.999685	-0.008466	-0.000957	-0.023583	
60643	    0	28.280375	-2.320466	-10.991187	0.797567	-0.589067	-5.528986	0.282349	-0.030579	-0.109192	0.999605	0.003987	-0.002945	-0.027641	
60644	    0	35.851222	17.805276	0.366568	0.625210	-0.693703	-8.076412	0.365292	0.163375	0.005451	0.999173	0.003125	-0.003468	-0.040371	
60645	    0	21.413780	6.851927	6.644495	-0.430958	-0.998128	-6.912879	0.216003	0.061218	0.067383	0.999388	-0.002154	-0.004990	-0.034557	
60646	    0	9.168730	16.576544	7.983613	-1.200497	-0.743419	-6.199928	0.096480	0.163301	0.079204	0.999495	-0.006001	-0.003716	-0.030994	
60647	    0	-1.336302	5.761707	-5.228145	-0.513519	-0.993274	-5.216073	-0.011597	0.057800	-0.052490	0.999644	-0.002567	-0.004966	-0.026077	
60648	    0	-0.370106	7.817115	-4.700661	-0.040440	-0.694919	-4.920321	-0.001614	0.078218	-0.047030	0.999691	-0.000202	-0.003474	-0.024599	
60649	    0	5.609697	11.395234	-3.336492	-0.263998	-0.443111	-4.284237	0.058594	0.112671	-0.033386	0.999766	-0.001320	-0.002215	-0.021420	
60650	    0	11.781010	9.984103	-2.468172	-0.658835	-0.201046	-3.587159	0.119599	0.097625	-0.024886	0.999833	-0.003294	-0.001005	-0.017935	
60651	    0	11.889323	7.710244	-0.354102	-0.807033	-0.105290	-3.060278	0.120056	0.075256	-0.003784	0.999874	-0.004035	-0.000526	-0.015301	
60652	    0	13.950687	7.086631	-1.734839	-0.965724	-0.008393	-2.733899	0.140458	0.068866	-0.017678	0.999894	-0.004828	-0.000042	-0.013669	
60653	    0	14.760323	7.669108	-3.776528	-1.132807	0.021363	-2.386544	0.148499	0.074707	-0.038208	0.999912	-0.005664	0.000107	-0.011932	
60654	    0	13.716227	6.359961	-4.674622	-1.157787	-0.039292	-2.005813	0.137798	0.061948	-0.047081	0.999932	-0.005789	-0.000196	-0.010029	
60655	    0	13.698043	5.398376	-4.975837	-1.198600	-0.039483	-1.739534	0.137451	0.052490	-0.050049	0.999944	-0.005993	-0.000197	-0.008698	
60656	    0	16.162959	4.593996	-4.047773	-1.396013	0.024796	-1.486804	0.161959	0.044453	-0.040812	0.999948	-0.006980	0.000124	-0.007434	
60657	    0	18.396166	4.311427	-2.110430	-1.367210	0.033761	-1.458002	0.184265	0.041626	-0.021423	0.999949	-0.006836	0.000169	-0.007290	
60658	    0	18.643133	3.268356	-0.964325	-1.526477	0.085641	-1.331352	0.186639	0.031366	-0.009966	0.999949	-0.007632	0.000428	-0.006657	
60659	    0	17.845187	2.256043	-0.107815	-1.571491	0.104524	-1.262686	0.178589	0.021423	-0.001343	0.999949	-0.007857	0.000523	-0.006313	
60660	    0	18.258832	1.962432	-0.192121	-1.469826	0.111963	-1.259824	0.182706	0.018458	-0.002162	0.999952	-0.007349	0.000560	-0.006299	
60661	    0	18.951584	1.011995	0.259000	-1.637106	0.140383	-1.232169	0.189575	0.008972	0.002380	0.999947	-0.008185	0.000702	-0.006161	
60662	    0	17.673782	-1.155973	0.393787	-1.789316	0.129893	-1.076909	0.176675	-0.012476	0.003932	0.999945	-0.008946	0.000649	-0.005384	
60663	    0	16.537753	-0.632796	0.146142	-2.032324	0.154117	-1.000998	0.165344	-0.007141	0.001404	0.999935	-0.010161	0.000771	-0.005005	
60664	    0	14.482109	-1.525094	0.129207	-2.142572	0.151065	-0.852604	0.144755	-0.015854	0.001350	0.999932	-0.010713	0.000755	-0.004263	
60665	    0	12.617783	-2.043990	-0.256044	-2.137611	0.163273	-0.743119	0.126099	-0.020935	-0.002441	0.999935	-0.010688	0.000816	-0.003716	
60666	    0	11.945022	-3.594818	0.723651	-1.968229	0.209621	-0.658047	0.119339	-0.036268	0.007467	0.999945	-0.009841	0.001048	-0.003290	
60667	    0	10.729117	-1.475711	-0.325868	-1.811056	0.209049	-0.653086	0.107239	-0.015137	-0.003235	0.999952	-0.009055	0.001045	-0.003265	
60668	    0	9.668523	-1.770673	-2.190835	-1.837569	0.255017	-0.608645	0.096602	-0.018202	-0.021866	0.999952	-0.009188	0.001275	-0.003043	
60669	    0	9.485158	-5.131934	-2.715877	-1.821165	0.352674	-0.536355	0.094666	-0.051819	-0.026855	0.999953	-0.009106	0.001763	-0.002682	
60670	    0	9.222038	-7.725994	-3.384011	-1.344312	0.420002	-0.474743	0.091966	-0.077704	-0.033512	0.999972	-0.006721	0.002100	-0.002374	
60671	    0	9.393125	-7.888609	-4.338714	-0.644687	0.433542	-0.682834	0.093567	-0.079346	-0.043335	0.999986	-0.003223	0.002168	-0.003414	
60672	    0	9.991386	-7.218245	-5.108130	0.016976	0.453952	-1.220140	0.099355	-0.072785	-0.051313	0.999978	0.000085	0.002270	-0.006101	
60673	    0	9.966699	-5.657455	-5.338651	0.495919	0.491532	-1.877625	0.098999	-0.057373	-0.053772	0.999949	0.002480	0.002458	-0.009388	
60674	    0	11.196490	-2.255366	-5.319352	1.242873	0.346005	-2.632808	0.111566	-0.023692	-0.053532	0.999892	0.006214	0.001730	-0.013164	
60675	    0	12.400474	4.357372	-8.645870	1.490114	0.161944	-3.574595	0.124695	0.041992	-0.086243	0.999812	0.007450	0.000810	-0.017872	
60676	    0	12.562960	1.073793	-6.856318	0.985586	0.078969	-3.642108	0.125774	0.008786	-0.068566	0.999822	0.004928	0.000395	-0.018209	
60677	    0	14.025972	-4.323401	-5.018772	0.490596	-0.006676	-3.553200	0.139465	-0.045593	-0.050293	0.999839	0.002453	-0.000033	-0.017765	
60678	    0	14.213006	-8.667585	-3.493781	0.046923	-0.082020	-3.543467	0.140579	-0.089168	-0.034901	0.999843	0.000235	-0.000410	-0.017716	
60679	    0	13.787182	-10.552995	-3.282614	-0.141914	-0.140960	-3.449421	0.136047	-0.107910	-0.032654	0.999850	-0.000710	-0.000705	-0.017246	
60680	    0	14.323823	-10.262968	-3.051716	-0.177010	-0.150115	-3.300054	0.141541	-0.105001	-0.030318	0.999863	-0.000885	-0.000751	-0.016500	
60681	    0	15.539761	-9.259824	-3.563823	-0.116734	-0.157744	-3.045009	0.153992	-0.094971	-0.035461	0.999883	-0.000584	-0.000789	-0.015224	
60682	    0	16.212407	-8.371748	-4.154576	-0.080302	-0.173765	-2.696310	0.161012	-0.085910	-0.041371	0.999908	-0.000401	-0.000869	-0.013481	
60683	    0	15.098860	-7.218881	-4.396675	-0.153926	-0.196843	-2.247668	0.150208	-0.073914	-0.043762	0.999935	-0.000770	-0.000984	-0.011238	
60684	    0	12.190490	-5.541529	-4.350075	-0.363164	-0.167658	-1.727318	0.121456	-0.056544	-0.043297	0.999960	-0.001816	-0.000838	-0.008636	
60685	    0	10.258983	-4.106361	-2.987395	-0.526432	-0.079156	-1.183327	0.102356	-0.041748	-0.029724	0.999978	-0.002632	-0.000396	-0.005917	
60686	    0	9.562127	-3.089812	-1.709487	-0.568964	0.047112	-0.642969	0.095517	-0.031254	-0.017029	0.999990	-0.002845	0.000236	-0.003215	
60687	    0	8.772470	-2.924675	-0.713568	-0.532532	0.190163	-0.070953	0.087708	-0.029297	-0.007141	0.999995	-0.002663	0.000951	-0.000355	
60688	    0	7.689873	-3.153604	-0.089105	-0.481988	0.314713	0.585558	0.076989	-0.031313	-0.000937	0.999991	-0.002410	0.001574	0.002928	
60689	    0	7.182511	-3.096823	0.309315	-0.340274	0.429729	1.238260	0.072021	-0.030518	0.002991	0.999976	-0.001701	0.002149	0.006191	
60690	    0	7.558705	-2.663072	0.371372	-0.139811	0.519379	1.877433	0.075842	-0.025917	0.003535	0.999952	-0.000699	0.002597	0.009387	
60691	    0	7.956454	-2.113229	0.535856	0.087168	0.558487	2.490302	0.079834	-0.020142	0.005127	0.999918	0.000436	0.002792	0.012451	
60692	    0	7.919498	-1.691481	0.363355	0.356879	0.550102	3.042344	0.079450	-0.015714	0.003386	0.999879	0.001784	0.002750	0.015211	
60693	    0	7.843545	-1.433712	0.031727	0.686875	0.534850	3.557786	0.078674	-0.012939	0.000061	0.999832	0.003434	0.002674	0.017788	
60694	    0	7.780323	-1.204215	-0.458958	1.057512	0.468861	4.032049	0.078013	-0.010446	-0.004830	0.999780	0.005287	0.002344	0.020159	
60695	    0	7.719517	-0.553973	-1.148147	1.290250	0.383985	4.509388	0.077271	-0.003723	-0.011658	0.999722	0.006451	0.001920	0.022545	
60696	    0	7.746726	-0.162819	-1.828276	1.338344	0.323331	4.975108	0.077444	0.000422	-0.018410	0.999666	0.006691	0.001616	0.024873	
60697	    0	7.926331	-0.338489	-2.240806	1.286672	0.257144	5.402307	0.079285	-0.001099	-0.022522	0.999613	0.006433	0.001286	0.027008	
60698	    0	8.158753	-0.434061	-2.607298	1.171283	0.187329	5.806247	0.081640	-0.001818	-0.026165	0.999560	0.005856	0.000937	0.029027	
60699	    0	8.568089	-0.483495	-2.512951	0.949441	0.148797	6.158681	0.085754	-0.002075	-0.025208	0.999514	0.004746	0.000744	0.030788	
60700	    0	9.163522	-0.737364	-2.363768	0.898330	-0.014498	6.475648	0.091809	-0.004296	-0.023655	0.999465	0.004491	-0.000072	0.032372	
60701	    0	10.357250	-0.711131	-2.828273	0.881366	-0.202791	6.764771	0.103760	-0.003479	-0.028198	0.999417	0.004406	-0.001014	0.033817	
60702	    0	11.974230	-0.741004	-2.888487	0.822050	-0.345875	7.060015	0.119951	-0.003059	-0.028696	0.999367	0.004109	-0.001729	0.035293	
60703	    0	14.263186	-0.488092	-3.203818	0.860983	-0.513575	7.331232	0.142761	0.000488	-0.031677	0.999315	0.004304	-0.002567	0.036648	
60704	    0	16.941970	0.987812	-3.177018	0.844969	-0.661247	7.540045	0.168987	0.016388	-0.031151	0.999274	0.004224	-0.003305	0.037691	
60705	    0	19.950033	3.451000	-3.555184	0.806822	-0.851656	7.700005	0.198120	0.042297	-0.034546	0.999241	0.004033	-0.004257	0.038490	
60706	    0	21.602634	6.537034	-3.476087	0.590472	-1.074679	7.653817	0.213494	0.073674	-0.033400	0.999249	0.002952	-0.005372	0.038260	
60707	    0	20.915237	11.052402	-3.021299	0.451959	-1.225573	7.456462	0.205017	0.118286	-0.028687	0.999283	0.002259	-0.006126	0.037273	
60708	    0	20.711498	14.274459	-1.728310	0.363809	-1.059949	7.064036	0.201989	0.149970	-0.015935	0.999360	0.001819	-0.005299	0.035313	
60709	    0	21.361473	15.931235	-1.264764	0.655482	-0.895660	6.459439	0.208374	0.166138	-0.011169	0.999463	0.003277	-0.004478	0.032291	
60710	    0	20.519931	17.700093	-3.873965	1.065397	-0.849075	5.504201	0.200381	0.182760	-0.036919	0.999598	0.005326	-0.004245	0.027517	
60711	    0	18.681824	21.794196	-5.824866	1.356813	-0.849987	4.244596	0.182373	0.222229	-0.055969	0.999743	0.006783	-0.004250	0.021221	
60712	    0	15.351295	27.704561	-2.326891	1.693998	-0.867886	2.831406	0.149661	0.279363	-0.020254	0.999854	0.008470	-0.004339	0.014156	
60713	    0	12.725787	31.901291	1.642798	1.822707	-0.790234	1.367221	0.125000	0.319702	0.019836	0.999927	0.009113	-0.003951	0.006836	
60714	    0	12.422809	33.245556	2.503772	1.520745	-0.512129	-0.050927	0.124244	0.332219	0.027883	0.999968	0.007604	-0.002561	-0.000255	
60715	    0	11.428291	30.818043	0.905131	1.308461	-0.288205	-1.382468	0.116394	0.307312	0.011230	0.999953	0.006542	-0.001441	-0.006912	
60716	    0	10.664034	28.001818	0.291546	1.716302	-0.239382	-2.595435	0.110256	0.278563	0.005441	0.999878	0.008581	-0.001197	-0.012977	
60717	    0	12.812484	29.622876	-3.464511	2.394333	-0.445409	-4.127134	0.134277	0.293884	-0.030823	0.999713	0.011971	-0.002227	-0.020634	
60718	    0	14.202747	21.971958	-14.938187	1.915411	-0.861277	-5.092693	0.148219	0.217411	-0.146663	0.999620	0.009576	-0.004306	-0.025460	
60719	    0	14.107248	-3.084549	-19.608054	-0.701791	-0.662305	-5.055795	0.140869	-0.035095	-0.195496	0.999668	-0.003509	-0.003311	-0.025276	
60720	    0	16.399547	-8.103242	-24.281912	0.194759	-1.397460	-4.623291	0.163759	-0.084584	-0.241755	0.999707	0.000974	-0.006987	-0.023114	
60721	    0	35.461852	19.814501	-4.984532	0.913453	-0.763691	-7.403773	0.361816	0.185059	-0.047607	0.999297	0.004566	-0.003818	-0.037010	
60722	    0	31.790729	18.207544	7.084219	-0.833691	-0.996995	-7.066912	0.323725	0.171001	0.071718	0.999354	-0.004168	-0.004984	-0.035327	
60723	    0	15.075298	13.947846	10.067913	-1.907649	-0.630096	-5.805356	0.154419	0.135986	0.099854	0.999528	-0.009537	-0.003150	-0.029022	
60724	    0	-0.502578	-1.711974	-2.252766	-0.565968	-1.086537	-4.794610	-0.005313	-0.017058	-0.022508	0.999694	-0.002830	-0.005432	-0.023971	
60725	    0	-0.420863	8.330703	-3.717591	0.334391	-0.851523	-4.737551	-0.002075	0.083435	-0.037048	0.999708	0.001672	-0.004257	-0.023685	
60726	    0	5.015353	14.007340	-2.266066	0.121698	-0.571868	-4.318388	0.053226	0.138960	-0.022427	0.999763	0.000608	-0.002859	-0.021590	
60727	    0	11.916781	9.725255	-2.925641	-0.550109	-0.269142	-3.557017	0.120911	0.095032	-0.029358	0.999837	-0.002750	-0.001346	-0.017784	
60728	    0	12.864050	6.926347	-1.227030	-0.686864	-0.275814	-2.997708	0.129676	0.067283	-0.012325	0.999881	-0.003434	-0.001379	-0.014988	
60729	    0	14.747610	7.630851	-3.334534	-1.052702	-0.147252	-2.665039	0.148499	0.074158	-0.033630	0.999897	-0.005263	-0.000736	-0.013325	
60730	    0	15.152226	6.930227	-4.404357	-1.327743	-0.121883	-2.250926	0.152314	0.067297	-0.044402	0.999914	-0.006639	-0.000609	-0.011254	
60731	    0	15.075761	6.633760	-4.351576	-1.241140	-0.128177	-1.972243	0.151428	0.064575	-0.043823	0.999931	-0.006206	-0.000641	-0.009861	
60732	    0	13.645185	5.148476	-6.058715	-1.371983	-0.110247	-1.685557	0.136910	0.049915	-0.060858	0.999940	-0.006860	-0.000551	-0.008428	
60733	    0	16.228370	3.363164	-4.615689	-1.516753	-0.021172	-1.522856	0.162537	0.032043	-0.046387	0.999942	-0.007584	-0.000106	-0.007614	
60734	    0	19.677836	2.940979	-1.819883	-1.487568	0.034905	-1.475361	0.196984	0.027821	-0.018444	0.999945	-0.007438	0.000175	-0.007377	
60735	    0	20.541825	3.145090	-0.561219	-1.785889	0.094607	-1.391631	0.205627	0.029968	-0.005981	0.999935	-0.008929	0.000473	-0.006958	
60736	    0	19.779168	0.216680	1.237186	-1.764905	0.093462	-1.280429	0.197806	0.001009	0.012267	0.999940	-0.008824	0.000467	-0.006402	
60737	    0	19.828840	0.269796	0.825508	-1.750218	0.060464	-1.316097	0.198303	0.001465	0.008179	0.999940	-0.008751	0.000302	-0.006580	
60738	    0	19.952016	0.146351	1.417896	-1.822128	0.030709	-1.292256	0.199527	0.000303	0.014142	0.999937	-0.009110	0.000154	-0.006461	
60739	    0	17.675645	-0.953798	0.752756	-2.110342	0.006294	-1.177244	0.176697	-0.010498	0.007629	0.999927	-0.010551	0.000031	-0.005886	
60740	    0	15.519910	-1.956762	1.320671	-2.137235	0.000763	-1.067759	0.155092	-0.020253	0.013420	0.999928	-0.010686	0.000004	-0.005339	
60741	    0	13.643299	-1.628426	0.292343	-2.168134	-0.012207	-0.961326	0.136353	-0.016907	0.003113	0.999929	-0.010840	-0.000061	-0.004807	
60742	    0	12.095504	-4.235017	0.505912	-2.096221	-0.014878	-0.827998	0.120778	-0.042794	0.005515	0.999936	-0.010481	-0.000074	-0.004140	
60743	    0	10.822742	-3.433812	0.944372	-1.788931	-0.023651	-0.769818	0.108093	-0.034668	0.009766	0.999952	-0.008945	-0.000118	-0.003849	
60744	    0	9.220229	-2.449755	-0.628363	-1.677346	0.030709	-0.725184	0.092112	-0.024883	-0.006090	0.999958	-0.008387	0.000154	-0.003626	
60745	    0	8.381559	-3.988349	-1.723915	-1.574535	0.106813	-0.634010	0.083679	-0.040283	-0.016968	0.999964	-0.007873	0.000534	-0.003170	
60746	    0	8.483078	-6.131710	-1.603343	-1.321995	0.219156	-0.571256	0.084638	-0.061664	-0.015719	0.999973	-0.006610	0.001096	-0.002856	
60747	    0	9.119609	-6.841291	-1.826860	-0.845341	0.327493	-0.652317	0.090942	-0.068787	-0.018127	0.999984	-0.004227	0.001637	-0.003262	
60748	    0	9.863481	-7.670284	-2.133354	-0.191308	0.394441	-0.938038	0.098231	-0.077185	-0.021454	0.999986	-0.000957	0.001972	-0.004690	
60749	    0	10.084419	-6.506323	-2.991695	0.567634	0.461012	-1.507586	0.100281	-0.065735	-0.030334	0.999965	0.002838	0.002305	-0.007538	
60750	    0	10.056491	-4.718997	-3.349067	1.252018	0.531021	-2.186263	0.099953	-0.048073	-0.034056	0.999917	0.006260	0.002655	-0.010931	
60751	    0	11.323448	2.804864	-6.204434	1.890866	0.288408	-3.243447	0.113586	0.026794	-0.061951	0.999823	0.009454	0.001442	-0.016216	
60752	    0	10.793704	3.499144	-8.323857	1.549633	0.172627	-3.681428	0.108493	0.033642	-0.083068	0.999800	0.007748	0.000863	-0.018406	
60753	    0	11.680715	-3.556136	-5.537025	0.917292	0.110632	-3.412806	0.116150	-0.037292	-0.055603	0.999844	0.004586	0.000553	-0.017063	
60754	    0	13.009154	-9.120521	-3.324153	0.521685	0.076107	-3.338400	0.128533	-0.093272	-0.033532	0.999857	0.002608	0.000381	-0.016691	
60755	    0	13.102547	-10.531826	-2.287350	0.287832	-0.025941	-3.290707	0.129272	-0.107422	-0.023010	0.999863	0.001439	-0.000130	-0.016453	
60756	    0	12.899388	-9.003143	-2.751762	0.151069	-0.082973	-3.207535	0.127540	-0.092064	-0.027534	0.999870	0.000755	-0.000415	-0.016037	
60757	    0	13.610014	-7.911546	-3.033546	-0.087741	-0.039484	-3.027459	0.134888	-0.081177	-0.030273	0.999885	-0.000439	-0.000197	-0.015137	
60758	    0	15.110604	-7.548564	-4.045439	-0.298700	0.016404	-2.747242	0.150046	-0.077612	-0.040352	0.999904	-0.001493	0.000082	-0.013736	
60759	    0	15.500906	-7.434948	-4.967804	-0.551428	0.038911	-2.341518	0.154114	-0.076294	-0.049500	0.999928	-0.002757	0.000195	-0.011707	
60760	    0	14.021826	-7.121478	-4.717164	-0.830093	0.079538	-1.887927	0.139518	-0.072729	-0.046927	0.999947	-0.004150	0.000398	-0.009439	
60761	    0	11.436982	-6.343211	-4.388986	-0.966656	0.105478	-1.419848	0.113892	-0.064453	-0.043640	0.999963	-0.004833	0.000527	-0.007099	
60762	    0	9.719563	-5.150288	-3.541553	-0.972374	0.204088	-0.926597	0.096919	-0.052124	-0.035262	0.999976	-0.004862	0.001020	-0.004633	
60763	    0	9.083168	-4.223924	-2.730911	-0.814823	0.322915	-0.421144	0.090698	-0.042542	-0.027283	0.999988	-0.004074	0.001615	-0.002106	
60764	    0	8.622039	-2.700594	-2.250238	-0.736620	0.433542	0.110436	0.086186	-0.027041	-0.022590	0.999990	-0.003683	0.002168	0.000552	
60765	    0	8.061399	-1.663527	-1.669742	-0.791173	0.529674	0.702671	0.080627	-0.016418	-0.016846	0.999982	-0.003956	0.002648	0.003513	
60766	    0	7.460505	-1.582188	-1.280746	-0.778016	0.597198	1.331535	0.074670	-0.015375	-0.012970	0.999966	-0.003890	0.002986	0.006658	
60767	    0	7.105546	-2.141452	-1.059118	-0.551615	0.586902	1.944769	0.071228	-0.020752	-0.010742	0.999944	-0.002758	0.002934	0.009724	
60768	    0	7.312626	-2.049014	-0.845729	-0.183683	0.562302	2.531886	0.073354	-0.019570	-0.008645	0.999915	-0.000918	0.002811	0.012659	
60769	    0	7.330517	-1.437719	-1.072951	0.217637	0.492879	3.052643	0.073486	-0.013245	-0.010925	0.999880	0.001088	0.002464	0.015263	
60770	    0	7.362585	-1.269295	-1.559365	0.665511	0.420975	3.568276	0.073803	-0.011325	-0.015788	0.999832	0.003327	0.002105	0.017840	
60771	    0	7.365840	-0.930172	-2.113933	1.082691	0.318360	4.057612	0.073792	-0.007690	-0.021301	0.999778	0.005413	0.001592	0.020287	
60772	    0	7.566555	-0.370408	-2.437719	1.365028	0.222227	4.561284	0.075694	-0.001811	-0.024478	0.999716	0.006824	0.001111	0.022804	
60773	    0	8.147341	0.467513	-2.972224	1.491911	0.118269	5.066507	0.081299	0.006958	-0.029724	0.999651	0.007459	0.000591	0.025330	
60774	    0	8.602895	1.534863	-3.476863	1.283437	0.069818	5.530146	0.085545	0.017941	-0.034689	0.999597	0.006416	0.000349	0.027647	
60775	    0	8.770773	1.831074	-3.582290	0.833446	0.063333	5.949534	0.087097	0.021057	-0.035767	0.999548	0.004167	0.000317	0.029743	
60776	    0	9.222403	1.060998	-3.310161	0.396795	0.049027	6.308652	0.091819	0.013577	-0.033099	0.999500	0.001984	0.000245	0.031538	
60777	    0	9.867302	-0.434682	-3.231850	0.210038	-0.067151	6.634214	0.098755	-0.001038	-0.032288	0.999449	0.001050	-0.000336	0.033165	
60778	    0	11.302865	-1.336917	-3.125255	0.241900	-0.236176	6.871052	0.113435	-0.009439	-0.031132	0.999408	0.001209	-0.001181	0.034348	
60779	    0	13.229002	-1.101707	-3.034802	0.326797	-0.408258	7.064007	0.132629	-0.006287	-0.030090	0.999372	0.001634	-0.002041	0.035313	
60780	    0	15.173410	-0.434160	-2.950887	0.260792	-0.560503	7.264411	0.151839	0.001211	-0.029084	0.999335	0.001304	-0.002802	0.036314	
60781	    0	17.370452	-0.686146	-2.665816	0.174182	-0.688332	7.445736	0.173889	-0.000366	-0.026062	0.999300	0.000871	-0.003441	0.037220	
60782	    0	20.933846	-0.211530	-2.754620	0.316125	-0.889995	7.593481	0.209336	0.005877	-0.026609	0.999268	0.001580	-0.004449	0.037958	
60783	    0	24.171189	2.884514	-2.745539	0.409227	-1.147742	7.574031	0.240540	0.038025	-0.026001	0.999264	0.002046	-0.005737	0.037861	
60784	    0	23.520867	7.049951	-1.585218	0.391288	-1.372465	7.318666	0.232520	0.079071	-0.014101	0.999305	0.001956	-0.006861	0.036585	
60785	    0	22.581525	10.824021	0.628672	0.576138	-1.293258	6.887710	0.221863	0.115906	0.008057	0.999381	0.002880	-0.006465	0.034431	
60786	    0	21.593903	11.110251	0.743571	1.155671	-1.164065	6.220746	0.212296	0.117694	0.009346	0.999482	0.005777	-0.005819	0.031098	
60787	    0	19.916951	13.307380	-3.157110	2.128337	-1.203330	5.365004	0.195679	0.138672	-0.028931	0.999565	0.010640	-0.006016	0.026821	
60788	    0	16.863075	21.821517	-6.204802	2.260809	-1.115717	4.115695	0.164417	0.222303	-0.058625	0.999708	0.011303	-0.005578	0.020576	
60789	    0	14.131366	26.572246	-3.325167	2.025912	-1.093355	2.925279	0.137573	0.268066	-0.029785	0.999826	0.010129	-0.005466	0.014626	
60790	    0	12.461475	28.963744	1.161814	2.018230	-0.954659	1.651626	0.122151	0.290512	0.015134	0.999903	0.010091	-0.004773	0.008258	
60791	    0	11.144354	28.912579	0.792741	1.831847	-0.628481	0.269322	0.111023	0.289185	0.010925	0.999951	0.009159	-0.003142	0.001347	
60792	    0	10.076660	27.474583	-1.920426	1.745827	-0.413521	-1.028842	0.102215	0.274375	-0.016598	0.999946	0.008729	-0.002068	-0.005144	
60793	    0	9.053714	27.711022	-2.853623	1.755584	-0.363744	-2.243882	0.093689	0.276306	-0.025940	0.999896	0.008778	-0.001819	-0.011219	
60794	    0	9.129862	25.919573	-3.470649	1.863399	-0.433566	-3.244592	0.095562	0.257976	-0.032095	0.999823	0.009316	-0.002168	-0.016222	
60795	    0	12.414029	29.178785	-7.247813	2.118900	-0.576651	-4.446104	0.130798	0.289673	-0.069031	0.999692	0.010593	-0.002883	-0.022228	
60796	    0	14.170169	21.567974	-17.974329	0.661734	-0.802321	-5.098918	0.147865	0.212554	-0.178452	0.999661	0.003308	-0.004011	-0.025492	
60797	    0	16.725768	-3.898948	-14.747413	-2.074482	-0.216700	-4.848280	0.166382	-0.044556	-0.146851	0.999651	-0.010371	-0.001083	-0.024239	
60798	    0	26.939480	-3.127302	-5.746334	-0.611943	-0.399060	-4.999311	0.268612	-0.038169	-0.056817	0.999681	-0.003059	-0.001995	-0.024994	
60799	    0	39.320156	17.832985	-1.649705	0.160253	-0.954461	-7.278551	0.399414	0.163879	-0.014465	0.999326	0.000801	-0.004771	-0.036385	
60800	    0	25.105485	6.040230	3.990070	-0.356554	-1.161422	-6.760400	0.252669	0.051951	0.041267	0.999410	-0.001782	-0.005806	-0.033795	
60801	    0	13.888633	13.050049	7.654734	-0.911877	-0.810197	-6.458682	0.142700	0.126282	0.076538	0.999459	-0.004559	-0.004050	-0.032288	
60802	    0	0.583301	0.949803	-4.528391	-0.272974	-1.083695	-5.251180	0.006324	0.009274	-0.045263	0.999640	-0.001365	-0.005418	-0.026253	
60803	    0	-1.665409	7.918886	-6.588432	0.260381	-1.007189	-4.978717	-0.014343	0.079651	-0.065857	0.999676	0.001302	-0.005035	-0.024891	
60804	    0	1.704215	14.133094	-3.709998	-0.278114	-0.714360	-4.328886	0.020227	0.140864	-0.037228	0.999758	-0.001390	-0.003572	-0.021643	
60805	    0	9.323170	9.996141	-2.488508	-0.685920	-0.422501	-3.537181	0.095032	0.098206	-0.025024	0.999835	-0.003429	-0.002112	-0.017685	
60806	    0	11.950003	8.731379	-0.473742	-0.635554	-0.303281	-3.029755	0.120811	0.085475	-0.004828	0.999879	-0.003178	-0.001516	-0.015148	
60807	    0	13.570487	8.462963	-2.147018	-0.878173	-0.157743	-2.684873	0.136841	0.082703	-0.021729	0.999900	-0.004391	-0.000789	-0.013424	
60808	    0	15.247609	7.963274	-4.663428	-1.201855	-0.126652	-2.340194	0.153421	0.077559	-0.047008	0.999913	-0.006009	-0.000633	-0.011701	
60809	    0	15.557676	6.490327	-5.107700	-1.284057	-0.198941	-1.954696	0.156250	0.063049	-0.051331	0.999930	-0.006420	-0.000995	-0.009773	
60810	    0	14.357082	4.636377	-4.838544	-1.170370	-0.293355	-1.654272	0.144017	0.044890	-0.048440	0.999948	-0.005852	-0.001467	-0.008271	
60811	    0	15.880888	5.501475	-4.013607	-1.420618	-0.221066	-1.432825	0.159241	0.053589	-0.040344	0.999948	-0.007103	-0.001105	-0.007164	
60812	    0	16.857367	4.882199	-2.380016	-1.558330	-0.193599	-1.265547	0.168900	0.047567	-0.024011	0.999949	-0.007792	-0.000968	-0.006328	
60813	    0	17.050434	3.709186	-1.466875	-1.799045	-0.121119	-1.110861	0.170715	0.036011	-0.014893	0.999944	-0.008995	-0.000606	-0.005554	
60814	    0	16.549121	2.142753	-1.126149	-1.878583	-0.084497	-1.016827	0.165602	0.020479	-0.011387	0.999943	-0.009393	-0.000422	-0.005084	
60815	    0	17.347377	0.927557	-1.203436	-1.779969	-0.100519	-1.000231	0.173523	0.008301	-0.012024	0.999948	-0.008900	-0.000503	-0.005001	
60816	    0	17.935975	0.999925	-1.104981	-1.835284	-0.123789	-0.990695	0.179413	0.009009	-0.011024	0.999945	-0.009176	-0.000619	-0.004953	
60817	    0	17.701336	-0.258050	-0.524481	-2.045292	-0.096895	-0.886554	0.177002	-0.003418	-0.005127	0.999937	-0.010226	-0.000484	-0.004433	
60818	    0	16.069630	-0.824316	-0.618769	-2.163172	-0.077631	-0.804156	0.160664	-0.008955	-0.006031	0.999933	-0.010816	-0.000388	-0.004021	
60819	    0	14.781126	-1.330892	-0.387485	-2.223256	-0.082209	-0.682846	0.147766	-0.013855	-0.003662	0.999932	-0.011116	-0.000411	-0.003414	
60820	    0	13.388989	-1.641758	-0.670373	-2.133413	-0.068666	-0.605023	0.133842	-0.016892	-0.006479	0.999938	-0.010667	-0.000343	-0.003025	
60821	    0	12.843534	-2.841124	0.784433	-1.939234	0.006104	-0.550089	0.128357	-0.028687	0.008118	0.999949	-0.009696	0.000031	-0.002750	
60822	    0	11.332313	-2.035746	0.250385	-1.703857	0.045205	-0.488097	0.113274	-0.020612	0.002653	0.999960	-0.008519	0.000226	-0.002440	
60823	    0	9.416466	-1.832069	-0.780722	-1.603718	0.067330	-0.495154	0.094116	-0.018616	-0.007690	0.999965	-0.008018	0.000337	-0.002476	
60824	    0	8.837480	-3.222992	-0.430635	-1.669333	0.209239	-0.442320	0.088299	-0.032460	-0.004128	0.999962	-0.008347	0.001046	-0.002212	
60825	    0	7.804435	-5.739744	-0.357457	-1.609058	0.315288	-0.337986	0.077942	-0.057556	-0.003235	0.999965	-0.008045	0.001576	-0.001690	
60826	    0	7.696059	-6.831467	-1.547085	-1.229295	0.414088	-0.328257	0.076817	-0.068535	-0.015209	0.999977	-0.006146	0.002070	-0.001641	
60827	    0	8.920249	-7.751083	-1.767751	-0.514032	0.499727	-0.592043	0.088928	-0.077820	-0.017700	0.999989	-0.002570	0.002499	-0.002960	
60828	    0	10.397988	-6.021573	-2.214437	0.304797	0.515179	-1.184472	0.103563	-0.060796	-0.022504	0.999977	0.001524	0.002576	-0.005922	
60829	    0	10.193907	-4.650480	-4.281981	1.095795	0.507366	-1.915782	0.101379	-0.047241	-0.043335	0.999935	0.005479	0.002537	-0.009579	
60830	    0	11.566693	-0.952155	-5.378358	1.943682	0.377292	-2.771130	0.115423	-0.010597	-0.054101	0.999854	0.009718	0.001886	-0.013855	
60831	    0	12.047742	2.303426	-9.153905	2.018118	0.191702	-3.592174	0.120789	0.021790	-0.091431	0.999787	0.010090	0.000958	-0.017960	
60832	    0	11.664299	-3.664803	-5.909696	1.595405	0.011636	-3.499056	0.115980	-0.038208	-0.059404	0.999815	0.007977	0.000058	-0.017494	
60833	    0	13.253631	-7.084977	-3.346539	1.289442	-0.086026	-3.499806	0.131287	-0.072937	-0.033875	0.999825	0.006447	-0.000430	-0.017498	
60834	    0	14.218920	-6.878184	-2.614047	0.963079	-0.207723	-3.690181	0.140917	-0.071263	-0.026333	0.999817	0.004815	-0.001039	-0.018450	
60835	    0	14.269815	-5.847124	-2.755303	0.470762	-0.322552	-3.788989	0.141602	-0.061096	-0.027466	0.999816	0.002354	-0.001613	-0.018944	
60836	    0	14.552787	-6.257048	-2.912495	-0.162706	-0.335713	-3.694747	0.144387	-0.065269	-0.028830	0.999827	-0.000813	-0.001678	-0.018473	
60837	    0	15.892870	-7.215349	-3.462093	-0.691830	-0.234234	-3.388384	0.157715	-0.074951	-0.034180	0.999849	-0.003459	-0.001171	-0.016941	
60838	    0	17.902714	-8.408539	-3.744061	-0.978128	-0.106434	-2.971198	0.177770	-0.086914	-0.036925	0.999877	-0.004890	-0.000532	-0.014855	
60839	    0	18.757198	-8.607641	-3.633885	-1.004632	-0.009919	-2.532274	0.186462	-0.088623	-0.035889	0.999907	-0.005023	-0.000050	-0.012661	
60840	    0	16.416215	-7.429241	-3.736323	-0.924131	-0.018692	-2.133036	0.163360	-0.076209	-0.036999	0.999932	-0.004621	-0.000093	-0.010665	
60841	    0	12.482869	-5.205244	-3.714728	-0.855268	-0.089838	-1.723507	0.124390	-0.053284	-0.036865	0.999953	-0.004276	-0.000449	-0.008617	
60842	    0	10.384989	-3.711448	-2.475250	-0.866708	0.012970	-1.246464	0.103614	-0.037868	-0.024596	0.999970	-0.004333	0.000065	-0.006232	
60843	    0	9.472104	-3.105240	-1.531694	-0.805668	0.143624	-0.674442	0.094604	-0.031433	-0.015259	0.999986	-0.004028	0.000718	-0.003372	
60844	    0	8.930745	-3.283163	-1.064166	-0.679971	0.242615	-0.035477	0.089289	-0.032884	-0.010638	0.999993	-0.003400	0.001213	-0.000177	
60845	    0	8.625919	-3.506213	-0.733397	-0.525476	0.331117	0.675204	0.086365	-0.034790	-0.007385	0.999989	-0.002627	0.001656	0.003376	
60846	    0	8.076697	-3.315861	-0.666095	-0.333217	0.324824	1.367390	0.080980	-0.032617	-0.006738	0.999973	-0.001666	0.001624	0.006837	
60847	    0	7.497410	-2.365392	-1.088552	-0.151637	0.315100	2.060737	0.075195	-0.022888	-0.010986	0.999945	-0.000758	0.001575	0.010303	
60848	    0	7.188088	-1.635333	-1.401864	-0.055696	0.344287	2.706612	0.072069	-0.015383	-0.014138	0.999907	-0.000278	0.001721	0.013533	
60849	    0	7.262908	-1.726750	-1.407817	0.121504	0.365465	3.315126	0.072876	-0.016052	-0.014221	0.999861	0.000607	0.001827	0.016575	
60850	    0	7.400159	-1.836038	-1.658546	0.402476	0.316640	3.855376	0.074310	-0.016896	-0.016738	0.999810	0.002012	0.001583	0.019276	
60851	    0	7.591759	-1.661839	-1.779403	0.639396	0.264952	4.383447	0.076233	-0.014893	-0.017944	0.999753	0.003197	0.001325	0.021915	
60852	    0	7.827064	-1.244986	-1.749035	0.754625	0.223755	4.902008	0.078524	-0.010461	-0.017620	0.999691	0.003773	0.001119	0.024508	
60853	    0	8.259526	-1.066225	-1.893702	0.764750	0.171683	5.383965	0.082825	-0.008362	-0.019043	0.999630	0.003823	0.000858	0.026917	
60854	    0	8.764187	-0.819908	-2.001291	0.698572	0.122470	5.856409	0.087818	-0.005559	-0.020089	0.999564	0.003492	0.000612	0.029278	
60855	    0	9.262525	-0.504716	-2.382139	0.544256	0.075543	6.272398	0.092712	-0.002075	-0.023865	0.999504	0.002721	0.000378	0.031357	
60856	    0	9.671142	-0.538108	-2.361618	0.374291	-0.015071	6.662460	0.096820	-0.002112	-0.023615	0.999443	0.001871	-0.000075	0.033306	
60857	    0	10.361482	-0.959336	-2.137034	0.328322	-0.155672	7.009037	0.103882	-0.005920	-0.021301	0.999384	0.001641	-0.000778	0.035038	
60858	    0	11.621254	-1.445665	-2.156928	0.360379	-0.320697	7.308495	0.116671	-0.010159	-0.021403	0.999329	0.001801	-0.001603	0.036534	
60859	    0	14.064831	-1.126912	-2.114062	0.397588	-0.486683	7.619806	0.140991	-0.005859	-0.020813	0.999269	0.001987	-0.002433	0.038090	
60860	    0	16.613911	0.469338	-2.231126	0.320136	-0.585898	7.850961	0.165848	0.011244	-0.021811	0.999224	0.001600	-0.002929	0.039245	
60861	    0	18.205069	2.392656	-1.777136	0.371651	-0.759901	7.973327	0.180969	0.031189	-0.017029	0.999196	0.001858	-0.003798	0.039856	
60862	    0	19.437557	4.888873	-1.881276	0.550228	-1.025286	7.972203	0.192313	0.056633	-0.017674	0.999188	0.002750	-0.005125	0.039850	
60863	    0	21.236866	8.810130	-1.697671	0.689116	-1.212439	7.826004	0.208801	0.096375	-0.015381	0.999209	0.003445	-0.006061	0.039120	
60864	    0	23.394598	12.907015	-0.289365	0.709134	-1.146977	7.518116	0.228886	0.137745	-0.001093	0.999270	0.003545	-0.005733	0.037581	
60865	    0	23.015375	15.222330	1.495737	0.963225	-0.943957	7.021301	0.224548	0.160095	0.016785	0.999361	0.004815	-0.004719	0.035099	
60866	    0	21.227902	17.147513	-0.347987	1.584708	-0.818203	6.189463	0.206846	0.177949	-0.001233	0.999481	0.007922	-0.004090	0.030942	
60867	    0	18.316698	21.146789	-4.674595	2.067246	-0.782108	4.938346	0.178040	0.216370	-0.043823	0.999634	0.010335	-0.003910	0.024689	
60868	    0	16.072526	27.388161	-4.959802	2.270105	-0.838914	3.464575	0.156140	0.277147	-0.045803	0.999776	0.011350	-0.004194	0.017322	
60869	    0	13.481480	31.921053	-0.053660	2.154051	-0.764494	1.970747	0.131653	0.320496	0.003418	0.999886	0.010770	-0.003822	0.009853	
60870	    0	12.724346	33.690349	3.572492	1.861794	-0.458343	0.539598	0.126247	0.336891	0.039151	0.999950	0.009309	-0.002292	0.002698	
60871	    0	11.556679	31.589430	1.944672	1.541919	-0.160791	-0.728616	0.116699	0.315308	0.021973	0.999963	0.007710	-0.000804	-0.003643	
60872	    0	12.445229	26.822648	-1.244544	1.376184	-0.095370	-1.908728	0.127010	0.267099	-0.010545	0.999930	0.006881	-0.000477	-0.009543	
60873	    0	10.893685	23.112340	-3.357579	1.767825	-0.194369	-3.111434	0.112549	0.229675	-0.031433	0.999839	0.008839	-0.000972	-0.015556	
60874	    0	11.218480	23.559424	-4.271441	2.849703	-0.424051	-4.272171	0.117276	0.233700	-0.039130	0.999668	0.014247	-0.002120	-0.021358	
60875	    0	13.907123	19.506910	-16.961664	1.908555	-0.830188	-5.233693	0.144836	0.192932	-0.167175	0.999603	0.009542	-0.004150	-0.026165	
60876	    0	10.651615	-5.679523	-20.879196	-0.708837	-0.703305	-4.640443	0.105882	-0.059996	-0.208210	0.999718	-0.003544	-0.003516	-0.023200	
60877	    0	13.000636	-3.486813	-30.906673	0.231191	-1.806610	-4.233926	0.132019	-0.037292	-0.307922	0.999734	0.001156	-0.009032	-0.021168	
60878	    0	34.699686	21.129463	-15.548524	0.684489	-1.250700	-6.662322	0.354748	0.200088	-0.152585	0.999419	0.003422	-0.006252	-0.033305	
60879	    0	39.883639	25.816299	10.743359	-2.035981	-0.797261	-7.019098	0.407166	0.245056	0.106506	0.999324	-0.010178	-0.003985	-0.035088	
60880	    0	17.332675	8.223553	16.201006	-2.700054	-0.662900	-5.212779	0.174893	0.079873	0.161499	0.999563	-0.013498	-0.003314	-0.026060	
60881	    0	0.049628	-0.457335	0.481480	-0.210400	-1.056768	-4.571190	0.000366	-0.004578	0.004822	0.999723	-0.001052	-0.005283	-0.022854	
60882	    0	2.205244	7.777608	-0.377810	0.924777	-0.640553	-4.813112	0.023927	0.077231	-0.003345	0.999694	0.004623	-0.003202	-0.024063	
60883	    0	7.602487	13.312194	-1.251640	0.715696	-0.364524	-4.349872	0.078918	0.131470	-0.011902	0.999755	0.003578	-0.001822	-0.021748	
60884	    0	12.312941	7.556261	-3.923452	-0.212108	-0.124175	-3.545566	0.124467	0.073322	-0.039236	0.999842	-0.001060	-0.000621	-0.017727	
60885	    0	11.606852	6.250990	-3.540205	-0.415626	-0.221261	-2.924454	0.117004	0.060730	-0.035400	0.999889	-0.002078	-0.001106	-0.014622	
60886	    0	13.146182	8.665871	-2.358591	-0.870542	-0.120548	-2.619254	0.132595	0.084824	-0.023878	0.999904	-0.004353	-0.000603	-0.013096	
60887	    0	14.356091	7.371466	-3.729740	-1.427309	-0.047304	-2.146971	0.144348	0.071899	-0.037781	0.999916	-0.007136	-0.000237	-0.010735	
60888	    0	14.137040	6.160701	-4.961149	-1.426346	-0.033761	-1.775780	0.141916	0.059993	-0.050019	0.999935	-0.007132	-0.000169	-0.008879	
60889	    0	13.940894	4.847934	-3.975454	-1.252767	-0.019646	-1.502252	0.139771	0.047180	-0.040039	0.999951	-0.006264	-0.000098	-0.007511	
60890	    0	13.550161	4.687783	-6.337100	-1.365300	-0.002289	-1.287288	0.135798	0.045570	-0.063684	0.999955	-0.006826	-0.000011	-0.006436	
