// Start Time: Unknown
// Update Rate: 100.0Hz
// Filter Profile: human (34.3)
// Firmware Version: 2.1.4
PacketCounter	SampleTimeFine	Acc_X	Acc_Y	Acc_Z	Gyr_X	Gyr_Y	Gyr_Z	VelInc_X	VelInc_Y	VelInc_Z	OriInc_q0	OriInc_q1	OriInc_q2	OriInc_q3	
13893	    0	1.004246	9.535913	-1.340415	-2.091064	0.082399	0.056459	0.010010	0.095215	-0.014404	0.999945	-0.010455	0.000412	0.000282	
13894	    0	1.183020	6.885999	-1.603780	-2.386722	0.195889	-0.053216	0.011832	0.068659	-0.016870	0.999928	-0.011933	0.000979	-0.000266	
13895	    0	0.641580	5.066209	-3.772407	-2.874092	0.165754	-0.097660	0.006409	0.050110	-0.038452	0.999896	-0.014370	0.000829	-0.000488	
13896	    0	0.717444	2.010743	-3.988902	-2.789780	-0.270662	-0.214584	0.007250	0.019541	-0.040154	0.999901	-0.013948	-0.001353	-0.001073	
13897	    0	1.094723	-3.037759	-4.421751	-2.194842	-1.034572	-0.431072	0.011108	-0.030884	-0.043823	0.999924	-0.010974	-0.005173	-0.002155	
13898	    0	2.311477	-7.177922	-5.270237	-1.563862	-1.098079	-0.664913	0.023162	-0.072265	-0.052011	0.999949	-0.007819	-0.005490	-0.003325	
13899	    0	5.077059	-12.890745	-4.145452	-0.768856	-0.255586	-0.820927	0.050293	-0.129272	-0.040894	0.999983	-0.003844	-0.001278	-0.004105	
13900	    0	8.846569	-20.592694	-3.154842	0.729948	0.897605	-0.745970	0.087552	-0.206137	-0.032695	0.999976	0.003650	0.004488	-0.003730	
13901	    0	9.618321	-21.888195	-1.557693	2.158415	1.285016	-0.502791	0.095520	-0.218933	-0.018555	0.999917	0.010792	0.006425	-0.002514	
13902	    0	8.803871	-20.545684	-3.997151	2.667318	0.499741	-0.133328	0.087797	-0.204956	-0.042927	0.999907	0.013336	0.002499	-0.000667	
13903	    0	8.596867	-18.084849	-8.639533	1.982150	0.175670	0.254063	0.086121	-0.179871	-0.088257	0.999949	0.009911	0.000878	0.001270	
13904	    0	6.883055	-11.821448	-9.208088	1.267063	0.593572	0.481991	0.068839	-0.117461	-0.093031	0.999972	0.006335	0.002968	0.002410	
13905	    0	4.826357	-5.932277	-5.905150	1.091777	0.815781	0.666053	0.048218	-0.058838	-0.059570	0.999970	0.005459	0.004079	0.003330	
13906	    0	3.154757	-2.459676	-2.135819	0.996788	0.595479	0.726324	0.031572	-0.024375	-0.021574	0.999976	0.004984	0.002977	0.003632	
13907	    0	2.077878	1.052635	0.625289	1.024062	0.195314	0.624851	0.020752	0.010559	0.006287	0.999981	0.005120	0.000977	0.003124	
13908	    0	2.216872	5.482617	2.725806	1.115042	0.036431	0.354769	0.022077	0.054712	0.027559	0.999983	0.005575	0.000182	0.001774	
13909	    0	3.469178	8.737552	2.687354	1.224716	0.018311	0.060273	0.034668	0.087219	0.027405	0.999981	0.006124	0.000092	0.000301	
13910	    0	4.379388	10.847007	-0.955417	1.652738	-0.053979	-0.397878	0.044012	0.108457	-0.008646	0.999964	0.008264	-0.000270	-0.001989	
13911	    0	8.960545	10.621121	-3.174828	1.526849	0.289157	-0.418858	0.089783	0.106262	-0.031067	0.999968	0.007634	0.001446	-0.002094	
13912	    0	14.312921	-0.658591	-8.485154	0.721361	0.352288	-0.229073	0.142972	-0.006443	-0.085127	0.999990	0.003607	0.001761	-0.001145	
13913	    0	24.791101	-19.059551	-20.447395	0.814822	-0.382806	0.051880	0.248352	-0.189697	-0.204773	0.999990	0.004074	-0.001914	0.000259	
13914	    0	24.716260	0.724642	4.539405	2.421632	0.313958	-0.434124	0.247248	0.006163	0.045085	0.999923	0.012108	0.001570	-0.002171	
13915	    0	15.205821	24.910425	2.571927	3.206011	-0.105862	-0.389116	0.152527	0.248352	0.029785	0.999869	0.016029	-0.000529	-0.001945	
13916	    0	10.374867	23.272464	-1.413129	-0.059891	-0.214959	-0.889400	0.104797	0.232256	-0.014089	0.999989	-0.000299	-0.001075	-0.004447	
13917	    0	7.318593	27.008643	-3.047554	-2.677079	0.100712	-1.776200	0.075562	0.268982	-0.034119	0.999870	-0.013385	0.000504	-0.008881	
13918	    0	14.734109	21.074941	1.453518	-3.648849	0.302338	-2.269348	0.149739	0.209275	0.010483	0.999767	-0.018243	0.001512	-0.011346	
13919	    0	23.296101	12.597084	0.317623	-1.311352	0.507374	-2.667337	0.234619	0.122864	0.001770	0.999886	-0.006557	0.002537	-0.013336	
13920	    0	27.542484	5.874952	0.325977	0.810843	0.492114	-2.774910	0.276212	0.054909	0.002809	0.999892	0.004054	0.002460	-0.013874	
13921	    0	23.850317	12.705102	-2.808679	1.220751	0.219926	-2.820699	0.240234	0.123840	-0.027588	0.999881	0.006104	0.001100	-0.014103	
13922	    0	20.721176	12.260750	-6.317095	-0.016022	0.332654	-2.933418	0.208875	0.119547	-0.063527	0.999890	-0.000080	0.001663	-0.014667	
13923	    0	19.330722	6.294951	-5.536430	-2.333197	0.396941	-2.749022	0.194031	0.059631	-0.056458	0.999835	-0.011665	0.001985	-0.013744	
13924	    0	19.246016	3.342203	-1.400284	-3.350705	0.489272	-2.631389	0.192840	0.030641	-0.015003	0.999769	-0.016752	0.002446	-0.013156	
13925	    0	18.653047	2.168365	-0.545516	-3.376261	0.528185	-2.523994	0.186768	0.019226	-0.006287	0.999774	-0.016880	0.002641	-0.012619	
13926	    0	17.771382	-0.740929	-0.005295	-3.078851	0.586166	-2.387583	0.177608	-0.009535	-0.000438	0.999805	-0.015393	0.002931	-0.011937	
13927	    0	16.931878	-4.527214	-0.801284	-2.893045	0.705760	-2.266825	0.168762	-0.047302	-0.007935	0.999825	-0.014464	0.003529	-0.011333	
13928	    0	15.766189	-6.145672	-0.508178	-2.611484	0.848050	-2.163043	0.156963	-0.063222	-0.004930	0.999846	-0.013057	0.004240	-0.010815	
13929	    0	14.816218	-7.443890	0.240194	-2.048571	0.910413	-2.050860	0.147400	-0.075928	0.002502	0.999885	-0.010242	0.004552	-0.010254	
13930	    0	13.033271	-9.057714	-1.154157	-1.532598	0.808548	-1.950129	0.129395	-0.091929	-0.011365	0.999914	-0.007663	0.004043	-0.009750	
13931	    0	10.637064	-9.712476	-4.012526	-1.504554	0.654046	-1.824234	0.105347	-0.098389	-0.039734	0.999925	-0.007523	0.003270	-0.009121	
13932	    0	8.530878	-7.732644	-5.359111	-1.524960	0.631728	-1.639403	0.084500	-0.078428	-0.053264	0.999932	-0.007625	0.003159	-0.008197	
13933	    0	6.631804	-8.025387	-4.188675	-1.052872	0.683795	-1.393911	0.065613	-0.080933	-0.041687	0.999955	-0.005264	0.003419	-0.006969	
13934	    0	5.229953	-9.014593	-3.100907	-0.369647	0.635534	-1.221095	0.051649	-0.090520	-0.031007	0.999974	-0.001848	0.003178	-0.006105	
13935	    0	4.345303	-9.895702	-3.357872	0.042153	0.426486	-1.078802	0.042847	-0.099182	-0.033691	0.999983	0.000211	0.002132	-0.005394	
13936	    0	4.264444	-9.414292	-3.441628	0.231553	0.227548	-0.896076	0.042183	-0.094293	-0.034574	0.999989	0.001158	0.001138	-0.004480	
13937	    0	4.680202	-8.026051	-3.076054	0.204468	0.176430	-0.662233	0.046509	-0.080383	-0.030884	0.999993	0.001022	0.000882	-0.003311	
13938	    0	4.878635	-7.110076	-2.493095	-0.032043	0.234986	-0.408554	0.048612	-0.071204	-0.024977	0.999997	-0.000160	0.001175	-0.002043	
13939	    0	5.220047	-5.803350	-2.179843	-0.280762	0.278664	-0.158692	0.052124	-0.058105	-0.021790	0.999997	-0.001404	0.001393	-0.000793	
13940	    0	5.588078	-3.899718	-2.313529	-0.338936	0.284195	0.015831	0.055851	-0.039032	-0.023149	0.999997	-0.001695	0.001421	0.000079	
13941	    0	5.604489	-2.831740	-2.034959	-0.211144	0.235748	0.066376	0.056030	-0.028320	-0.020386	0.999998	-0.001056	0.001179	0.000332	
13942	    0	5.261420	-2.737816	-1.008762	-0.046921	0.174332	0.085449	0.052617	-0.027358	-0.010127	0.999999	-0.000235	0.000872	0.000427	
13943	    0	4.258888	-2.444341	-0.742812	0.041962	0.061226	0.130463	0.042603	-0.024414	-0.007446	0.999999	0.000210	0.000306	0.000652	
13944	    0	3.608143	-2.450663	-1.511142	-0.000954	-0.033569	0.212097	0.036110	-0.024468	-0.015105	0.999999	-0.000005	-0.000168	0.001060	
13945	    0	3.724230	-2.910913	-2.082409	-0.026512	-0.038910	0.317383	0.037292	-0.029053	-0.020813	0.999998	-0.000133	-0.000195	0.001587	
13946	    0	4.132231	-3.335872	-2.522079	0.025177	0.040054	0.428009	0.041389	-0.033267	-0.025233	0.999997	0.000126	0.000200	0.002140	
13947	    0	4.325153	-3.468167	-2.681511	0.094605	0.110817	0.568391	0.043335	-0.034546	-0.026855	0.999995	0.000473	0.000554	0.002842	
13948	    0	4.612675	-3.227026	-2.330684	0.092316	0.150490	0.753595	0.046230	-0.032085	-0.023356	0.999992	0.000462	0.000752	0.003768	
13949	    0	5.239650	-2.229821	-1.807585	0.096894	0.155831	0.975041	0.052490	-0.022034	-0.018127	0.999988	0.000484	0.000779	0.004875	
13950	    0	5.892551	-1.210283	-1.170086	-0.014877	0.131608	1.176269	0.058988	-0.011757	-0.011739	0.999982	-0.000074	0.000658	0.005881	
13951	    0	6.393711	-0.510301	-1.317026	-0.225641	0.058747	1.307688	0.063965	-0.004700	-0.013184	0.999977	-0.001128	0.000294	0.006538	
13952	    0	7.198220	-0.598999	-2.405145	-0.316050	-0.069810	1.389897	0.072030	-0.005527	-0.024017	0.999974	-0.001580	-0.000349	0.006949	
13953	    0	8.924169	-0.864159	-4.502993	-0.019837	-0.240137	1.456465	0.089355	-0.007996	-0.044922	0.999972	-0.000099	-0.001201	0.007282	
13954	    0	11.735728	-1.682183	-6.774799	0.688371	-0.538452	1.546308	0.117663	-0.015680	-0.067487	0.999960	0.003442	-0.002692	0.007731	
13955	    0	15.273321	-2.936433	-9.229832	1.497113	-0.769824	1.659432	0.153320	-0.027405	-0.091919	0.999929	0.007485	-0.003849	0.008297	
13956	    0	18.217493	-3.589942	-10.595753	2.043031	-0.876647	1.791061	0.182943	-0.033184	-0.105505	0.999898	0.010215	-0.004383	0.008955	
13957	    0	20.465263	-3.015474	-9.927484	2.117427	-0.797301	1.957776	0.205322	-0.027100	-0.098755	0.999887	0.010587	-0.003986	0.009789	
13958	    0	21.417152	-1.231594	-7.887788	1.824823	-0.627348	2.119137	0.214527	-0.009328	-0.078300	0.999897	0.009124	-0.003137	0.010595	
13959	    0	21.051543	0.970925	-6.144178	1.408619	-0.598925	2.196568	0.210571	0.012451	-0.060730	0.999910	0.007043	-0.002995	0.010983	
13960	    0	20.890448	3.017374	-4.466045	0.794812	-0.704592	2.211626	0.208708	0.032658	-0.043798	0.999925	0.003974	-0.003523	0.011058	
13961	    0	20.439607	4.266893	-2.855268	0.182538	-0.905630	2.182058	0.204041	0.044922	-0.027588	0.999929	0.000913	-0.004528	0.010910	
13962	    0	19.882773	3.569965	-1.422093	-0.187878	-1.104572	2.094890	0.198514	0.037767	-0.013159	0.999929	-0.000939	-0.005523	0.010474	
13963	    0	19.735816	2.070948	0.156103	0.121500	-1.126883	1.839483	0.197144	0.022522	0.002686	0.999941	0.000607	-0.005634	0.009197	
13964	    0	19.166873	1.201375	0.886344	0.869005	-1.160644	1.619562	0.191507	0.013523	0.010032	0.999941	0.004345	-0.005803	0.008098	
13965	    0	18.219337	1.643822	0.984002	1.821950	-1.086265	1.492351	0.182007	0.017700	0.010986	0.999915	0.009109	-0.005431	0.007462	
13966	    0	17.005084	2.791675	1.065954	2.826441	-0.972412	1.489136	0.169782	0.029019	0.011890	0.999860	0.014132	-0.004862	0.007445	
13967	    0	15.429272	5.363631	-0.454029	3.203002	-0.878765	1.609131	0.153870	0.054932	-0.002991	0.999829	0.016014	-0.004394	0.008045	
13968	    0	13.490222	8.166807	-1.807158	2.762158	-0.806464	1.658325	0.134286	0.083017	-0.016389	0.999862	0.013810	-0.004032	0.008291	
13969	    0	11.750535	8.785148	-1.232437	1.924381	-0.830103	1.651813	0.116821	0.088928	-0.010986	0.999910	0.009622	-0.004150	0.008259	
13970	    0	10.663823	8.255971	0.068002	1.220918	-0.879878	1.597437	0.105968	0.083400	0.001655	0.999939	0.006104	-0.004399	0.007987	
13971	    0	9.812139	7.525267	-0.635067	0.758373	-0.916876	1.460288	0.097595	0.075989	-0.005615	0.999955	0.003792	-0.004584	0.007301	
13972	    0	8.334876	8.236537	-1.461790	0.395970	-0.889406	1.277174	0.082884	0.082924	-0.014085	0.999968	0.001980	-0.004447	0.006386	
13973	    0	7.224179	8.804417	-0.490642	0.155641	-0.723081	1.090248	0.071777	0.088440	-0.004578	0.999978	0.000778	-0.003615	0.005451	
13974	    0	6.232771	8.846159	0.728268	-0.007439	-0.627330	0.959402	0.061879	0.088759	0.007474	0.999983	-0.000037	-0.003137	0.004797	
13975	    0	5.295610	9.169037	0.868948	-0.208856	-0.510409	0.833133	0.052551	0.091919	0.008728	0.999987	-0.001044	-0.002552	0.004166	
13976	    0	4.458125	9.301556	1.398446	-0.068283	-0.256157	0.684167	0.044245	0.093172	0.014009	0.999992	-0.000341	-0.001281	0.003421	
13977	    0	3.248577	9.188677	0.084905	-0.689700	-0.107384	0.563051	0.032227	0.091980	0.000549	0.999990	-0.003448	-0.000537	0.002815	
13978	    0	2.520053	8.550044	0.540554	-1.135452	0.181009	0.426867	0.025023	0.085583	0.004897	0.999981	-0.005677	0.000905	0.002134	
13979	    0	1.990277	8.014776	1.059597	-1.514260	0.402073	0.368504	0.019775	0.080261	0.009949	0.999968	-0.007571	0.002010	0.001842	
13980	    0	2.331703	7.051142	1.426064	-1.502053	0.461965	0.197985	0.023279	0.070639	0.013677	0.999969	-0.007510	0.002310	0.000990	
13981	    0	2.198221	6.447528	0.394981	-1.917106	0.324254	0.047303	0.021973	0.064514	0.003296	0.999952	-0.009585	0.001621	0.000237	
13982	    0	1.111868	4.871113	-0.161345	-1.955064	-0.119402	-0.078393	0.011139	0.048688	-0.002083	0.999951	-0.009775	-0.000597	-0.000392	
13983	    0	0.363401	-0.025339	-2.430950	-1.910243	-0.736250	-0.152591	0.003723	-0.000488	-0.024292	0.999947	-0.009551	-0.003681	-0.000763	
13984	    0	0.986162	-4.777189	-6.419697	-1.924168	-0.768866	-0.253682	0.010046	-0.048399	-0.063695	0.999945	-0.009621	-0.003844	-0.001268	
13985	    0	3.359852	-9.131856	-8.421669	-1.814297	-0.054742	-0.511940	0.033386	-0.092163	-0.083374	0.999955	-0.009071	-0.000274	-0.002560	
13986	    0	6.317765	-14.934024	-3.677677	-1.203166	0.469212	-0.605970	0.062639	-0.149749	-0.036024	0.999974	-0.006016	0.002346	-0.003030	
13987	    0	8.101560	-17.576318	-0.676135	0.145149	0.321961	-0.359345	0.080688	-0.175903	-0.007019	0.999996	0.000726	0.001610	-0.001797	
13988	    0	8.758666	-16.993931	-7.270296	1.087767	-0.265886	0.018692	0.087700	-0.169533	-0.073509	0.999984	0.005439	-0.001329	0.000093	
13989	    0	8.244559	-14.959705	-12.117756	1.232155	0.086403	0.251772	0.082581	-0.148743	-0.122131	0.999980	0.006161	0.000432	0.001259	
13990	    0	6.999740	-11.230633	-9.159362	1.402490	0.895892	0.291828	0.069747	-0.111557	-0.092690	0.999964	0.007012	0.004479	0.001459	
13991	    0	6.122130	-6.468846	-2.749907	1.332875	1.279659	0.357824	0.061157	-0.064392	-0.028320	0.999955	0.006664	0.006398	0.001789	
13992	    0	4.574323	-1.459085	1.134430	1.183332	0.974475	0.469404	0.045832	-0.014549	0.011035	0.999968	0.005917	0.004872	0.002347	
13993	    0	3.344817	1.808994	1.510660	1.262675	0.502209	0.430301	0.033447	0.018066	0.015137	0.999974	0.006313	0.002511	0.002151	
13994	    0	3.697567	4.054574	0.699717	1.662274	0.171854	0.203707	0.036941	0.040524	0.007302	0.999964	0.008311	0.000859	0.001019	
13995	    0	5.371154	5.066256	-0.570533	2.316527	0.031281	-0.241857	0.053772	0.050659	-0.005127	0.999931	0.011582	0.000156	-0.001209	
13996	    0	10.160465	8.309456	0.068634	1.931414	0.514039	-0.289540	0.101727	0.082937	0.001226	0.999949	0.009657	0.002570	-0.001448	
13997	    0	15.445750	5.954411	-0.328344	0.474549	0.198555	-0.292206	0.154541	0.059326	-0.003296	0.999995	0.002373	0.000993	-0.001461	
13998	    0	22.920599	-10.792359	-16.508801	0.235558	-0.726511	0.383378	0.230010	-0.107289	-0.164380	0.999990	0.001178	-0.003633	0.001917	
13999	    0	21.789462	-0.072980	-0.258007	1.502433	-0.076295	-0.019837	0.217896	-0.000732	-0.002502	0.999971	0.007512	-0.000381	-0.000099	
14000	    0	12.619254	25.770232	-3.124548	2.447000	-0.015259	-0.390826	0.126698	0.257812	-0.028082	0.999923	0.012235	-0.000076	-0.001954	
14001	    0	10.198235	24.927188	-0.004992	-0.403406	-0.124360	-0.839236	0.103027	0.248840	-0.000488	0.999989	-0.002017	-0.000622	-0.004196	
14002	    0	11.615476	21.953075	-2.407131	-1.847887	0.055696	-1.648373	0.117950	0.218328	-0.026125	0.999923	-0.009239	0.000278	-0.008242	
14003	    0	15.698458	17.211674	-0.865568	-2.520871	0.223743	-2.225600	0.158875	0.170227	-0.010986	0.999858	-0.012604	0.001119	-0.011127	
14004	    0	21.078620	12.841315	-0.599180	-1.324130	0.428215	-2.619839	0.212429	0.125592	-0.007283	0.999889	-0.006620	0.002141	-0.013099	
14005	    0	23.977181	9.297767	-0.408141	-0.053980	0.493637	-2.655110	0.240967	0.089783	-0.004700	0.999908	-0.000270	0.002468	-0.013275	
14006	    0	22.457958	9.967388	-1.752188	0.120357	0.362598	-2.723207	0.225877	0.096615	-0.017872	0.999905	0.000602	0.001813	-0.013616	
14007	    0	19.963334	11.053056	-4.467250	-0.503558	0.341237	-2.864177	0.201111	0.107544	-0.045288	0.999892	-0.002518	0.001706	-0.014320	
14008	    0	18.734023	8.280835	-3.735809	-1.787271	0.400753	-2.857918	0.188418	0.079781	-0.038457	0.999855	-0.008936	0.002004	-0.014289	
14009	    0	18.384370	5.004262	-2.983483	-2.619143	0.455503	-2.805503	0.184448	0.047058	-0.030884	0.999813	-0.013095	0.002277	-0.014027	
14010	    0	18.670556	2.027241	-1.430095	-3.078676	0.506627	-2.658267	0.186913	0.017561	-0.015059	0.999789	-0.015392	0.002533	-0.013290	
14011	    0	18.677648	-1.799935	-0.204328	-3.125023	0.558510	-2.520925	0.186523	-0.020386	-0.002258	0.999794	-0.015624	0.002792	-0.012604	
14012	    0	17.457123	-4.741210	-0.309184	-2.956953	0.687260	-2.349998	0.173987	-0.049503	-0.002969	0.999815	-0.014784	0.003436	-0.011749	
14013	    0	16.126970	-7.055719	-0.552505	-2.645058	0.837751	-2.189750	0.160461	-0.072388	-0.005249	0.999844	-0.013225	0.004189	-0.010948	
14014	    0	14.655723	-9.366677	-0.982258	-2.319815	0.857962	-2.004899	0.145567	-0.095240	-0.009350	0.999873	-0.011599	0.004290	-0.010024	
14015	    0	13.131446	-11.815468	-1.059678	-1.981228	0.813320	-1.823485	0.130188	-0.119446	-0.009949	0.999901	-0.009906	0.004066	-0.009117	
14016	    0	11.406648	-11.524286	-2.040706	-1.639027	0.806448	-1.669926	0.113017	-0.116354	-0.019914	0.999923	-0.008195	0.004032	-0.008349	
14017	    0	9.107346	-10.033807	-2.698824	-1.374081	0.834100	-1.490051	0.090210	-0.101196	-0.026672	0.999940	-0.006870	0.004170	-0.007450	
14018	    0	6.959461	-9.355131	-3.137072	-0.980772	0.818264	-1.271265	0.068870	-0.094144	-0.031193	0.999959	-0.004904	0.004091	-0.006356	
14019	    0	5.180173	-9.424759	-3.924854	-0.402835	0.729567	-1.081857	0.051147	-0.094604	-0.039246	0.999976	-0.002014	0.003648	-0.005409	
14020	    0	4.174182	-9.316884	-4.829821	0.023461	0.549701	-0.960927	0.041161	-0.093362	-0.048423	0.999984	0.000117	0.002748	-0.004805	
14021	    0	4.379090	-9.526686	-5.260652	0.225068	0.375558	-0.876621	0.043274	-0.095398	-0.052795	0.999988	0.001125	0.001878	-0.004383	
14022	    0	4.817223	-8.782845	-4.685642	0.255395	0.333596	-0.753024	0.047763	-0.087949	-0.047049	0.999990	0.001277	0.001668	-0.003765	
14023	    0	5.083774	-7.996699	-3.706123	0.207520	0.344277	-0.591279	0.050537	-0.080078	-0.037231	0.999993	0.001038	0.001721	-0.002956	
14024	    0	5.386445	-6.969066	-2.944739	0.251961	0.390626	-0.373078	0.053677	-0.069754	-0.029640	0.999995	0.001260	0.001953	-0.001865	
14025	    0	5.553645	-4.844970	-2.817399	0.381470	0.414468	-0.238800	0.055420	-0.048462	-0.028381	0.999995	0.001907	0.002072	-0.001194	
14026	    0	5.119096	-3.114956	-1.993573	0.510980	0.396920	-0.182915	0.051123	-0.031145	-0.020117	0.999994	0.002555	0.001985	-0.000915	
14027	    0	4.391071	-2.251809	-0.872833	0.466920	0.315285	-0.111389	0.043884	-0.022522	-0.008850	0.999995	0.002335	0.001576	-0.000557	
14028	    0	3.691846	-1.922679	-0.762119	0.254440	0.123787	-0.028229	0.036911	-0.019222	-0.007668	0.999998	0.001272	0.000619	-0.000141	
14029	    0	3.398175	-2.468336	-1.934212	0.127411	-0.057030	0.075531	0.033997	-0.024658	-0.019348	0.999999	0.000637	-0.000285	0.000378	
14030	    0	3.533790	-4.153512	-3.858349	0.211525	-0.138664	0.204468	0.035407	-0.041458	-0.038603	0.999998	0.001058	-0.000693	0.001022	
14031	    0	3.808473	-5.312796	-5.138840	0.532723	-0.083161	0.384522	0.038208	-0.052917	-0.051514	0.999994	0.002664	-0.000416	0.001923	
14032	    0	4.103580	-5.482951	-4.974927	0.814823	0.026894	0.596812	0.041192	-0.054503	-0.049977	0.999987	0.004074	0.000134	0.002984	
14033	    0	4.616448	-4.062042	-3.350814	0.775151	0.115395	0.894170	0.046326	-0.040283	-0.033691	0.999982	0.003876	0.000577	0.004471	
14034	    0	5.478503	-2.099038	-2.025723	0.521473	0.135804	1.197633	0.054895	-0.020609	-0.020349	0.999978	0.002607	0.000679	0.005988	
14035	    0	6.524705	-0.986934	-1.173419	0.113679	0.123025	1.419079	0.065308	-0.009399	-0.011780	0.999974	0.000568	0.000615	0.007095	
14036	    0	7.482597	-0.425714	-0.746128	-0.205805	0.041962	1.518837	0.074854	-0.003696	-0.007473	0.999970	-0.001029	0.000210	0.007594	
14037	    0	9.028793	-0.454388	-2.007612	-0.189783	-0.116731	1.589220	0.090332	-0.003845	-0.020020	0.999968	-0.000949	-0.000584	0.007946	
14038	    0	11.713940	-1.382227	-4.122397	0.260738	-0.319485	1.694129	0.117316	-0.012775	-0.041054	0.999962	0.001304	-0.001597	0.008471	
14039	    0	15.391510	-2.430411	-6.280356	0.983448	-0.541507	1.833379	0.154297	-0.022583	-0.062500	0.999942	0.004917	-0.002707	0.009167	
14040	    0	18.573969	-2.785359	-8.474371	1.808225	-0.750947	1.981990	0.186316	-0.025246	-0.084281	0.999903	0.009041	-0.003755	0.009910	
14041	    0	21.560322	-2.778478	-10.000291	2.308186	-0.862160	2.169134	0.216309	-0.024292	-0.099365	0.999865	0.011540	-0.004311	0.010845	
14042	    0	23.676125	-1.888650	-10.179833	2.223310	-0.794257	2.395934	0.237358	-0.014919	-0.101037	0.999858	0.011116	-0.003971	0.011979	
14043	    0	24.017190	0.012306	-8.904390	1.860890	-0.633840	2.564351	0.240417	0.004028	-0.088257	0.999869	0.009304	-0.003169	0.012821	
14044	    0	23.765510	2.390207	-6.969594	1.344542	-0.555442	2.691755	0.237493	0.027564	-0.068859	0.999883	0.006722	-0.002777	0.013458	
14045	    0	22.828185	4.064939	-4.865585	0.705933	-0.572987	2.688689	0.227844	0.043884	-0.047852	0.999899	0.003530	-0.002865	0.013443	
14046	    0	21.160438	3.994341	-2.737459	0.031281	-0.712607	2.583200	0.211161	0.042677	-0.026615	0.999909	0.000156	-0.003563	0.012916	
14047	    0	19.402901	2.577738	-0.509238	-0.364695	-0.960377	2.380438	0.193726	0.028076	-0.004211	0.999915	-0.001823	-0.004802	0.011902	
14048	    0	18.270944	1.008976	1.147192	0.016022	-1.014160	2.059028	0.182531	0.011969	0.012399	0.999933	0.000080	-0.005071	0.010295	
14049	    0	17.099205	1.234885	2.099361	1.120782	-0.916119	1.761665	0.170776	0.013733	0.021851	0.999934	0.005604	-0.004580	0.008808	
14050	    0	16.218644	3.604771	1.855878	2.211073	-0.827436	1.588494	0.161815	0.037121	0.019635	0.999898	0.011055	-0.004137	0.007942	
14051	    0	15.010366	6.181433	1.137425	2.877176	-0.727687	1.478644	0.149597	0.062744	0.012817	0.999862	0.014385	-0.003638	0.007393	
14052	    0	13.224417	8.297309	0.521383	2.940125	-0.732265	1.428480	0.131624	0.083821	0.006925	0.999859	0.014700	-0.003661	0.007142	
14053	    0	11.579259	8.701837	-0.430721	2.306444	-0.848227	1.445819	0.115173	0.087891	-0.002808	0.999898	0.011532	-0.004241	0.007229	
14054	    0	9.709632	8.460951	-1.510255	1.356533	-0.886553	1.464873	0.096537	0.085416	-0.014096	0.999940	0.006783	-0.004433	0.007324	
14055	    0	8.586063	8.252102	-0.887495	0.619514	-0.742158	1.362626	0.085327	0.083130	-0.008301	0.999965	0.003098	-0.003711	0.006813	
14056	    0	7.295193	8.964166	-0.064809	0.102235	-0.660520	1.226244	0.072402	0.090087	-0.000362	0.999975	0.000511	-0.003303	0.006131	
14057	    0	5.921750	9.514915	-0.011437	-0.366214	-0.774199	1.052865	0.058716	0.095459	-0.000061	0.999976	-0.001831	-0.003871	0.005264	
14058	    0	4.651037	9.791373	0.598028	-0.612073	-0.808531	0.862891	0.046063	0.098131	0.005867	0.999977	-0.003060	-0.004043	0.004314	
14059	    0	3.883037	9.460393	1.369580	-0.744634	-0.755124	0.690465	0.038452	0.094788	0.013489	0.999980	-0.003723	-0.003776	0.003452	
14060	    0	3.618604	9.123737	1.331422	-0.863844	-0.708775	0.557522	0.035885	0.091394	0.013047	0.999980	-0.004319	-0.003544	0.002788	
14061	    0	3.308329	9.514744	2.058726	-0.552370	-0.373651	0.437165	0.032837	0.095276	0.020386	0.999991	-0.002762	-0.001868	0.002186	
14062	    0	2.796996	8.973746	0.733878	-0.686456	-0.108528	0.319863	0.027822	0.089807	0.007046	0.999992	-0.003432	-0.000543	0.001599	
14063	    0	2.812299	9.231254	0.418531	-0.945286	0.183297	0.109101	0.028076	0.092346	0.003723	0.999988	-0.004726	0.000916	0.000546	
14064	    0	1.965269	9.857903	0.327217	-1.361096	0.470928	-0.073052	0.019695	0.098591	0.002555	0.999973	-0.006805	0.002355	-0.000365	
14065	    0	1.061720	9.486755	-0.048878	-2.013242	0.398261	-0.139620	0.010681	0.094849	-0.001465	0.999947	-0.010066	0.001991	-0.000698	
14066	    0	0.926263	6.281246	-1.990851	-2.822398	0.264177	-0.127415	0.009275	0.062517	-0.020804	0.999899	-0.014112	0.001321	-0.000637	
14067	    0	0.574807	2.590794	-3.219433	-3.158511	-0.182350	-0.161750	0.005798	0.025391	-0.032593	0.999874	-0.015792	-0.000912	-0.000809	
14068	    0	0.672069	-3.026436	-4.036084	-2.876775	-0.979462	-0.266276	0.006876	-0.030849	-0.039886	0.999884	-0.014383	-0.004897	-0.001331	
14069	    0	2.594754	-8.015208	-5.504712	-2.181874	-1.166565	-0.502790	0.026062	-0.080811	-0.054016	0.999920	-0.010909	-0.005833	-0.002514	
14070	    0	5.549814	-13.241929	-5.915988	-1.579878	-0.373273	-0.716791	0.055131	-0.133079	-0.058007	0.999960	-0.007899	-0.001866	-0.003584	
14071	    0	8.476206	-19.835702	-4.529660	-0.415613	0.524904	-0.663760	0.083984	-0.198730	-0.045105	0.999989	-0.002078	0.002625	-0.003319	
14072	    0	8.913108	-20.665321	-4.445057	1.033028	0.800139	-0.467304	0.088467	-0.206626	-0.045873	0.999975	0.005165	0.004001	-0.002337	
14073	    0	8.194901	-16.181804	-7.183215	2.105945	0.487528	-0.206761	0.081604	-0.161133	-0.073730	0.999941	0.010530	0.002438	-0.001034	
14074	    0	7.688480	-12.453588	-8.591062	2.293259	0.598731	-0.014496	0.076615	-0.123544	-0.087561	0.999929	0.011466	0.002994	-0.000072	
14075	    0	6.304228	-7.941439	-6.116428	1.872291	1.120208	0.122836	0.062744	-0.078796	-0.062256	0.999940	0.009361	0.005601	0.000614	
14076	    0	4.876506	-3.859778	-2.869160	1.352902	1.277942	0.252727	0.048628	-0.038340	-0.029263	0.999955	0.006764	0.006390	0.001264	
14077	    0	3.721578	-0.366388	-1.097758	1.065264	0.929268	0.347903	0.037170	-0.003540	-0.011169	0.999973	0.005326	0.004646	0.001740	
14078	    0	3.689544	2.884118	0.862906	1.176843	0.522999	0.234606	0.036884	0.028833	0.008702	0.999978	0.005884	0.002615	0.001173	
14079	    0	5.816275	3.436742	0.780136	1.513686	0.015450	-0.018311	0.058167	0.034302	0.008057	0.999970	0.007568	0.000077	-0.000092	
14080	    0	12.316579	4.179342	-0.960118	1.540581	0.002289	-0.276187	0.123223	0.041696	-0.009281	0.999969	0.007703	0.000011	-0.001381	
14081	    0	20.402277	-2.153449	-6.048171	0.412751	0.020790	0.225830	0.204041	-0.021179	-0.060547	0.999997	0.002064	0.000104	0.001129	
14082	    0	26.780928	-16.056827	-12.958775	0.439835	-0.299836	0.425530	0.268344	-0.159713	-0.129538	0.999993	0.002199	-0.001499	0.002128	
14083	    0	22.768197	-7.837118	0.632184	1.552598	0.033760	0.256350	0.227783	-0.078125	0.005676	0.999969	0.007763	0.000169	0.001282	
14084	    0	11.284276	20.847431	0.218602	2.597691	0.174337	0.008965	0.112837	0.208428	0.004795	0.999915	0.012988	0.000872	0.000045	
14085	    0	6.090168	26.790738	-0.903754	0.845530	0.096894	-0.193787	0.061157	0.267883	-0.007935	0.999990	0.004228	0.000484	-0.000969	
14086	    0	4.712934	23.801294	-2.710940	-0.712781	0.028420	-1.066406	0.048393	0.237659	-0.027964	0.999979	-0.003564	0.000142	-0.005332	
14087	    0	10.521760	21.147849	-3.400348	-1.421197	0.041200	-1.809732	0.107117	0.210266	-0.035522	0.999933	-0.007106	0.000206	-0.009048	
14088	    0	17.178222	19.090859	-2.613654	-1.162943	0.141529	-2.292315	0.173935	0.188766	-0.027361	0.999917	-0.005815	0.000708	-0.011461	
14089	    0	21.255477	14.575400	-2.608406	-0.189977	0.251205	-2.548288	0.214355	0.143005	-0.026489	0.999917	-0.000950	0.001256	-0.012741	
14090	    0	22.976238	11.065588	-3.136731	0.202758	0.162321	-2.773565	0.231242	0.107488	-0.031445	0.999903	0.001014	0.000812	-0.013867	
14091	    0	22.064847	9.759113	-3.702178	-0.269900	0.128179	-2.980916	0.222046	0.094238	-0.037292	0.999887	-0.001349	0.000641	-0.014904	
14092	    0	20.000696	8.819796	-3.341279	-1.187950	0.263417	-3.058572	0.201278	0.084925	-0.034188	0.999865	-0.005939	0.001317	-0.015292	
14093	    0	18.981403	7.793692	-1.290195	-2.166681	0.392936	-2.977923	0.190918	0.074951	-0.014099	0.999828	-0.010833	0.001965	-0.014889	
14094	    0	19.013732	5.266990	0.309551	-2.768887	0.452834	-2.778997	0.190850	0.050054	0.001959	0.999804	-0.013844	0.002264	-0.013894	
14095	    0	18.893239	2.146215	0.743472	-2.955822	0.515972	-2.601795	0.189209	0.019104	0.006653	0.999803	-0.014778	0.002580	-0.013008	
14096	    0	18.343731	-2.075672	0.691725	-2.748461	0.607336	-2.509457	0.183179	-0.022964	0.006666	0.999822	-0.013741	0.003036	-0.012547	
14097	    0	17.345144	-4.686218	-0.188035	-2.459083	0.699843	-2.456794	0.172852	-0.049011	-0.001892	0.999843	-0.012295	0.003499	-0.012283	
14098	    0	16.199422	-6.376592	-1.417138	-2.332416	0.775565	-2.305140	0.161189	-0.065791	-0.014038	0.999858	-0.011662	0.003878	-0.011525	
14099	    0	14.785106	-8.246521	-1.390269	-2.145282	0.821719	-2.112665	0.146912	-0.084167	-0.013611	0.999878	-0.010726	0.004108	-0.010563	
14100	    0	13.145605	-9.327543	-1.280256	-1.829016	0.816372	-1.949374	0.130486	-0.094666	-0.012475	0.999902	-0.009145	0.004082	-0.009747	
14101	    0	11.589972	-8.944627	-1.591240	-1.484720	0.875306	-1.862385	0.114990	-0.090637	-0.015747	0.999919	-0.007423	0.004376	-0.009312	
14102	    0	9.581684	-7.263343	-2.964219	-1.349100	0.913833	-1.767201	0.095034	-0.073675	-0.029583	0.999928	-0.006745	0.004569	-0.008836	
14103	    0	7.333248	-7.541530	-4.160281	-1.274706	0.890368	-1.519042	0.072571	-0.076233	-0.041443	0.999941	-0.006373	0.004452	-0.007595	
14104	    0	5.801307	-8.564968	-4.362595	-1.045432	0.750743	-1.261347	0.057307	-0.086240	-0.043392	0.999959	-0.005227	0.003754	-0.006307	
14105	    0	5.205092	-8.698838	-4.741254	-0.574307	0.543217	-1.076516	0.051453	-0.087402	-0.047302	0.999977	-0.002872	0.002716	-0.005383	
14106	    0	5.012467	-9.239951	-5.338948	-0.101090	0.357057	-0.992017	0.049570	-0.092673	-0.053432	0.999986	-0.000505	0.001785	-0.004960	
14107	    0	4.942739	-9.700191	-4.849463	0.193978	0.228883	-0.868228	0.048950	-0.097168	-0.048645	0.999989	0.000970	0.001144	-0.004341	
14108	    0	4.937165	-9.268862	-3.996548	0.354005	0.186349	-0.731470	0.048995	-0.092797	-0.040175	0.999990	0.001770	0.000932	-0.003657	
14109	    0	5.076183	-8.775789	-3.559952	0.413705	0.183869	-0.576021	0.050476	-0.087830	-0.035828	0.999992	0.002069	0.000919	-0.002880	
14110	    0	5.444589	-7.125483	-3.262954	0.468827	0.271226	-0.444222	0.054243	-0.071299	-0.032870	0.999993	0.002344	0.001356	-0.002221	
14111	    0	5.629985	-5.178001	-2.508090	0.529672	0.396729	-0.376130	0.056152	-0.051819	-0.025330	0.999992	0.002648	0.001984	-0.001881	
14112	    0	5.279538	-4.228747	-1.244172	0.411607	0.378228	-0.338174	0.052700	-0.042351	-0.012629	0.999994	0.002058	0.001891	-0.001691	
14113	    0	4.705211	-3.760995	-1.147027	0.125313	0.177765	-0.238037	0.046997	-0.037659	-0.011536	0.999998	0.000627	0.000889	-0.001190	
14114	    0	4.125770	-3.268022	-2.017444	-0.096893	-0.040817	-0.065041	0.041251	-0.032703	-0.020150	0.999999	-0.000484	-0.000204	-0.000325	
14115	    0	3.900974	-3.791207	-3.118282	-0.135803	-0.149345	0.155640	0.039062	-0.037903	-0.031128	0.999999	-0.000679	-0.000747	0.000778	
14116	    0	4.202047	-4.471514	-3.474250	-0.011444	-0.042915	0.386620	0.042114	-0.044636	-0.034731	0.999998	-0.000057	-0.000215	0.001933	
14117	    0	4.597059	-4.250892	-2.833643	0.101471	0.101662	0.591279	0.046082	-0.042358	-0.028381	0.999995	0.000507	0.000508	0.002956	
14118	    0	4.988773	-3.194784	-1.825568	-0.015259	0.145340	0.802424	0.050002	-0.031749	-0.018290	0.999991	-0.000076	0.000727	0.004012	
14119	    0	5.651021	-1.529403	-0.930655	-0.199128	0.165749	1.020818	0.056580	-0.015015	-0.009338	0.999986	-0.000996	0.000829	0.005104	
14120	    0	6.341581	-0.095891	-0.314025	-0.346758	0.166894	1.209839	0.063417	-0.000581	-0.003192	0.999979	-0.001734	0.000834	0.006049	
14121	    0	7.140597	0.764322	-0.329361	-0.412754	0.131417	1.348888	0.071350	0.008118	-0.003357	0.999974	-0.002064	0.000657	0.006744	
14122	    0	8.362795	1.014277	-1.770057	-0.307658	0.026512	1.463141	0.083549	0.010727	-0.017728	0.999971	-0.001538	0.000133	0.007316	
14123	    0	10.689754	0.653384	-3.683498	0.062562	-0.167658	1.571672	0.106873	0.007385	-0.036743	0.999969	0.000313	-0.000838	0.007858	
14124	    0	14.126718	0.014326	-5.623542	0.610741	-0.378995	1.629279	0.141365	0.001466	-0.055964	0.999960	0.003054	-0.001895	0.008146	
14125	    0	17.413206	-0.797387	-7.607739	1.148436	-0.495920	1.716646	0.174377	-0.006042	-0.075684	0.999943	0.005742	-0.002480	0.008583	
14126	    0	19.553735	-1.288948	-8.159680	1.457251	-0.552000	1.878022	0.195868	-0.010459	-0.081139	0.999925	0.007286	-0.002760	0.009390	
14127	    0	20.974732	-1.054568	-6.582403	1.398699	-0.550095	2.167574	0.210022	-0.007812	-0.065308	0.999912	0.006993	-0.002750	0.010838	
14128	    0	21.671740	0.371161	-4.828814	1.184881	-0.615902	2.352786	0.216799	0.006545	-0.047587	0.999908	0.005924	-0.003079	0.011764	
14129	    0	21.257864	1.868028	-3.843626	0.889042	-0.703451	2.423168	0.212463	0.021423	-0.037598	0.999910	0.004445	-0.003517	0.012115	
14130	    0	21.007222	2.634907	-2.966190	0.372897	-0.834869	2.391499	0.209858	0.028913	-0.028733	0.999918	0.001864	-0.004174	0.011957	
14131	    0	20.029755	3.079628	-1.839830	-0.111964	-0.959803	2.293455	0.200012	0.033081	-0.017456	0.999922	-0.000560	-0.004799	0.011467	
14132	    0	19.461772	1.960571	-0.026835	-0.018120	-0.962468	1.995700	0.194407	0.021546	0.000666	0.999938	-0.000091	-0.004812	0.009978	
14133	    0	18.893961	1.308104	0.629262	0.701345	-1.104757	1.686128	0.188782	0.014648	0.007385	0.999943	0.003507	-0.005524	0.008430	
14134	    0	18.439473	1.669986	0.005181	1.756527	-1.194606	1.518293	0.184256	0.018091	0.001307	0.999914	0.008782	-0.005973	0.007591	
14135	    0	18.004864	1.723460	-1.612219	2.741371	-1.154954	1.573255	0.179993	0.018860	-0.014832	0.999858	0.013706	-0.005774	0.007866	
14136	    0	16.720760	3.504567	-4.072201	2.870903	-1.133025	1.785564	0.167108	0.037108	-0.039252	0.999841	0.014354	-0.005665	0.008927	
14137	    0	14.294696	7.140848	-4.170630	2.408137	-1.110890	1.971525	0.142456	0.073303	-0.040039	0.999863	0.012040	-0.005554	0.009857	
14138	    0	12.920744	9.042333	-2.663368	1.820628	-1.005780	2.014994	0.128415	0.091953	-0.025154	0.999895	0.009103	-0.005029	0.010075	
14139	    0	11.957482	9.107128	-1.381853	1.239047	-0.930620	2.006585	0.118713	0.092346	-0.012695	0.999919	0.006195	-0.004653	0.010033	
14140	    0	10.555423	8.717291	-0.727754	0.846309	-0.950261	1.862947	0.104768	0.088180	-0.006407	0.999936	0.004231	-0.004751	0.009315	
14141	    0	9.034744	8.017812	-0.704656	0.649272	-0.971810	1.630429	0.089722	0.080933	-0.006348	0.999949	0.003246	-0.004859	0.008152	
14142	    0	7.525845	7.764434	-0.460982	0.588997	-0.908673	1.384944	0.074738	0.078176	-0.004040	0.999961	0.002945	-0.004543	0.006925	
14143	    0	6.281180	7.714412	-0.369223	0.514417	-0.826271	1.157390	0.062378	0.077515	-0.003235	0.999971	0.002572	-0.004131	0.005787	
14144	    0	5.195145	7.930210	-0.093752	0.402644	-0.727849	0.937849	0.051581	0.079546	-0.000589	0.999980	0.002013	-0.003639	0.004689	
14145	    0	3.874453	8.854287	0.388113	0.352670	-0.586703	0.770572	0.038391	0.088684	0.004150	0.999987	0.001763	-0.002934	0.003853	
14146	    0	3.084471	9.290950	0.699591	0.314141	-0.280953	0.622751	0.030545	0.092994	0.007185	0.999992	0.001571	-0.001405	0.003114	
14147	    0	2.779153	9.953204	0.877291	-0.096703	-0.023651	0.529481	0.027527	0.099609	0.008728	0.999996	-0.000484	-0.000118	0.002647	
14148	    0	2.209047	10.252934	1.276309	-0.388527	0.174713	0.377656	0.021908	0.102595	0.012545	0.999995	-0.001943	0.000874	0.001888	
14149	    0	1.518933	10.604894	-0.668751	-1.285562	0.214578	0.199892	0.015076	0.106018	-0.007385	0.999978	-0.006428	0.001073	0.000999	
14150	    0	1.604617	8.358423	0.367969	-1.879911	0.183108	0.042535	0.016031	0.083617	0.002879	0.999955	-0.009399	0.000916	0.000213	
14151	    0	1.279602	6.053682	-1.226582	-2.635078	-0.006104	-0.069430	0.012817	0.060364	-0.013062	0.999912	-0.013175	-0.000031	-0.000347	
14152	    0	0.988740	4.830343	0.222009	-2.710045	-0.242050	-0.120739	0.009914	0.048322	0.001577	0.999907	-0.013550	-0.001210	-0.000604	
14153	    0	2.107382	0.336943	0.680864	-2.121015	-0.601781	-0.226598	0.021057	0.003418	0.006836	0.999938	-0.010605	-0.003009	-0.001133	
14154	    0	3.022681	-3.771653	-2.395085	-1.582928	-0.491911	-0.338558	0.030221	-0.037955	-0.023577	0.999964	-0.007915	-0.002460	-0.001693	
14155	    0	2.829364	-6.502253	-6.188736	-1.314365	0.031281	-0.449375	0.028137	-0.065491	-0.061462	0.999975	-0.006572	0.000156	-0.002247	
14156	    0	4.349589	-13.681516	-7.521103	-1.058204	0.320246	-0.548175	0.043000	-0.137329	-0.074554	0.999981	-0.005291	0.001601	-0.002741	
14157	    0	6.802298	-20.093278	-5.518864	-0.125885	0.336648	-0.605012	0.067322	-0.201172	-0.055176	0.999993	-0.000629	0.001683	-0.003025	
14158	    0	8.451142	-18.830667	-4.247561	1.086432	-0.055313	-0.502589	0.084050	-0.188284	-0.043475	0.999982	0.005432	-0.000277	-0.002513	
14159	    0	9.105126	-15.601859	-4.951243	1.450552	-0.365451	-0.100709	0.091064	-0.155701	-0.050476	0.999971	0.007253	-0.001827	-0.000504	
14160	    0	8.721994	-14.669895	-8.386442	1.379787	0.017357	0.280383	0.087418	-0.145993	-0.084881	0.999975	0.006899	0.000087	0.001402	
14161	    0	6.876280	-11.160032	-8.769824	1.491566	0.814258	0.471503	0.068665	-0.110779	-0.088806	0.999961	0.007458	0.004071	0.002357	
14162	    0	4.938940	-6.142747	-4.933798	1.687273	1.211953	0.572979	0.049262	-0.060865	-0.050152	0.999942	0.008436	0.006060	0.002865	
14163	    0	3.392992	-1.677251	-0.816677	1.769289	1.000423	0.570689	0.033936	-0.016602	-0.008484	0.999944	0.008846	0.005002	0.002853	
14164	    0	2.624333	3.717527	1.676361	1.741054	0.644884	0.402647	0.026223	0.037081	0.017002	0.999954	0.008705	0.003224	0.002013	
14165	    0	3.413631	7.806144	2.819148	1.833370	0.210765	0.122835	0.034119	0.077820	0.028870	0.999957	0.009167	0.001054	0.000614	
14166	    0	5.941085	7.663115	1.257767	1.997982	-0.106241	-0.283055	0.059512	0.076416	0.013373	0.999949	0.009990	-0.000531	-0.001415	
14167	    0	12.635336	6.767172	-2.299713	1.384937	0.183870	-0.030518	0.126343	0.067810	-0.022644	0.999975	0.006925	0.000919	-0.000153	
14168	    0	18.975377	-1.924553	-6.855541	0.373650	0.145722	0.032043	0.189707	-0.019087	-0.068729	0.999997	0.001868	0.000729	0.000160	
14169	    0	24.095886	-11.800529	-14.971104	0.626566	-0.399019	0.440980	0.241516	-0.117004	-0.149597	0.999990	0.003133	-0.001995	0.002205	
14170	    0	19.525112	1.437083	2.112883	1.273355	-0.127412	0.243379	0.195220	0.014473	0.021345	0.999978	0.006367	-0.000637	0.001217	
14171	    0	10.864608	23.514632	-0.633589	2.011333	-0.119021	-0.046540	0.108704	0.235168	-0.003906	0.999949	0.010056	-0.000595	-0.000233	
14172	    0	7.269036	26.524687	-2.453964	-0.101280	-0.071335	-0.711252	0.073642	0.264974	-0.024648	0.999993	-0.000506	-0.000357	-0.003556	
14173	    0	9.816789	24.094883	-1.856642	-2.157467	0.041963	-1.609851	0.100098	0.239929	-0.021179	0.999908	-0.010787	0.000210	-0.008049	
14174	    0	16.426633	19.588884	-0.987414	-2.389257	0.221644	-2.336421	0.166526	0.193814	-0.012382	0.999860	-0.011946	0.001108	-0.011682	
14175	    0	22.463950	15.206236	-1.442946	-0.871308	0.425926	-2.771096	0.226685	0.148865	-0.015564	0.999892	-0.004356	0.002130	-0.013855	
14176	    0	25.942546	9.911465	-0.796902	0.072863	0.405707	-2.888973	0.260804	0.095357	-0.008462	0.999893	0.000364	0.002028	-0.014444	
14177	    0	25.323476	10.168771	-1.780516	0.021363	0.309955	-2.885538	0.254639	0.098022	-0.018188	0.999894	0.000107	0.001550	-0.014427	
14178	    0	22.188932	10.601303	-3.014195	-0.678852	0.401894	-2.961465	0.223364	0.102609	-0.030942	0.999882	-0.003394	0.002009	-0.014807	
14179	    0	19.822382	9.267463	-2.601510	-1.999769	0.486209	-2.880247	0.199463	0.089539	-0.027405	0.999843	-0.009998	0.002431	-0.014400	
14180	    0	19.753726	6.174983	-1.559232	-2.976245	0.607342	-2.760509	0.198312	0.058769	-0.017083	0.999789	-0.014880	0.003036	-0.013802	
14181	    0	20.113263	2.442441	-0.425779	-2.863310	0.724077	-2.668175	0.201416	0.021667	-0.005310	0.999802	-0.014316	0.003620	-0.013340	
14182	    0	19.126423	-1.355861	0.434577	-2.400339	0.781293	-2.604055	0.191082	-0.016000	0.003781	0.999835	-0.012001	0.003906	-0.013020	
14183	    0	17.708012	-3.626554	-0.761021	-2.181159	0.764503	-2.516297	0.176575	-0.038574	-0.007874	0.999853	-0.010905	0.003822	-0.012581	
14184	    0	16.403733	-4.693796	-1.942419	-2.020353	0.803220	-2.436746	0.163369	-0.049129	-0.019592	0.999866	-0.010101	0.004016	-0.012183	
14185	    0	15.113767	-6.992230	-2.207207	-1.787447	0.795014	-2.365205	0.150208	-0.071899	-0.022034	0.999882	-0.008937	0.003975	-0.011826	
14186	    0	13.349048	-8.723935	-2.377280	-1.665747	0.740268	-2.279553	0.132396	-0.088949	-0.023528	0.999893	-0.008328	0.003701	-0.011397	
14187	    0	11.475254	-9.044630	-3.978997	-1.636557	0.679228	-2.122565	0.113647	-0.091980	-0.039429	0.999904	-0.008183	0.003396	-0.010612	
14188	    0	9.309128	-9.585797	-4.922158	-1.425397	0.679033	-1.878213	0.092017	-0.097075	-0.048846	0.999925	-0.007127	0.003395	-0.009391	
14189	    0	7.268843	-10.950207	-5.188386	-1.092357	0.641643	-1.576260	0.071655	-0.110352	-0.051514	0.999949	-0.005462	0.003208	-0.007881	
14190	    0	5.769961	-12.851232	-4.406733	-0.670249	0.524145	-1.272786	0.056765	-0.129023	-0.043785	0.999970	-0.003351	0.002621	-0.006364	
14191	    0	4.591107	-14.009158	-3.637990	-0.374414	0.337221	-0.975042	0.045166	-0.140381	-0.036194	0.999985	-0.001872	0.001686	-0.004875	
14192	    0	4.191954	-12.828070	-3.024476	-0.247193	0.213051	-0.673105	0.041455	-0.128458	-0.030130	0.999992	-0.001236	0.001065	-0.003366	
14193	    0	4.465078	-10.321648	-1.704363	-0.355530	0.209999	-0.386048	0.044434	-0.103333	-0.016907	0.999995	-0.001778	0.001050	-0.001930	
14194	    0	4.931535	-7.314320	-1.027819	-0.517083	0.321007	-0.124359	0.049253	-0.073200	-0.010168	0.999994	-0.002585	0.001605	-0.000622	
14195	    0	5.161971	-4.877458	-2.064402	-0.494195	0.412751	-0.009918	0.051575	-0.048828	-0.020630	0.999994	-0.002471	0.002064	-0.000050	
14196	    0	4.517365	-4.355785	-3.144400	-0.305558	0.382042	0.013161	0.045116	-0.043603	-0.031464	0.999996	-0.001528	0.001910	0.000066	
14197	    0	3.719061	-4.822178	-3.280815	-0.047302	0.216103	0.063324	0.037170	-0.048218	-0.032837	0.999999	-0.000237	0.001081	0.000317	
14198	    0	3.277266	-4.565464	-2.669473	0.172043	0.072098	0.181770	0.032804	-0.045602	-0.026746	0.999999	0.000860	0.000360	0.000909	
14199	    0	3.271254	-4.049612	-2.098111	0.364876	0.013733	0.320435	0.032776	-0.040405	-0.021057	0.999996	0.001824	0.000069	0.001602	
14200	    0	3.607388	-3.560481	-2.057233	0.554849	0.047684	0.424004	0.036144	-0.035471	-0.020679	0.999993	0.002774	0.000238	0.002120	
14201	    0	3.875814	-2.884806	-2.309378	0.569345	0.091553	0.492860	0.038818	-0.028687	-0.023193	0.999992	0.002847	0.000458	0.002464	
14202	    0	3.877265	-1.875491	-2.450750	0.485421	0.135613	0.587274	0.038811	-0.018581	-0.024579	0.999992	0.002427	0.000678	0.002936	
14203	    0	4.235633	-0.666552	-2.412058	0.371553	0.175667	0.712587	0.042358	-0.006470	-0.024170	0.999991	0.001858	0.000878	0.003563	
14204	    0	5.218786	-0.477586	-1.979845	0.158501	0.189973	0.860217	0.052189	-0.004536	-0.019852	0.999990	0.000793	0.000950	0.004301	
14205	    0	6.162917	-0.500343	-0.916727	-0.063134	0.164033	0.994877	0.061646	-0.004700	-0.009216	0.999987	-0.000316	0.000820	0.004974	
14206	    0	6.696336	-0.397207	-0.017804	-0.284387	0.076485	1.122862	0.066984	-0.003596	-0.000198	0.999983	-0.001422	0.000382	0.005614	
14207	    0	7.268052	-0.220203	-0.259118	-0.431636	-0.064850	1.203927	0.072693	-0.001770	-0.002563	0.999979	-0.002158	-0.000324	0.006020	
14208	    0	8.107002	-0.498403	-1.712914	-0.437358	-0.198747	1.272974	0.081117	-0.004505	-0.017038	0.999976	-0.002187	-0.000994	0.006365	
14209	    0	10.056094	-1.274948	-3.813813	-0.156404	-0.327113	1.379406	0.100708	-0.012085	-0.037964	0.999974	-0.000782	-0.001636	0.006897	
14210	    0	12.863604	-2.138308	-5.787169	0.398640	-0.512319	1.489656	0.128938	-0.020308	-0.057583	0.999967	0.001993	-0.002562	0.007448	
14211	    0	15.466638	-2.867523	-8.334204	1.147482	-0.792518	1.575499	0.155212	-0.026978	-0.082886	0.999944	0.005737	-0.003963	0.007877	
14212	    0	18.158458	-3.895670	-10.232326	1.815087	-1.052316	1.663067	0.182431	-0.036517	-0.101704	0.999910	0.009075	-0.005261	0.008315	
14213	    0	20.764295	-3.950200	-10.763903	1.937359	-1.085699	1.770079	0.208557	-0.036621	-0.106873	0.999899	0.009686	-0.005428	0.008850	
14214	    0	21.605254	-2.582014	-9.641526	1.732690	-1.000627	1.880514	0.216757	-0.022954	-0.095539	0.999906	0.008663	-0.005003	0.009402	
14215	    0	21.897502	-0.543086	-7.750999	1.420060	-0.910212	1.950890	0.219360	-0.002747	-0.076538	0.999916	0.007100	-0.004551	0.009754	
14216	    0	21.924167	1.986490	-4.951187	1.009010	-0.779169	1.915402	0.219227	0.022211	-0.048550	0.999933	0.005045	-0.003896	0.009577	
14217	    0	20.534852	4.151657	-2.922480	0.718893	-0.791183	1.791414	0.205078	0.043457	-0.028259	0.999945	0.003594	-0.003956	0.008957	
14218	    0	18.818055	4.153761	-1.248319	0.460059	-0.995269	1.539253	0.187912	0.043012	-0.011450	0.999955	0.002300	-0.004976	0.007696	
14219	    0	17.100527	2.856938	0.387505	0.740826	-1.195355	1.371787	0.170776	0.029724	0.005005	0.999951	0.003704	-0.005977	0.006859	
14220	    0	16.537751	1.134694	-0.164265	1.737833	-1.192507	1.468127	0.165294	0.012568	-0.000551	0.999917	0.008689	-0.005962	0.007340	
14221	    0	16.911150	0.722061	-1.519329	2.479850	-1.172688	1.642679	0.169128	0.008789	-0.014099	0.999872	0.012399	-0.005863	0.008213	
14222	    0	15.574704	4.102951	-1.796758	2.973526	-0.970702	1.781178	0.155455	0.042668	-0.016586	0.999838	0.014867	-0.004853	0.008905	
14223	    0	14.434564	8.008995	-1.909452	2.978102	-0.767558	1.818181	0.143677	0.081665	-0.017334	0.999840	0.014890	-0.003838	0.009090	
14224	    0	13.190026	9.332771	-1.790111	2.352617	-0.727301	1.842571	0.131093	0.094736	-0.016315	0.999882	0.011763	-0.003636	0.009212	
14225	    0	11.706891	8.639181	-0.118435	1.648758	-0.800155	1.833395	0.116272	0.087463	0.000000	0.999915	0.008244	-0.004001	0.009167	
14226	    0	10.614083	7.132393	0.357348	1.248958	-0.761430	1.711309	0.105510	0.072203	0.004425	0.999936	0.006245	-0.003807	0.008556	
14227	    0	9.175519	7.515620	-0.315407	1.057641	-0.550851	1.523614	0.091187	0.075867	-0.002502	0.999952	0.005288	-0.002754	0.007618	
14228	    0	7.558539	9.157351	0.284204	0.891695	-0.320438	1.306929	0.074980	0.092051	0.003372	0.999967	0.004458	-0.001602	0.006535	
14229	    0	5.882234	9.558578	0.768800	0.445750	-0.321962	1.087958	0.058289	0.095886	0.007996	0.999981	0.002229	-0.001610	0.005440	
14230	    0	4.701439	9.582702	1.149436	-0.175668	-0.415232	0.904469	0.046556	0.096048	0.011507	0.999987	-0.000878	-0.002076	0.004522	
14231	    0	4.624639	9.833245	2.125193	-0.256158	-0.231934	0.656892	0.045898	0.098511	0.021179	0.999992	-0.001281	-0.001160	0.003284	
14232	    0	3.823217	10.781515	0.909798	-0.815395	-0.082016	0.495913	0.037961	0.107945	0.008674	0.999988	-0.004077	-0.000410	0.002480	
14233	    0	2.616936	11.696365	0.821773	-1.287089	0.140573	0.401309	0.025940	0.117065	0.007446	0.999976	-0.006435	0.000703	0.002007	
14234	    0	1.425958	12.155347	-1.135122	-2.000462	0.178149	0.318533	0.014055	0.121454	-0.012579	0.999948	-0.010002	0.000891	0.001593	
14235	    0	2.383115	8.762436	0.787200	-2.024876	0.220684	0.080873	0.023804	0.087708	0.006958	0.999948	-0.010124	0.001103	0.000404	
14236	    0	1.658351	7.481405	-1.150452	-2.637940	0.038720	0.034715	0.016568	0.074656	-0.012493	0.999912	-0.013189	0.000194	0.000174	
14237	    0	1.447499	4.476058	0.858560	-2.415525	-0.172238	0.011444	0.014465	0.044861	0.008057	0.999927	-0.012077	-0.000861	0.000057	
14238	    0	1.771694	-1.566176	-1.160484	-2.005422	-0.505838	-0.084497	0.017739	-0.015784	-0.011402	0.999946	-0.010027	-0.002529	-0.000422	
14239	    0	1.575064	-5.503778	-6.715213	-1.831847	-0.691044	-0.184634	0.015930	-0.055664	-0.066589	0.999951	-0.009159	-0.003455	-0.000923	
14240	    0	2.900229	-10.996946	-9.414453	-1.553552	-0.248721	-0.347141	0.028927	-0.110746	-0.093250	0.999967	-0.007768	-0.001244	-0.001736	
14241	    0	5.840416	-16.891817	-6.759039	-0.818447	0.408174	-0.407411	0.057922	-0.169312	-0.067017	0.999987	-0.004092	0.002041	-0.002037	
14242	    0	7.885707	-18.031870	-3.517252	0.697520	0.535013	-0.271226	0.078517	-0.180301	-0.036012	0.999989	0.003488	0.002675	-0.001356	
14243	    0	8.856284	-16.176498	-4.834817	1.854923	0.183108	-0.020600	0.088501	-0.161316	-0.049927	0.999956	0.009274	0.000916	-0.000103	
14244	    0	8.249257	-14.658748	-8.130489	1.795793	0.130846	0.194171	0.082581	-0.145769	-0.082670	0.999959	0.008979	0.000654	0.000971	
14245	    0	6.409656	-10.385713	-8.588257	1.570148	0.496870	0.279239	0.064026	-0.103088	-0.086853	0.999965	0.007851	0.002484	0.001396	
14246	    0	4.635970	-4.666592	-5.405254	1.558897	0.787936	0.354581	0.046227	-0.046160	-0.054596	0.999960	0.007794	0.003940	0.001773	
14247	    0	3.733269	-0.778804	-1.856763	1.518458	0.601203	0.417333	0.037292	-0.007568	-0.018738	0.999964	0.007592	0.003006	0.002087	
14248	    0	4.128894	0.448055	-0.892136	1.401342	0.147630	0.444798	0.041272	0.004635	-0.008920	0.999972	0.007007	0.000738	0.002224	
14249	    0	6.685339	-1.815911	-0.432789	1.514642	-0.392155	0.361637	0.066895	-0.018005	-0.004333	0.999968	0.007573	-0.001961	0.001808	
14250	    0	13.264367	-0.603944	-6.214918	2.206276	-0.073434	0.318915	0.132675	-0.005142	-0.062160	0.999937	0.011031	-0.000367	0.001595	
14251	    0	18.133488	1.099836	0.342137	1.429002	0.831804	0.212100	0.181335	0.011169	0.002747	0.999965	0.007145	0.004159	0.001060	
14252	    0	18.902009	3.369168	-3.274483	0.782015	0.069618	0.358964	0.188948	0.034159	-0.032678	0.999990	0.003910	0.000348	0.001795	
14253	    0	17.020246	-0.966164	3.330449	-0.100708	-0.377465	0.575258	0.170166	-0.009155	0.033630	0.999993	-0.000504	-0.001887	0.002876	
14254	    0	10.580654	17.640230	-2.066346	1.423276	-0.042344	-0.127984	0.105924	0.176476	-0.019385	0.999974	0.007116	-0.000212	-0.000640	
14255	    0	6.941110	24.293532	-0.771239	0.258065	0.135041	-0.595857	0.070129	0.242737	-0.007446	0.999994	0.001290	0.000675	-0.002979	
14256	    0	10.655018	22.551005	0.114461	-1.343173	0.008965	-1.158348	0.107854	0.224889	-0.000372	0.999960	-0.006716	0.000045	-0.005792	
14257	    0	15.483142	20.164690	-1.844138	-1.425963	0.267225	-1.683079	0.156494	0.200195	-0.020081	0.999938	-0.007130	0.001336	-0.008415	
14258	    0	19.267285	14.348756	-2.335919	-1.247819	0.355539	-2.115113	0.194132	0.141289	-0.024590	0.999923	-0.006239	0.001778	-0.010575	
14259	    0	20.370015	12.061711	-3.837843	-0.842881	0.298318	-2.416296	0.205078	0.117981	-0.039185	0.999916	-0.004214	0.001492	-0.012081	
14260	    0	19.931495	10.470654	-4.803564	-0.872258	0.309382	-2.583203	0.200568	0.101910	-0.048794	0.999906	-0.004361	0.001547	-0.012916	
14261	    0	19.525248	8.592260	-4.271642	-1.113743	0.341047	-2.790939	0.196350	0.082947	-0.043518	0.999886	-0.005569	0.001705	-0.013954	
14262	    0	18.733051	8.204247	-3.539415	-1.265962	0.409907	-2.925808	0.188428	0.079063	-0.036286	0.999870	-0.006330	0.002049	-0.014628	
14263	    0	18.577904	6.894547	-2.978465	-1.782316	0.408384	-2.957302	0.186707	0.065918	-0.030762	0.999848	-0.008911	0.002042	-0.014786	
14264	    0	19.060670	3.859564	-3.110272	-2.187088	0.423264	-2.901811	0.191070	0.035480	-0.031906	0.999832	-0.010935	0.002116	-0.014508	
14265	    0	19.625495	0.427959	-2.172925	-2.346744	0.531799	-2.790990	0.196228	0.001282	-0.022278	0.999830	-0.011733	0.002659	-0.013954	
14266	    0	19.246714	-4.051379	-0.876573	-2.543596	0.648727	-2.640877	0.191880	-0.043162	-0.008851	0.999826	-0.012717	0.003243	-0.013204	
14267	    0	18.120006	-5.539461	-0.041854	-2.580407	0.754781	-2.521658	0.180481	-0.057678	-0.000366	0.999829	-0.012901	0.003774	-0.012608	
14268	    0	16.623987	-6.313098	0.108860	-2.228458	0.854913	-2.313148	0.165500	-0.065036	0.001098	0.999862	-0.011142	0.004274	-0.011565	
14269	    0	15.094872	-7.837650	-0.697869	-1.853246	0.870736	-2.096633	0.150085	-0.080017	-0.006897	0.999892	-0.009266	0.004354	-0.010483	
14270	    0	13.680621	-8.884109	-1.329794	-1.639415	0.880649	-1.919804	0.135886	-0.090257	-0.013162	0.999910	-0.008197	0.004403	-0.009599	
14271	    0	12.057107	-8.489272	-1.784745	-1.520577	0.941682	-1.718947	0.119751	-0.086060	-0.017761	0.999923	-0.007603	0.004708	-0.008595	
14272	    0	10.123393	-8.663661	-1.710918	-1.341275	0.963803	-1.505311	0.100495	-0.087509	-0.017010	0.999937	-0.006706	0.004819	-0.007526	
14273	    0	7.790076	-8.326039	-1.985243	-1.022354	0.905050	-1.292438	0.077271	-0.083862	-0.019775	0.999955	-0.005112	0.004525	-0.006462	
14274	    0	6.027467	-8.730749	-3.386962	-0.762184	0.736625	-1.090823	0.059672	-0.087763	-0.033756	0.999970	-0.003811	0.003683	-0.005454	
14275	    0	5.390266	-7.592480	-4.294264	-0.501254	0.582317	-0.976569	0.053406	-0.076294	-0.042908	0.999980	-0.002506	0.002912	-0.004883	
14276	    0	5.070710	-6.924244	-4.884672	-0.238038	0.496104	-0.873951	0.050282	-0.069521	-0.048889	0.999987	-0.001190	0.002481	-0.004370	
14277	    0	4.877626	-6.889086	-4.800529	-0.041199	0.431253	-0.787356	0.048401	-0.069092	-0.048096	0.999990	-0.000206	0.002156	-0.003937	
14278	    0	4.851930	-7.238611	-4.335434	0.021744	0.424195	-0.669863	0.048184	-0.072543	-0.043465	0.999991	0.000109	0.002121	-0.003349	
14279	    0	4.729374	-8.111204	-3.664071	0.013733	0.411416	-0.544740	0.046997	-0.081238	-0.036743	0.999993	0.000069	0.002057	-0.002724	
14280	    0	4.805394	-8.498167	-3.033488	0.013351	0.384713	-0.387764	0.047831	-0.085073	-0.030433	0.999996	0.000067	0.001924	-0.001939	
14281	    0	4.773752	-7.211221	-3.051093	0.158692	0.300026	-0.233460	0.047607	-0.072144	-0.030640	0.999997	0.000793	0.001500	-0.001167	
14282	    0	4.532399	-5.588702	-3.032560	0.368882	0.215912	-0.092888	0.045265	-0.055852	-0.030478	0.999997	0.001844	0.001080	-0.000464	
14283	    0	4.058633	-5.116534	-3.247142	0.413513	0.077248	0.057221	0.040588	-0.051086	-0.032593	0.999997	0.002068	0.000386	0.000286	
14284	    0	3.702626	-5.434851	-3.445515	0.304985	0.001907	0.289917	0.037105	-0.054242	-0.034538	0.999997	0.001525	0.000010	0.001450	
14285	    0	4.051348	-5.622450	-3.473375	0.171852	0.039673	0.508881	0.040649	-0.056091	-0.034790	0.999996	0.000859	0.000198	0.002544	
14286	    0	4.701248	-5.127502	-3.057397	0.170327	0.162697	0.738337	0.047176	-0.051075	-0.030656	0.999992	0.000852	0.000813	0.003692	
14287	    0	5.549031	-4.124825	-2.290607	0.213052	0.217439	0.968174	0.055664	-0.040955	-0.023010	0.999987	0.001065	0.001087	0.004841	
14288	    0	6.199550	-2.873169	-1.778659	0.201226	0.182344	1.165778	0.062145	-0.028352	-0.017872	0.999982	0.001006	0.000912	0.005829	
14289	    0	6.495128	-1.827326	-1.361258	0.145723	0.142099	1.356517	0.065063	-0.017822	-0.013672	0.999976	0.000729	0.000710	0.006783	
14290	    0	6.855989	-0.965293	-1.163110	0.104524	0.099565	1.513686	0.068624	-0.009128	-0.011670	0.999970	0.000523	0.000498	0.007568	
14291	    0	7.808217	-0.553621	-1.660234	0.168039	-0.012970	1.637287	0.078125	-0.004883	-0.016602	0.999966	0.000840	-0.000065	0.008186	
14292	    0	9.895018	-0.441143	-2.866717	0.326924	-0.202754	1.745056	0.099012	-0.003501	-0.028573	0.999960	0.001635	-0.001014	0.008725	
14293	    0	12.823695	-1.126658	-4.555927	0.608836	-0.376707	1.837951	0.128418	-0.009949	-0.045349	0.999951	0.003044	-0.001884	0.009190	
14294	    0	15.585536	-2.198583	-6.491365	0.967236	-0.497637	1.917878	0.156216	-0.020176	-0.064626	0.999939	0.004836	-0.002488	0.009589	
14295	    0	17.744051	-2.647079	-7.507332	1.346623	-0.601021	2.021842	0.177917	-0.024170	-0.074707	0.999921	0.006733	-0.003005	0.010109	
14296	    0	19.763071	-2.056356	-7.538393	1.536227	-0.694488	2.177880	0.198095	-0.017832	-0.074841	0.999905	0.007681	-0.003472	0.010889	
14297	    0	21.117930	-0.659727	-7.007210	1.503042	-0.729204	2.340016	0.211487	-0.003601	-0.069336	0.999896	0.007515	-0.003646	0.011700	
14298	    0	21.662664	0.996479	-6.316050	1.309248	-0.771358	2.411543	0.216723	0.012987	-0.062246	0.999898	0.006546	-0.003857	0.012057	
14299	    0	21.913254	2.730367	-5.424472	1.029428	-0.795771	2.404097	0.218994	0.030212	-0.053223	0.999907	0.005147	-0.003979	0.012020	
14300	    0	21.485601	3.608188	-4.448348	0.904871	-0.742551	2.275720	0.214588	0.038723	-0.043515	0.999918	0.004524	-0.003713	0.011378	
14301	    0	20.682726	2.777359	-3.293079	0.844783	-0.798052	1.991316	0.206665	0.029968	-0.031982	0.999933	0.004224	-0.003990	0.009956	
14302	    0	19.287306	2.470418	-1.954396	0.844018	-0.969524	1.689180	0.192746	0.026412	-0.018500	0.999943	0.004220	-0.004848	0.008446	
14303	    0	17.154572	3.159344	-0.672961	1.276616	-1.058220	1.548800	0.171326	0.032959	-0.005615	0.999935	0.006383	-0.005291	0.007744	
14304	    0	16.254346	3.239619	-0.558938	1.969016	-1.036485	1.549768	0.162311	0.033702	-0.004420	0.999907	0.009845	-0.005182	0.007749	
14305	    0	15.111650	4.700319	-1.732546	2.281273	-1.043549	1.603758	0.150818	0.048401	-0.015991	0.999888	0.011406	-0.005218	0.008018	
14306	    0	13.863423	7.133104	-2.477926	2.281657	-1.078837	1.640954	0.138169	0.072737	-0.023209	0.999887	0.011408	-0.005394	0.008204	
14307	    0	12.968094	9.138037	-1.857870	2.073736	-0.919181	1.590780	0.129028	0.092590	-0.017029	0.999904	0.010368	-0.004596	0.007954	
14308	    0	11.923934	9.676312	-0.714949	1.717037	-0.838300	1.500167	0.118535	0.097708	-0.005816	0.999926	0.008585	-0.004191	0.007501	
14309	    0	10.675387	9.051165	-0.229816	1.334596	-0.884263	1.364161	0.106140	0.091248	-0.001221	0.999945	0.006673	-0.004421	0.006821	
14310	    0	9.200152	8.716278	0.321717	0.914777	-0.967420	1.199548	0.091458	0.087695	0.004061	0.999959	0.004574	-0.004837	0.005998	
14311	    0	7.517633	9.425209	0.974811	0.619703	-0.895699	1.026163	0.074646	0.094604	0.010376	0.999971	0.003098	-0.004478	0.005131	
14312	    0	5.993488	10.163320	1.643052	0.393870	-0.720601	0.871664	0.059431	0.101860	0.016846	0.999982	0.001969	-0.003603	0.004358	
14313	    0	4.413332	10.731825	0.833462	0.010109	-0.656131	0.753024	0.043701	0.107483	0.008484	0.999987	0.000051	-0.003281	0.003765	
14314	    0	4.104813	11.014743	1.557560	-0.256348	-0.481416	0.622560	0.040668	0.110294	0.015532	0.999991	-0.001282	-0.002407	0.003113	
14315	    0	3.666289	11.087533	1.333530	-0.903324	-0.243188	0.486758	0.036377	0.111023	0.012878	0.999986	-0.004517	-0.001216	0.002434	
14316	    0	3.439176	11.166708	1.511934	-1.446165	0.090600	0.340083	0.034208	0.111831	0.014296	0.999971	-0.007231	0.000453	0.001700	
14317	    0	1.550076	11.922119	0.248649	-2.295546	0.248724	0.306709	0.015320	0.119263	0.001099	0.999931	-0.011477	0.001244	0.001534	
14318	    0	1.657388	9.930802	1.381642	-2.411522	0.432788	0.181203	0.016512	0.099480	0.012582	0.999924	-0.012057	0.002164	0.000906	
14319	    0	0.975084	7.407847	-1.040224	-3.017351	0.358595	0.070956	0.009705	0.073914	-0.011536	0.999884	-0.015086	0.001793	0.000355	
14320	    0	0.152911	4.655921	-1.054861	-3.221842	-0.062564	-0.032808	0.001540	0.046381	-0.011296	0.999869	-0.016109	-0.000313	-0.000164	
14321	    0	0.044271	-0.547042	-3.121303	-2.884781	-0.726155	-0.225838	0.000549	-0.005920	-0.031128	0.999888	-0.014423	-0.003631	-0.001129	
14322	    0	0.308458	-4.518804	-7.269393	-2.644063	-1.252029	-0.457208	0.003432	-0.046151	-0.072067	0.999890	-0.013220	-0.006260	-0.002286	
14323	    0	2.619925	-9.974757	-11.473790	-2.369762	-1.071772	-0.756859	0.026428	-0.101196	-0.113403	0.999907	-0.011848	-0.005359	-0.003784	
14324	    0	6.314071	-17.641239	-8.638687	-1.281370	-0.110437	-0.944529	0.062352	-0.177257	-0.085218	0.999968	-0.006407	-0.000552	-0.004723	
14325	    0	8.569830	-19.032195	-2.007546	0.636486	0.595096	-0.837713	0.084839	-0.190613	-0.020935	0.999981	0.003182	0.002975	-0.004189	
14326	    0	9.232139	-16.023555	-1.738601	2.271707	0.625625	-0.505078	0.091858	-0.160254	-0.019494	0.999927	0.011358	0.003128	-0.002525	
14327	    0	8.681701	-15.387109	-6.738008	2.518727	0.762199	-0.167852	0.086426	-0.153076	-0.069641	0.999912	0.012593	0.003811	-0.000839	
14328	    0	6.867312	-13.260134	-9.020145	2.188356	1.108579	0.043870	0.068195	-0.131586	-0.092024	0.999925	0.010942	0.005543	0.000219	
14329	    0	5.131964	-8.675820	-5.835074	1.803816	1.245905	0.170902	0.051025	-0.086182	-0.059448	0.999939	0.009019	0.006229	0.000854	
14330	    0	3.890349	-3.225048	-1.727466	1.384561	0.941669	0.292972	0.038868	-0.032072	-0.017680	0.999964	0.006923	0.004708	0.001465	
14331	    0	2.776837	1.835185	1.319293	1.244364	0.448803	0.295260	0.027771	0.018311	0.013245	0.999976	0.006222	0.002244	0.001476	
14332	    0	3.342877	4.876525	1.809532	1.498046	-0.029946	0.171282	0.033384	0.048656	0.018465	0.999971	0.007490	-0.000150	0.000856	
14333	    0	5.738690	5.247685	-0.074832	1.940949	-0.195888	-0.178531	0.057434	0.052429	-0.000183	0.999951	0.009705	-0.000979	-0.000893	
14334	    0	10.989184	9.337704	-0.002419	1.582545	0.427823	-0.239947	0.110004	0.093243	0.000479	0.999966	0.007913	0.002139	-0.001200	
14335	    0	15.971952	5.991808	-2.334253	0.170136	0.182533	-0.307465	0.159790	0.059692	-0.023438	0.999997	0.000851	0.000913	-0.001537	
14336	    0	22.442632	-14.151612	-13.451177	-0.505640	-0.685885	0.311280	0.225105	-0.141504	-0.133383	0.999990	-0.002528	-0.003429	0.001556	
14337	    0	21.510640	-9.820827	-2.912988	0.775912	-0.255395	0.010681	0.215149	-0.098083	-0.029236	0.999991	0.003880	-0.001277	0.000053	
14338	    0	12.779761	17.513755	-1.075189	2.413238	0.101855	-0.433170	0.128172	0.174973	-0.008705	0.999925	0.012066	0.000509	-0.002166	
14339	    0	9.373343	25.038728	1.433816	0.798801	0.036812	-0.694278	0.094604	0.250000	0.015320	0.999986	0.003994	0.000184	-0.003471	
14340	    0	10.171015	21.738137	-0.854872	-0.713928	-0.006867	-1.464288	0.103298	0.216597	-0.009319	0.999967	-0.003570	-0.000034	-0.007321	
14341	    0	14.455810	17.280989	-0.210839	-1.375427	0.176244	-2.175201	0.146423	0.171204	-0.003418	0.999916	-0.006877	0.000881	-0.010876	
14342	    0	18.630370	16.781081	-1.302273	-1.178400	0.282679	-2.587597	0.188434	0.165300	-0.014267	0.999898	-0.005892	0.001413	-0.012938	
14343	    0	21.846561	13.189913	-2.101278	-0.665304	0.369465	-2.660455	0.220154	0.128906	-0.021851	0.999904	-0.003326	0.001847	-0.013302	
14344	    0	23.063886	8.739398	-2.370771	-0.473992	0.335323	-2.729504	0.231762	0.084179	-0.024298	0.999902	-0.002370	0.001677	-0.013647	
14345	    0	21.490221	7.316710	-4.270447	-0.561354	0.286876	-2.932849	0.215881	0.069885	-0.043213	0.999887	-0.002807	0.001434	-0.014664	
14346	    0	19.606210	6.465082	-4.512844	-1.380220	0.365846	-2.968159	0.196906	0.061418	-0.045919	0.999864	-0.006901	0.001829	-0.014840	
14347	    0	18.750232	4.542569	-3.327313	-2.449947	0.464849	-2.887901	0.188049	0.042297	-0.034241	0.999818	-0.012249	0.002324	-0.014439	
14348	    0	18.609989	1.792606	-1.144477	-2.948009	0.553169	-2.718348	0.186286	0.015219	-0.012197	0.999795	-0.014739	0.002766	-0.013591	
14349	    0	18.400822	-2.387439	0.939650	-2.712980	0.569949	-2.517084	0.183716	-0.026062	0.009216	0.999825	-0.013564	0.002850	-0.012585	
14350	    0	17.656570	-4.735688	1.098624	-2.225404	0.645667	-2.335463	0.176033	-0.049293	0.010959	0.999865	-0.011127	0.003228	-0.011677	
14351	    0	16.143960	-5.215230	0.647235	-1.862403	0.770788	-2.160723	0.160889	-0.053833	0.006348	0.999890	-0.009312	0.003854	-0.010803	
14352	    0	14.521050	-5.680440	0.678244	-1.918096	0.861579	-1.975128	0.144670	-0.058170	0.006712	0.999895	-0.009590	0.004308	-0.009875	
14353	    0	13.102485	-5.355422	0.458392	-2.053713	0.862914	-1.805940	0.130554	-0.054688	0.004578	0.999897	-0.010268	0.004314	-0.009029	
14354	    0	11.426897	-6.276871	-1.240679	-1.971876	0.843455	-1.617671	0.113704	-0.063811	-0.012261	0.999909	-0.009859	0.004217	-0.008088	
14355	    0	9.566867	-6.277528	-2.940895	-1.816414	0.845358	-1.425970	0.095093	-0.063721	-0.029236	0.999924	-0.009082	0.004227	-0.007130	
14356	    0	7.790843	-6.889646	-3.978440	-1.523046	0.822464	-1.206230	0.077327	-0.069666	-0.039575	0.999944	-0.007615	0.004112	-0.006031	
14357	    0	6.354102	-7.156518	-3.496565	-1.144995	0.746927	-1.005566	0.063049	-0.072083	-0.034790	0.999964	-0.005725	0.003735	-0.005028	
14358	    0	5.389409	-6.846028	-2.758673	-0.733762	0.602536	-0.872237	0.053512	-0.068795	-0.027496	0.999979	-0.003669	0.003013	-0.004361	
14359	    0	4.915765	-7.069002	-2.632016	-0.389101	0.506022	-0.742343	0.048828	-0.070923	-0.026306	0.999988	-0.001945	0.002530	-0.003712	
14360	    0	4.750638	-7.018609	-3.456905	-0.250436	0.435640	-0.637628	0.047207	-0.070380	-0.034584	0.999991	-0.001252	0.002178	-0.003188	
14361	    0	4.695849	-7.301756	-4.515476	-0.221062	0.393677	-0.485993	0.046692	-0.073181	-0.045166	0.999994	-0.001105	0.001968	-0.002430	
14362	    0	4.917110	-8.631192	-4.720331	-0.279236	0.401688	-0.300789	0.048946	-0.086452	-0.047181	0.999995	-0.001396	0.002008	-0.001504	
14363	    0	5.451945	-8.266397	-3.664252	-0.327874	0.419617	-0.145722	0.054382	-0.082764	-0.036621	0.999996	-0.001639	0.002098	-0.000729	
14364	    0	5.710342	-5.863725	-2.805162	-0.064278	0.419617	-0.059891	0.057027	-0.058663	-0.028152	0.999997	-0.000321	0.002098	-0.000299	
14365	    0	5.168738	-4.367546	-2.706676	0.300598	0.345803	-0.021362	0.051636	-0.043640	-0.027222	0.999997	0.001503	0.001729	-0.000107	
14366	    0	4.328469	-4.288437	-3.294506	0.334740	0.142860	0.064278	0.043275	-0.042815	-0.033048	0.999998	0.001674	0.000714	0.000321	
14367	    0	3.674864	-4.334281	-3.964920	0.135040	-0.030327	0.228882	0.036804	-0.043274	-0.039673	0.999999	0.000675	-0.000152	0.001144	
14368	    0	3.651614	-4.508116	-4.238324	-0.006294	-0.060272	0.434876	0.036627	-0.045003	-0.042371	0.999997	-0.000031	-0.000301	0.002174	
14369	    0	4.069094	-4.713315	-4.185514	0.039864	0.027466	0.626374	0.040833	-0.046997	-0.041870	0.999994	0.000199	0.000137	0.003132	
14370	    0	4.550604	-4.140595	-3.567860	0.141335	0.132561	0.814822	0.045650	-0.041195	-0.035738	0.999990	0.000707	0.000663	0.004074	
14371	    0	5.081762	-3.360012	-2.703624	0.139809	0.157166	1.005559	0.050964	-0.033325	-0.027100	0.999987	0.000699	0.000786	0.005028	
14372	    0	5.835343	-2.172093	-1.784122	0.040055	0.132562	1.202209	0.058471	-0.021366	-0.017884	0.999981	0.000200	0.000663	0.006011	
14373	    0	6.688793	-1.095537	-1.266821	-0.076104	0.093079	1.380931	0.066956	-0.010498	-0.012695	0.999975	-0.000381	0.000465	0.006905	
14374	    0	7.720119	-0.480091	-1.223936	-0.129129	0.061989	1.495375	0.077230	-0.004231	-0.012260	0.999971	-0.000646	0.000310	0.007477	
14375	    0	9.265161	-0.000627	-2.210998	0.022316	-0.032807	1.589220	0.092651	0.000732	-0.022095	0.999968	0.000112	-0.000164	0.007946	
14376	    0	12.063285	0.230396	-3.690673	0.415044	-0.293926	1.664755	0.120662	0.003385	-0.036723	0.999962	0.002075	-0.001470	0.008324	
14377	    0	15.300975	-0.075220	-5.596240	0.947587	-0.467499	1.754028	0.153137	0.000854	-0.055603	0.999948	0.004738	-0.002337	0.008770	
14378	    0	17.655359	-0.734331	-6.955341	1.364931	-0.564970	1.866575	0.176805	-0.005221	-0.069095	0.999928	0.006824	-0.002825	0.009333	
14379	    0	19.274960	-1.168889	-7.291629	1.551290	-0.565354	1.979120	0.193054	-0.009216	-0.072449	0.999916	0.007756	-0.002827	0.009895	
14380	    0	20.269727	-0.778959	-6.561896	1.424257	-0.581758	2.089750	0.202950	-0.005205	-0.065072	0.999915	0.007121	-0.002909	0.010448	
14381	    0	20.368179	0.725545	-5.615851	1.101903	-0.737018	2.043202	0.203796	0.009644	-0.055359	0.999926	0.005509	-0.003685	0.010216	
14382	    0	20.354784	2.637336	-4.937924	0.779361	-0.845356	2.047395	0.203468	0.028646	-0.048410	0.999930	0.003897	-0.004227	0.010237	
14383	    0	20.678757	3.331643	-3.856273	0.726524	-0.811784	1.942484	0.206604	0.035461	-0.037598	0.999937	0.003633	-0.004059	0.009712	
14384	    0	20.299782	2.831802	-3.317628	0.778594	-0.893991	1.728280	0.202888	0.030198	-0.032154	0.999945	0.003893	-0.004470	0.008641	
14385	    0	19.265792	2.241936	-2.810406	0.945489	-1.054401	1.493099	0.192627	0.023987	-0.026978	0.999947	0.004727	-0.005272	0.007465	
14386	    0	17.875535	2.179882	-2.049065	1.454958	-1.114680	1.432070	0.178702	0.023222	-0.019329	0.999932	0.007275	-0.005573	0.007160	
14387	    0	17.297815	2.393321	-2.403803	1.994387	-1.112210	1.558735	0.172913	0.025513	-0.022827	0.999904	0.009972	-0.005561	0.007793	
14388	    0	15.860170	4.281528	-2.850861	2.208982	-1.101344	1.669755	0.158387	0.044443	-0.027151	0.999888	0.011045	-0.005507	0.008348	
14389	    0	14.325158	6.132656	-2.214353	2.204978	-1.071017	1.741856	0.142822	0.062805	-0.020691	0.999887	0.011024	-0.005355	0.008709	
14390	    0	13.118502	7.183163	-0.965213	2.018995	-0.978693	1.689394	0.130614	0.073025	-0.008279	0.999901	0.010095	-0.004893	0.008447	
14391	    0	11.950936	7.445387	-0.166021	1.755001	-0.963619	1.642655	0.118896	0.075439	-0.000427	0.999916	0.008775	-0.004818	0.008213	
14392	    0	10.832641	7.370368	0.314029	1.537932	-0.974678	1.543272	0.107735	0.074507	0.004237	0.999928	0.007689	-0.004873	0.007716	
14393	    0	9.910531	7.125415	0.605905	1.238465	-1.045247	1.390865	0.098572	0.071899	0.007019	0.999943	0.006192	-0.005226	0.006954	
14394	    0	9.075404	7.560508	0.977462	0.981536	-1.058594	1.218432	0.090237	0.076105	0.010626	0.999955	0.004908	-0.005293	0.006092	
14395	    0	8.180486	8.361995	1.403641	0.853167	-0.923930	1.046765	0.081299	0.083984	0.014771	0.999966	0.004266	-0.004620	0.005234	
14396	    0	7.092948	9.150039	1.559641	0.752264	-0.754744	0.902183	0.070456	0.091759	0.016208	0.999975	0.003761	-0.003774	0.004511	
14397	    0	5.724466	10.264595	0.850102	0.492861	-0.550654	0.772098	0.056824	0.102844	0.008911	0.999986	0.002464	-0.002753	0.003860	
14398	    0	4.629018	10.251417	2.115277	0.508119	-0.200654	0.608637	0.045957	0.102600	0.021460	0.999991	0.002541	-0.001003	0.003043	
14399	    0	3.470072	9.857252	1.258378	-0.428010	-0.101280	0.548555	0.034424	0.098694	0.012390	0.999993	-0.002140	-0.000506	0.002743	
14400	    0	1.772121	11.064947	0.075879	-1.199158	0.063324	0.375941	0.017513	0.110684	0.000090	0.999980	-0.005996	0.000317	0.001880	
14401	    0	0.531801	11.510175	-0.483683	-2.089730	0.128367	0.325781	0.005127	0.115051	-0.006042	0.999944	-0.010448	0.000642	0.001629	
14402	    0	1.276950	7.921198	0.203977	-2.441849	0.172429	0.156597	0.012709	0.079239	0.001061	0.999925	-0.012209	0.000862	0.000783	
14403	    0	0.178726	7.017740	-0.272049	-2.860167	-0.056459	0.051882	0.001770	0.070129	-0.003723	0.999897	-0.014300	-0.000282	0.000259	
14404	    0	0.433417	3.152360	1.641494	-2.408662	-0.637643	-0.092509	0.004297	0.031716	0.016047	0.999922	-0.012043	-0.003188	-0.000463	
14405	    0	1.891106	-2.458891	-1.129313	-1.758415	-0.949876	-0.347143	0.018921	-0.024719	-0.010986	0.999949	-0.008792	-0.004749	-0.001736	
14406	    0	2.886092	-6.573649	-7.184567	-1.290143	-0.551992	-0.605398	0.028858	-0.066285	-0.071340	0.999970	-0.006451	-0.002760	-0.003027	
14407	    0	4.842478	-11.846753	-8.073304	-0.921446	0.315096	-0.751500	0.047852	-0.119019	-0.080261	0.999981	-0.004607	0.001575	-0.003757	
14408	    0	7.004141	-16.421074	-3.153843	-0.124550	0.756458	-0.720790	0.069329	-0.164481	-0.031699	0.999986	-0.000623	0.003782	-0.003604	
14409	    0	8.419693	-16.653381	-1.264882	0.916486	0.473025	-0.510409	0.083740	-0.166687	-0.013611	0.999983	0.004582	0.002365	-0.002552	
14410	    0	8.577432	-15.307571	-5.675310	1.608675	-0.068665	-0.186731	0.085651	-0.152693	-0.057953	0.999967	0.008043	-0.000343	-0.000934	
14411	    0	7.742117	-14.279666	-10.665233	1.428426	0.151826	0.160219	0.077454	-0.141968	-0.107727	0.999973	0.007142	0.000759	0.000801	
14412	    0	6.285135	-11.348167	-9.370805	1.100358	0.722509	0.350383	0.062709	-0.112853	-0.094557	0.999976	0.005502	0.003613	0.001752	
14413	    0	4.896363	-7.173141	-4.813074	1.114856	0.972758	0.452428	0.048889	-0.071350	-0.048767	0.999969	0.005574	0.004864	0.002262	
14414	    0	3.632698	-3.133085	-0.714120	1.239217	0.791748	0.482183	0.036373	-0.031198	-0.007479	0.999969	0.006196	0.003959	0.002411	
14415	    0	2.863457	1.699364	1.404949	1.290142	0.418285	0.453953	0.028625	0.016968	0.014099	0.999974	0.006451	0.002091	0.002270	
14416	    0	3.573456	5.043857	1.811590	1.277742	0.098801	0.283434	0.035672	0.050372	0.018420	0.999978	0.006389	0.000494	0.001417	
14417	    0	5.577412	5.914276	0.541290	1.534477	-0.193789	-0.059510	0.055786	0.059082	0.005920	0.999969	0.007672	-0.000969	-0.000298	
14418	    0	10.820707	8.515401	-0.435092	1.476111	0.322154	-0.043679	0.108219	0.085160	-0.003897	0.999971	0.007380	0.001611	-0.000218	
14419	    0	15.560662	2.821510	-2.876513	0.196076	0.326729	-0.136566	0.155579	0.028137	-0.028992	0.999997	0.000980	0.001634	-0.000683	
14420	    0	22.463784	-11.525513	-15.216352	-0.099564	-0.587274	0.310135	0.225262	-0.114982	-0.151445	0.999994	-0.000498	-0.002936	0.001551	
14421	    0	22.206826	-6.714595	-0.045954	0.807955	-0.108147	0.114441	0.222107	-0.067017	-0.000610	0.999991	0.004040	-0.000541	0.000572	
14422	    0	13.274144	21.025687	1.459413	2.646525	0.071146	-0.309190	0.133072	0.209834	0.017325	0.999910	0.013232	0.000356	-0.001546	
14423	    0	8.202552	26.673366	-2.057442	0.727847	-0.028801	-0.643160	0.082886	0.266541	-0.019592	0.999988	0.003639	-0.000144	-0.003216	
14424	    0	7.941008	24.770094	-2.481607	-1.748124	-0.025178	-1.519619	0.081291	0.246859	-0.026966	0.999932	-0.008740	-0.000126	-0.007598	
14425	    0	13.150580	20.809351	-1.511139	-2.301124	0.219927	-2.224064	0.133789	0.206421	-0.017639	0.999871	-0.011505	0.001100	-0.011120	
14426	    0	19.780572	16.004015	-1.655762	-1.462231	0.317395	-2.695000	0.199909	0.157228	-0.018030	0.999881	-0.007311	0.001587	-0.013474	
14427	    0	24.721324	9.345772	-1.733183	-0.443092	0.331127	-2.832893	0.248474	0.089905	-0.017944	0.999895	-0.002215	0.001656	-0.014164	
14428	    0	25.118764	7.865472	-2.731958	-0.027467	0.209244	-2.956880	0.252285	0.074926	-0.027594	0.999889	-0.000137	0.001046	-0.014784	
14429	    0	21.432903	10.694022	-3.736830	-0.361457	0.263988	-3.060272	0.215881	0.103577	-0.037842	0.999880	-0.001807	0.001320	-0.015301	
14430	    0	19.696276	6.870290	-3.590045	-1.564481	0.308624	-2.970455	0.197895	0.065483	-0.036726	0.999858	-0.007822	0.001543	-0.014852	
14431	    0	19.255549	2.658008	-1.695069	-2.671221	0.373292	-2.829160	0.192871	0.023621	-0.017639	0.999808	-0.013355	0.001866	-0.014145	
14432	    0	19.327004	1.156390	0.435719	-2.716803	0.478392	-2.657290	0.193411	0.009048	0.003760	0.999816	-0.013583	0.002392	-0.013286	
14433	    0	19.068271	-2.118402	1.160779	-2.484836	0.563842	-2.514783	0.190430	-0.023438	0.011353	0.999840	-0.012424	0.002819	-0.012573	
14434	    0	18.321866	-4.249644	0.552084	-2.354544	0.677523	-2.334515	0.182725	-0.044567	0.005418	0.999856	-0.011772	0.003387	-0.011672	
14435	    0	17.356664	-6.496145	-0.221678	-2.320201	0.794446	-2.134036	0.172852	-0.066833	-0.002136	0.999867	-0.011600	0.003972	-0.010670	
14436	    0	15.962106	-8.236994	0.016163	-2.282617	0.862920	-1.965031	0.158803	-0.083929	0.000427	0.999877	-0.011413	0.004314	-0.009825	
14437	    0	14.170410	-8.291254	-0.392785	-2.074504	0.854713	-1.808992	0.140930	-0.084229	-0.003662	0.999896	-0.010372	0.004273	-0.009045	
14438	    0	11.852189	-9.088079	-2.065891	-1.849226	0.803588	-1.611373	0.117702	-0.092020	-0.020286	0.999916	-0.009246	0.004018	-0.008057	
14439	    0	9.826912	-7.756745	-2.932968	-1.596867	0.834865	-1.412232	0.097595	-0.078491	-0.029114	0.999934	-0.007984	0.004174	-0.007061	
14440	    0	7.706813	-7.448675	-3.289702	-1.112572	0.850690	-1.205080	0.076477	-0.075131	-0.032806	0.999957	-0.005563	0.004253	-0.006025	
14441	    0	5.792114	-7.935679	-3.459204	-0.679022	0.779159	-1.038370	0.057373	-0.079773	-0.034546	0.999972	-0.003395	0.003896	-0.005192	
14442	    0	4.613608	-8.355379	-4.145279	-0.393870	0.576976	-0.924306	0.045630	-0.083847	-0.041420	0.999983	-0.001969	0.002885	-0.004622	
14443	    0	4.285777	-8.443889	-4.424339	-0.190545	0.411989	-0.820926	0.042419	-0.084656	-0.044250	0.999989	-0.000953	0.002060	-0.004105	
14444	    0	4.342824	-7.960331	-4.582702	-0.062943	0.340844	-0.674440	0.043081	-0.079763	-0.045876	0.999992	-0.000315	0.001704	-0.003372	
14445	    0	4.524514	-7.928031	-4.408795	-0.096131	0.348855	-0.466920	0.044983	-0.079407	-0.044128	0.999995	-0.000481	0.001744	-0.002335	
14446	    0	4.853687	-7.398836	-3.620632	-0.201416	0.362778	-0.233650	0.048385	-0.074081	-0.036220	0.999997	-0.001007	0.001814	-0.001168	
14447	    0	5.172230	-5.592896	-3.276932	-0.103760	0.374031	-0.090027	0.051636	-0.055969	-0.032837	0.999997	-0.000519	0.001870	-0.000450	
14448	    0	4.835036	-4.383385	-2.677514	0.213432	0.340271	-0.035286	0.048297	-0.043814	-0.026904	0.999997	0.001067	0.001701	-0.000176	
14449	    0	4.133222	-4.345370	-2.263508	0.406647	0.206948	0.055695	0.041321	-0.043396	-0.022766	0.999997	0.002033	0.001035	0.000278	
14450	    0	3.534117	-3.877153	-2.576564	0.314903	0.031471	0.174141	0.035371	-0.038700	-0.025832	0.999998	0.001575	0.000157	0.000871	
14451	    0	3.508317	-3.785195	-2.764446	0.061226	-0.040436	0.357056	0.035156	-0.037781	-0.027649	0.999998	0.000306	-0.000202	0.001785	
14452	    0	3.861123	-4.169827	-2.794651	-0.044251	0.037575	0.543786	0.038719	-0.041599	-0.027945	0.999996	-0.000221	0.000188	0.002719	
14453	    0	4.241694	-3.842237	-2.115173	-0.047875	0.172425	0.745394	0.042542	-0.038269	-0.021179	0.999992	-0.000239	0.000862	0.003727	
14454	    0	4.883925	-2.714672	-1.330826	-0.087548	0.244332	0.992398	0.048957	-0.026910	-0.013356	0.999987	-0.000438	0.001222	0.004962	
14455	    0	5.760916	-1.328337	-0.922249	-0.191499	0.233652	1.223763	0.057678	-0.012939	-0.009277	0.999980	-0.000957	0.001168	0.006119	
14456	    0	6.569501	-0.374268	-0.607968	-0.354770	0.198557	1.392949	0.065713	-0.003296	-0.006139	0.999973	-0.001774	0.000993	0.006965	
14457	    0	6.935399	0.156880	-0.525594	-0.516325	0.141908	1.499955	0.069336	0.002075	-0.005310	0.999968	-0.002582	0.000710	0.007500	
14458	    0	7.090464	0.291418	-1.009195	-0.555426	0.092317	1.576061	0.070874	0.003445	-0.010134	0.999965	-0.002777	0.000462	0.007880	
14459	    0	7.874087	0.013464	-2.038006	-0.411992	0.011635	1.625080	0.078735	0.000732	-0.020386	0.999965	-0.002060	0.000058	0.008125	
14460	    0	9.757599	-0.640671	-3.490873	-0.056840	-0.095178	1.682874	0.097642	-0.005595	-0.034861	0.999964	-0.000284	-0.000476	0.008414	
14461	    0	12.299653	-1.344595	-4.822684	0.413710	-0.255588	1.751733	0.123169	-0.012268	-0.048096	0.999958	0.002069	-0.001278	0.008759	
14462	    0	15.138317	-1.789022	-6.201147	0.937479	-0.475892	1.818690	0.151683	-0.016222	-0.061729	0.999945	0.004687	-0.002379	0.009093	
14463	    0	18.038017	-1.507054	-7.637811	1.320108	-0.733202	1.871536	0.180786	-0.012878	-0.075806	0.999928	0.006600	-0.003666	0.009357	
14464	    0	20.576746	-0.957286	-8.779653	1.482242	-0.801490	1.968439	0.206194	-0.006898	-0.087029	0.999915	0.007411	-0.004007	0.009842	
14465	    0	21.900372	0.187211	-8.760163	1.505514	-0.768302	2.037871	0.219299	0.004761	-0.086731	0.999912	0.007527	-0.003841	0.010189	
14466	    0	22.165941	1.907716	-7.309029	1.437420	-0.717184	2.110543	0.221698	0.021937	-0.072145	0.999911	0.007187	-0.003586	0.010552	
14467	    0	22.038792	3.851443	-5.559675	1.190409	-0.718708	2.140866	0.220154	0.041199	-0.054565	0.999918	0.005952	-0.003593	0.010704	
14468	    0	21.274679	5.028252	-4.623737	0.729196	-0.846500	2.039002	0.212411	0.052615	-0.045149	0.999932	0.003646	-0.004232	0.010195	
14469	    0	20.098990	4.882981	-3.042910	0.722516	-0.826087	1.715118	0.200684	0.050659	-0.029419	0.999948	0.003613	-0.004130	0.008575	
14470	    0	18.203423	3.486184	-1.195946	0.972954	-0.941673	1.389525	0.181839	0.036180	-0.010929	0.999952	0.004865	-0.004708	0.006948	
14471	    0	16.241441	3.356588	-0.408845	1.229880	-1.168653	1.182577	0.162231	0.034546	-0.002930	0.999946	0.006149	-0.005843	0.005913	
14472	    0	15.389835	3.253503	-0.240691	1.998002	-1.165803	1.104957	0.153725	0.033401	-0.001180	0.999917	0.009990	-0.005829	0.005525	
14473	    0	13.958159	4.537842	-1.899675	2.439969	-1.140445	1.216933	0.139404	0.046448	-0.017639	0.999890	0.012199	-0.005702	0.006084	
14474	    0	12.481171	7.250534	-2.620875	2.348222	-1.200338	1.301431	0.124486	0.073611	-0.024601	0.999891	0.011741	-0.006001	0.006507	
14475	    0	11.397037	9.519347	-1.004792	1.957755	-0.996235	1.278721	0.113403	0.096008	-0.008545	0.999919	0.009789	-0.004981	0.006393	
14476	    0	10.494587	9.767686	0.583087	1.488142	-0.919169	1.224732	0.104315	0.098268	0.007041	0.999943	0.007441	-0.004596	0.006124	
14477	    0	9.426634	8.505168	0.978021	1.022353	-0.989355	1.089492	0.093750	0.085510	0.010681	0.999959	0.005112	-0.004947	0.005447	
14478	    0	8.076230	7.731682	1.288913	0.534635	-1.124393	0.904855	0.080337	0.077645	0.013549	0.999969	0.002673	-0.005622	0.004524	
14479	    0	6.857946	7.679381	1.244717	0.131417	-1.113900	0.704961	0.068237	0.077026	0.012878	0.999977	0.000657	-0.005569	0.003525	
14480	    0	5.982615	7.779434	1.662444	-0.113297	-0.995832	0.571826	0.059520	0.077974	0.016877	0.999983	-0.000566	-0.004979	0.002859	
14481	    0	5.497662	7.730002	2.314558	-0.095177	-0.754550	0.520327	0.054688	0.077454	0.023315	0.999989	-0.000476	-0.003773	0.002602	
14482	    0	4.840875	8.183320	1.884347	-0.042915	-0.484658	0.452233	0.048178	0.081946	0.018943	0.999994	-0.000215	-0.002423	0.002261	
14483	    0	4.017806	7.438626	1.502344	-0.095940	-0.134277	0.346375	0.040039	0.074463	0.015015	0.999998	-0.000480	-0.000671	0.001732	
14484	    0	3.235102	7.763700	0.816305	-0.625612	0.093270	0.239182	0.032262	0.077701	0.007905	0.999994	-0.003128	0.000466	0.001196	
14485	    0	2.044700	8.161349	-0.357255	-1.187904	0.314524	0.135041	0.020386	0.081604	-0.004089	0.999980	-0.005939	0.001573	0.000675	
14486	    0	1.533754	6.704335	-0.206572	-1.636142	0.272754	0.111200	0.015297	0.067032	-0.002635	0.999965	-0.008181	0.001364	0.000556	
14487	    0	1.528420	4.275206	-1.735470	-2.422202	0.164036	0.051118	0.015259	0.042542	-0.017883	0.999926	-0.012111	0.000820	0.000256	
14488	    0	1.362598	1.953401	-0.647121	-2.499836	-0.053598	-0.041772	0.013632	0.019448	-0.006711	0.999922	-0.012499	-0.000268	-0.000209	
14489	    0	1.575260	-2.050270	-0.542942	-1.892884	-0.596438	-0.206760	0.015747	-0.020569	-0.005188	0.999949	-0.009464	-0.002982	-0.001034	
14490	    0	2.284594	-5.935268	-3.620721	-1.428811	-0.741776	-0.388150	0.022863	-0.059653	-0.035697	0.999966	-0.007144	-0.003709	-0.001941	
14491	    0	3.913167	-10.495253	-6.634834	-1.053435	-0.302889	-0.553135	0.038940	-0.105408	-0.065735	0.999981	-0.005267	-0.001514	-0.002766	
14492	    0	6.458124	-16.758609	-6.316556	-0.311661	0.306893	-0.606920	0.063975	-0.167879	-0.063003	0.999992	-0.001558	0.001534	-0.003035	
14493	    0	7.579887	-16.993563	-3.378247	0.766185	0.459292	-0.473787	0.075317	-0.169983	-0.034607	0.999987	0.003831	0.002296	-0.002369	
14494	    0	7.835740	-13.534476	-4.574918	1.806856	0.103570	-0.212291	0.078190	-0.135007	-0.047010	0.999958	0.009034	0.000518	-0.001061	
14495	    0	7.715849	-11.537701	-6.455126	1.810671	0.212100	0.102998	0.077148	-0.114746	-0.065674	0.999958	0.009053	0.001060	0.000515	
14496	    0	6.712732	-9.874176	-6.588923	1.433007	0.668724	0.314334	0.067060	-0.098160	-0.066818	0.999967	0.007165	0.003344	0.001572	
14497	    0	5.449057	-6.848071	-4.319246	1.133930	0.895699	0.434117	0.054443	-0.068115	-0.043823	0.999971	0.005670	0.004478	0.002171	
14498	    0	4.583351	-3.879291	-1.525076	1.048288	0.785834	0.532727	0.045876	-0.038589	-0.015634	0.999974	0.005241	0.003929	0.002664	
14499	    0	3.842696	-0.323445	0.869568	0.953107	0.387575	0.529483	0.038452	-0.003174	0.008606	0.999983	0.004766	0.001938	0.002647	
14500	    0	4.067244	3.005641	1.859757	0.887493	0.003815	0.396730	0.040613	0.030054	0.018730	0.999988	0.004437	0.000019	0.001984	
14501	    0	5.548327	3.214952	1.164822	0.852970	-0.420191	0.239564	0.055420	0.032166	0.011902	0.999988	0.004265	-0.002101	0.001198	
14502	    0	9.251473	3.764071	-1.703323	1.186378	-0.358965	-0.033951	0.092551	0.037724	-0.016644	0.999980	0.005932	-0.001795	-0.000170	
14503	    0	15.312709	-1.130727	-7.776034	0.778391	0.022125	0.342561	0.153137	-0.010742	-0.077820	0.999990	0.003892	0.000111	0.001713	
14504	    0	22.105878	-10.378600	-12.138658	1.058965	0.135613	0.265695	0.221113	-0.102847	-0.122083	0.999985	0.005295	0.000678	0.001328	
14505	    0	21.871110	-3.141170	0.561088	2.074471	0.313002	0.196842	0.218750	-0.031250	0.004944	0.999944	0.010372	0.001565	0.000984	
14506	    0	14.165184	17.539185	3.097053	2.474657	0.004959	-0.070192	0.141714	0.174941	0.033134	0.999923	0.012373	0.000025	-0.000351	
14507	    0	8.357260	26.674619	-2.620328	1.441207	-0.119592	-0.480657	0.084229	0.266724	-0.024231	0.999970	0.007206	-0.000598	-0.002403	
14508	    0	5.185514	29.570454	-3.694519	-1.077856	-0.131990	-1.323716	0.053835	0.295148	-0.038502	0.999963	-0.005389	-0.000660	-0.006618	
14509	    0	11.330903	25.594652	-3.415562	-2.568935	0.081066	-2.097417	0.115967	0.254272	-0.037476	0.999862	-0.012844	0.000405	-0.010487	
14510	    0	19.305068	18.508433	-0.446578	-2.023221	0.249684	-2.687009	0.195506	0.182409	-0.006563	0.999857	-0.010116	0.001248	-0.013434	
14511	    0	25.039297	11.905961	-1.186783	-0.360121	0.296986	-3.023647	0.252136	0.115234	-0.012451	0.999883	-0.001801	0.001485	-0.015118	
14512	    0	25.892135	9.871778	-3.018140	0.234423	0.201425	-3.169575	0.260412	0.094634	-0.030331	0.999873	0.001172	0.001007	-0.015847	
14513	    0	23.563677	10.304045	-4.603279	-0.318923	0.215350	-3.300628	0.237244	0.099060	-0.046448	0.999862	-0.001595	0.001077	-0.016502	
14514	    0	21.232660	8.246318	-3.870658	-1.448516	0.335329	-3.218056	0.213548	0.078749	-0.039643	0.999843	-0.007242	0.001677	-0.016089	
14515	    0	20.220617	4.449546	-1.042872	-2.462734	0.396754	-2.999305	0.202820	0.041321	-0.011353	0.999809	-0.012313	0.001984	-0.014996	
14516	    0	19.705854	2.228263	0.588412	-2.732834	0.447874	-2.786053	0.197356	0.019608	0.005162	0.999806	-0.013663	0.002239	-0.013929	
14517	    0	18.983653	-0.207928	1.080401	-2.515551	0.563271	-2.578115	0.189819	-0.004395	0.010315	0.999833	-0.012577	0.002816	-0.012890	
14518	    0	18.065453	-3.730693	0.336917	-2.399565	0.638994	-2.427414	0.180195	-0.039456	0.003258	0.999848	-0.011997	0.003195	-0.012136	
14519	    0	17.047228	-5.067995	-0.660614	-2.335275	0.769079	-2.253065	0.169861	-0.052673	-0.006653	0.999861	-0.011676	0.003845	-0.011265	
14520	    0	15.626973	-6.789334	-0.316603	-2.295209	0.852239	-2.026834	0.155558	-0.069508	-0.003038	0.999873	-0.011476	0.004261	-0.010134	
14521	    0	14.351969	-7.919219	-0.724691	-2.072978	0.842505	-1.818911	0.142761	-0.080566	-0.007019	0.999896	-0.010365	0.004212	-0.009094	
14522	    0	12.584192	-8.834000	-2.403224	-2.060764	0.788523	-1.635221	0.125019	-0.089609	-0.023607	0.999906	-0.010303	0.003942	-0.008176	
14523	    0	10.752078	-6.806462	-3.609731	-2.043020	0.809502	-1.461071	0.106873	-0.069214	-0.035828	0.999912	-0.010215	0.004047	-0.007305	
14524	    0	8.869637	-6.747933	-3.377686	-1.611361	0.853174	-1.231791	0.088134	-0.068295	-0.033606	0.999939	-0.008057	0.004266	-0.006159	
14525	    0	7.008841	-8.405731	-3.331308	-1.046002	0.776109	-1.043713	0.069519	-0.084595	-0.033142	0.999965	-0.005230	0.003881	-0.005219	
14526	    0	5.564775	-8.614270	-4.159762	-0.608067	0.611119	-0.922400	0.055122	-0.086524	-0.041504	0.999980	-0.003040	0.003056	-0.004612	
14527	    0	4.770295	-8.594620	-4.201489	-0.173951	0.477793	-0.839237	0.047241	-0.086182	-0.042053	0.999988	-0.000870	0.002389	-0.004196	
14528	    0	4.304670	-7.946216	-3.100819	0.095368	0.373269	-0.754931	0.042688	-0.079609	-0.031126	0.999990	0.000477	0.001866	-0.003775	
14529	    0	4.327283	-6.934014	-2.499383	0.067330	0.316620	-0.585939	0.043030	-0.069458	-0.025085	0.999994	0.000337	0.001583	-0.002930	
14530	    0	4.865870	-5.809449	-2.247435	-0.143624	0.332833	-0.387192	0.048509	-0.058205	-0.022513	0.999996	-0.000718	0.001664	-0.001936	
14531	    0	5.446750	-3.402929	-2.251261	-0.253105	0.417328	-0.223542	0.054382	-0.034119	-0.022583	0.999996	-0.001266	0.002087	-0.001118	
14532	    0	5.360786	-1.801543	-2.260015	-0.117874	0.456429	-0.165367	0.053541	-0.018073	-0.022712	0.999996	-0.000589	0.002282	-0.000827	
14533	    0	5.308893	-1.875798	-2.084644	-0.032616	0.345612	-0.141144	0.053040	-0.018799	-0.020935	0.999998	-0.000163	0.001728	-0.000706	
14534	    0	4.834905	-2.412801	-1.982711	-0.032806	0.157547	-0.104713	0.048321	-0.024157	-0.019861	0.999999	-0.000164	0.000788	-0.000524	
14535	    0	4.126152	-2.806605	-2.125019	-0.065613	-0.003624	-0.015259	0.041260	-0.028076	-0.021240	0.999999	-0.000328	-0.000018	-0.000076	
14536	    0	3.683783	-3.483838	-2.508228	-0.125694	-0.060654	0.135613	0.036869	-0.034829	-0.025049	0.999999	-0.000628	-0.000303	0.000678	
14537	    0	3.712140	-3.928007	-2.711686	-0.121117	0.035095	0.273895	0.037170	-0.039246	-0.027100	0.999998	-0.000606	0.000175	0.001369	
14538	    0	3.871411	-4.036262	-2.639728	-0.120545	0.152207	0.418091	0.038778	-0.040298	-0.026402	0.999997	-0.000603	0.000761	0.002090	
14539	    0	4.367612	-3.807114	-2.446238	-0.174523	0.209809	0.588227	0.043762	-0.037964	-0.024475	0.999994	-0.000873	0.001049	0.002941	
14540	    0	5.164863	-3.085020	-2.114803	-0.153733	0.234032	0.785067	0.051744	-0.030663	-0.021185	0.999990	-0.000769	0.001170	0.003925	
14541	    0	5.985036	-2.177037	-1.770431	-0.076104	0.217439	0.977330	0.059937	-0.021484	-0.017761	0.999987	-0.000381	0.001087	0.004887	
14542	    0	6.508274	-1.399758	-1.427199	-0.095749	0.209810	1.158912	0.065147	-0.013627	-0.014334	0.999982	-0.000479	0.001049	0.005795	
14543	    0	6.923028	-0.909332	-1.558242	-0.204469	0.148965	1.277170	0.069275	-0.008667	-0.015625	0.999978	-0.001022	0.000745	0.006386	
14544	    0	7.327655	-0.716973	-1.916075	-0.264361	0.109292	1.362430	0.073313	-0.006696	-0.019192	0.999975	-0.001322	0.000546	0.006812	
14545	    0	8.291160	-0.601484	-2.971197	-0.130273	0.038147	1.451887	0.082947	-0.005432	-0.029724	0.999973	-0.000651	0.000191	0.007259	
14546	    0	10.364694	-0.817655	-4.173224	0.281528	-0.166704	1.552598	0.103741	-0.007313	-0.041656	0.999969	0.001408	-0.000834	0.007763	
14547	    0	13.786332	-1.243041	-5.410593	0.773060	-0.371557	1.702144	0.138062	-0.011047	-0.053894	0.999954	0.003865	-0.001858	0.008511	
14548	    0	16.953183	-1.391526	-6.476011	1.188493	-0.517665	1.809539	0.169813	-0.011996	-0.064396	0.999938	0.005942	-0.002588	0.009048	
14549	    0	19.429003	-0.998263	-7.126193	1.319344	-0.594344	1.876112	0.194580	-0.007690	-0.070740	0.999929	0.006597	-0.002972	0.009380	
14550	    0	20.751399	-0.043527	-6.673572	1.133753	-0.593962	1.935621	0.207700	0.001950	-0.066113	0.999932	0.005669	-0.002970	0.009678	
14551	    0	20.981398	1.515025	-5.783022	0.847834	-0.659193	1.966136	0.209839	0.017456	-0.057068	0.999937	0.004239	-0.003296	0.009830	
14552	    0	21.040470	3.093563	-4.574283	0.594151	-0.711837	1.982538	0.210244	0.033154	-0.044898	0.999940	0.002971	-0.003559	0.009912	
14553	    0	21.096706	4.034876	-3.221939	0.453385	-0.772109	1.896702	0.210693	0.042419	-0.031311	0.999945	0.002267	-0.003860	0.009483	
14554	    0	20.725242	3.737933	-2.291962	0.370604	-0.950447	1.655605	0.207039	0.039135	-0.021864	0.999952	0.001853	-0.004752	0.008278	
14555	    0	19.337399	3.091699	-1.620335	0.639354	-1.187725	1.430535	0.193237	0.032349	-0.014954	0.999951	0.003197	-0.005939	0.007153	
14556	    0	17.992836	2.355143	-1.197649	1.316291	-1.279478	1.412423	0.179827	0.024895	-0.010665	0.999932	0.006581	-0.006397	0.007062	
14557	    0	17.701512	1.649776	-1.970836	2.031202	-1.240580	1.487018	0.177002	0.018005	-0.018433	0.999901	0.010156	-0.006203	0.007435	
14558	    0	16.341067	3.541534	-2.803597	2.385617	-1.212551	1.592319	0.163284	0.037039	-0.026610	0.999878	0.011928	-0.006063	0.007961	
14559	    0	14.763188	5.745708	-3.097311	2.439983	-1.222853	1.626655	0.147339	0.059021	-0.029358	0.999873	0.012199	-0.006114	0.008133	
14560	    0	13.466647	7.466408	-2.482077	2.177318	-1.131099	1.657928	0.134174	0.076036	-0.023238	0.999890	0.010886	-0.005655	0.008289	
14561	    0	12.408926	8.121760	-1.573934	1.788384	-1.071771	1.693777	0.123474	0.082397	-0.014343	0.999909	0.008942	-0.005359	0.008469	
14562	    0	11.597171	7.452509	-1.056196	1.400029	-1.141767	1.650088	0.115407	0.075547	-0.009376	0.999925	0.007000	-0.005709	0.008250	
14563	    0	10.568925	6.655523	-0.717545	1.058982	-1.244189	1.505310	0.105225	0.067383	-0.006165	0.999938	0.005295	-0.006221	0.007526	
14564	    0	9.472778	6.360261	-0.413905	0.979249	-1.196119	1.303504	0.094332	0.064236	-0.003261	0.999949	0.004896	-0.005980	0.006517	
14565	    0	8.230421	6.824742	-0.100347	0.987258	-1.025977	1.159684	0.081909	0.068726	-0.000244	0.999957	0.004936	-0.005130	0.005798	
14566	    0	7.154524	7.663934	0.762957	0.984966	-0.754555	1.031696	0.071118	0.076967	0.008277	0.999967	0.004925	-0.003773	0.005158	
14567	    0	5.833117	8.497814	0.814712	0.904090	-0.465206	0.914009	0.057922	0.085205	0.008667	0.999976	0.004520	-0.002326	0.004570	
14568	    0	4.893919	8.173094	1.802031	0.938612	-0.159837	0.727849	0.048627	0.081822	0.018443	0.999982	0.004693	-0.000799	0.003639	
14569	    0	3.687447	8.120338	1.755153	0.200844	-0.032806	0.616456	0.036621	0.081299	0.017639	0.999994	0.001004	-0.000164	0.003082	
14570	    0	2.797741	8.182535	2.492966	-0.129891	0.184059	0.499535	0.027796	0.081911	0.024851	0.999996	-0.000649	0.000920	0.002498	
14571	    0	2.011171	8.608905	1.462334	-0.739100	0.227357	0.393678	0.019958	0.086182	0.014282	0.999990	-0.003695	0.001137	0.001968	
14572	    0	1.567679	8.957887	0.065315	-1.371967	0.164033	0.282099	0.015551	0.089602	0.000026	0.999974	-0.006860	0.000820	0.001410	
14573	    0	1.392516	6.180098	0.156450	-2.123873	-0.108339	0.225071	0.013855	0.061829	0.000916	0.999943	-0.010619	-0.000542	0.001125	
14574	    0	1.328881	3.083820	0.433968	-2.403320	-0.468457	0.143436	0.013257	0.030897	0.004000	0.999925	-0.012016	-0.002342	0.000717	
14575	    0	1.442844	-0.339572	-0.815806	-2.241379	-0.868246	0.102236	0.014465	-0.003479	-0.008057	0.999928	-0.011207	-0.004341	0.000511	
14576	    0	2.349823	-4.345220	-3.051607	-1.882396	-0.862900	-0.018311	0.023624	-0.043738	-0.030004	0.999946	-0.009412	-0.004314	-0.000092	
14577	    0	3.424292	-7.975256	-5.082010	-1.677533	-0.226596	-0.148012	0.034241	-0.080200	-0.050110	0.999964	-0.008388	-0.001133	-0.000740	
14578	    0	5.100921	-13.176894	-5.518172	-1.286325	0.281527	-0.114632	0.050857	-0.132150	-0.054404	0.999978	-0.006432	0.001408	-0.000573	
14579	    0	6.702959	-16.437954	-6.629930	-0.308228	0.347328	-0.024414	0.066895	-0.164490	-0.066162	0.999997	-0.001541	0.001737	-0.000122	
14580	    0	7.309278	-14.928787	-7.752967	1.052480	0.216867	0.072289	0.073062	-0.148850	-0.078393	0.999985	0.005262	0.001084	0.000361	
14581	    0	7.881313	-12.751252	-6.824325	1.591509	0.206187	0.181582	0.078857	-0.126892	-0.069336	0.999967	0.007957	0.001031	0.000908	
14582	    0	7.327625	-10.143173	-4.620145	1.474014	0.522238	0.249865	0.073280	-0.100995	-0.047138	0.999969	0.007370	0.002611	0.001249	
14583	    0	6.092848	-6.101858	-2.978302	1.322187	0.690658	0.292209	0.060913	-0.060730	-0.030396	0.999970	0.006611	0.003453	0.001461	
14584	    0	4.821229	-2.652015	-1.717882	1.415077	0.601202	0.329593	0.048203	-0.026318	-0.017510	0.999969	0.007075	0.003006	0.001648	
14585	    0	3.969460	0.072694	-0.882566	1.586933	0.463300	0.287632	0.039673	0.000854	-0.008911	0.999965	0.007935	0.002316	0.001438	
14586	    0	3.494553	3.569618	0.450296	1.644536	0.428014	0.141527	0.034930	0.035683	0.004722	0.999963	0.008223	0.002140	0.000708	
14587	    0	3.699452	7.564657	1.661811	1.594752	0.376133	-0.057984	0.037048	0.075500	0.017151	0.999966	0.007974	0.001881	-0.000290	
14588	    0	4.598254	9.539766	0.798594	1.602763	0.102616	-0.262645	0.046112	0.095269	0.008726	0.999967	0.008014	0.000513	-0.001313	
14589	    0	7.859138	7.575701	0.568808	1.491562	0.066567	-0.537115	0.078796	0.075500	0.006226	0.999969	0.007458	0.000333	-0.002686	
14590	    0	14.346306	1.037428	-2.075298	0.684549	0.210000	-0.222016	0.143453	0.010286	-0.020868	0.999992	0.003423	0.001050	-0.001110	
14591	    0	20.841873	-6.505540	-9.080255	0.108337	-0.075340	-0.054932	0.208435	-0.065063	-0.090759	0.999999	0.000542	-0.000377	-0.000275	
14592	    0	26.738190	-14.279890	-12.777409	1.049238	-0.266649	0.352861	0.267803	-0.141655	-0.128162	0.999984	0.005246	-0.001333	0.001764	
14593	    0	17.880354	10.179735	2.446565	2.282001	-0.010491	0.059511	0.178772	0.101562	0.025635	0.999934	0.011410	-0.000052	0.000298	
14594	    0	9.877314	22.147164	-3.307420	1.656361	-0.199130	-0.071145	0.098884	0.221700	-0.031140	0.999965	0.008282	-0.000996	-0.000356	
14595	    0	7.280842	21.448828	-2.210524	-1.299299	-0.161554	-0.786598	0.073669	0.214050	-0.023438	0.999970	-0.006496	-0.000808	-0.003933	
14596	    0	9.973731	20.519061	-1.520402	-2.896061	0.091938	-1.627806	0.101394	0.204121	-0.018211	0.999862	-0.014480	0.000460	-0.008139	
14597	    0	16.902515	17.335413	-0.988115	-2.712205	0.280014	-2.340061	0.171021	0.171204	-0.012451	0.999838	-0.013560	0.001400	-0.011700	
14598	    0	21.843314	13.382130	-0.914346	-1.054038	0.374235	-2.680491	0.220181	0.130826	-0.010249	0.999894	-0.005270	0.001871	-0.013402	
14599	    0	23.920080	10.263282	-0.317268	0.281533	0.322161	-2.674948	0.240540	0.099426	-0.003418	0.999907	0.001408	0.001611	-0.013374	
14600	    0	22.305589	9.133763	-2.012033	0.473992	0.210578	-2.803325	0.224286	0.088247	-0.020144	0.999898	0.002370	0.001053	-0.014016	
14601	    0	19.628477	9.531759	-4.278317	-0.634026	0.259600	-2.875624	0.197571	0.092346	-0.043335	0.999890	-0.003170	0.001298	-0.014378	
14602	    0	18.569282	7.265395	-3.098088	-2.218938	0.305001	-2.808340	0.186637	0.069686	-0.032049	0.999838	-0.011094	0.001525	-0.014041	
14603	    0	18.253772	4.900551	-0.754907	-2.906231	0.404576	-2.731506	0.183167	0.046387	-0.008606	0.999799	-0.014530	0.002023	-0.013657	
14604	    0	18.135623	2.039013	0.673630	-2.844798	0.433949	-2.606174	0.181616	0.018114	0.006074	0.999811	-0.014223	0.002170	-0.013030	
14605	    0	17.562040	-1.137868	0.631101	-2.443058	0.483919	-2.489600	0.175476	-0.013489	0.006042	0.999845	-0.012215	0.002419	-0.012447	
14606	    0	16.724373	-4.594039	-0.302463	-2.243910	0.587491	-2.409284	0.166665	-0.047984	-0.002984	0.999860	-0.011219	0.002937	-0.012046	
14607	    0	15.772371	-6.343060	-0.423226	-2.269655	0.673705	-2.250771	0.156982	-0.065247	-0.004028	0.999866	-0.011348	0.003368	-0.011253	
14608	    0	14.603268	-7.599348	0.858695	-2.186481	0.745803	-2.071845	0.145268	-0.077405	0.008885	0.999879	-0.010932	0.003729	-0.010359	
14609	    0	12.978549	-7.394698	0.538255	-1.966925	0.776890	-1.920384	0.129089	-0.075134	0.005615	0.999898	-0.009834	0.003884	-0.009602	
14610	    0	10.937095	-7.424214	-1.771306	-1.948988	0.752663	-1.726394	0.108658	-0.075353	-0.017392	0.999907	-0.009745	0.003763	-0.008632	
14611	    0	9.186826	-6.243186	-3.517451	-1.994381	0.802826	-1.521345	0.091248	-0.063477	-0.034912	0.999913	-0.009972	0.004014	-0.007607	
14612	    0	7.491197	-6.225766	-4.257343	-1.635587	0.845355	-1.344328	0.074310	-0.063106	-0.042375	0.999934	-0.008178	0.004227	-0.006721	
14613	    0	6.020183	-7.267004	-4.547613	-1.171129	0.802815	-1.229876	0.059570	-0.073303	-0.045288	0.999955	-0.005856	0.004014	-0.006149	
14614	    0	5.269496	-8.495801	-4.871594	-0.879106	0.645263	-1.161206	0.052043	-0.085475	-0.048510	0.999968	-0.004395	0.003226	-0.005806	
14615	    0	5.149786	-8.913621	-4.693330	-0.531773	0.463298	-1.087196	0.050903	-0.089539	-0.046814	0.999978	-0.002659	0.002316	-0.005436	
14616	    0	5.124202	-8.736964	-4.737979	-0.106240	0.327684	-0.977521	0.050736	-0.087644	-0.047417	0.999986	-0.000531	0.001638	-0.004888	
14617	    0	4.853087	-8.410977	-4.952227	0.354005	0.300027	-0.856784	0.048096	-0.084229	-0.049744	0.999988	0.001770	0.001500	-0.004284	
14618	    0	4.643422	-8.655981	-4.699068	0.633433	0.356103	-0.691035	0.046051	-0.086570	-0.047347	0.999987	0.003167	0.001781	-0.003455	
14619	    0	4.580625	-8.113770	-4.122033	0.640108	0.372506	-0.485231	0.045532	-0.081116	-0.041565	0.999990	0.003201	0.001863	-0.002426	
14620	    0	4.766958	-6.496965	-3.502169	0.618364	0.314904	-0.334931	0.047505	-0.064940	-0.035297	0.999992	0.003092	0.001575	-0.001675	
14621	    0	4.861270	-5.014243	-2.860016	0.617219	0.221444	-0.231171	0.048523	-0.050110	-0.028809	0.999993	0.003086	0.001107	-0.001156	
14622	    0	4.516568	-4.332445	-2.673740	0.500680	0.042915	-0.082016	0.045142	-0.043276	-0.026855	0.999996	0.002503	0.000215	-0.000410	
14623	    0	4.000079	-3.760546	-3.011641	0.288582	-0.096130	0.126648	0.040039	-0.037537	-0.030151	0.999998	0.001443	-0.000481	0.000633	
14624	    0	4.243675	-3.866967	-2.790718	0.006294	-0.112534	0.382233	0.042526	-0.038588	-0.027884	0.999997	0.000031	-0.000563	0.001911	
14625	    0	4.809954	-3.731562	-2.070501	-0.097466	0.016785	0.644685	0.048218	-0.037170	-0.020691	0.999994	-0.000487	0.000084	0.003223	
14626	    0	5.492048	-2.976854	-1.177282	-0.089455	0.146294	0.926212	0.055049	-0.029519	-0.011800	0.999989	-0.000447	0.000731	0.004631	
14627	    0	6.387091	-1.733690	-0.549947	-0.215722	0.228883	1.173408	0.063965	-0.016968	-0.005554	0.999981	-0.001079	0.001144	0.005867	
14628	    0	7.179721	-0.962630	-0.072669	-0.469212	0.182916	1.350796	0.071859	-0.009143	-0.000771	0.999973	-0.002346	0.000915	0.006754	
14629	    0	7.748056	-0.479491	0.301454	-0.680550	0.100137	1.479356	0.077515	-0.004211	0.002991	0.999967	-0.003403	0.000501	0.007397	
14630	    0	8.318164	-0.152358	-0.431416	-0.640877	0.009155	1.540965	0.083190	-0.000896	-0.004314	0.999965	-0.003204	0.000046	0.007705	
14631	    0	9.787252	-0.295963	-2.067150	-0.356297	-0.076104	1.632709	0.097900	-0.002197	-0.020630	0.999965	-0.001781	-0.000381	0.008163	
14632	    0	12.235472	-0.966388	-3.509066	0.120927	-0.202372	1.718543	0.122467	-0.008591	-0.034972	0.999962	0.000605	-0.001012	0.008593	
14633	    0	15.214051	-1.583151	-4.832310	0.607310	-0.277524	1.842528	0.152344	-0.014282	-0.048157	0.999951	0.003036	-0.001388	0.009212	
14634	    0	17.686719	-1.977071	-5.838448	0.949879	-0.380714	1.934853	0.177156	-0.017781	-0.058135	0.999940	0.004749	-0.001904	0.009674	
14635	    0	19.576434	-1.447869	-6.417032	1.075006	-0.467502	2.030228	0.196045	-0.012146	-0.063782	0.999930	0.005375	-0.002337	0.010151	
14636	    0	20.494241	-0.192177	-6.144877	0.955415	-0.507749	2.189691	0.205100	0.000615	-0.060929	0.999925	0.004777	-0.002539	0.010948	
14637	    0	20.968225	1.492328	-5.489074	0.766774	-0.598732	2.275143	0.209656	0.017517	-0.054199	0.999923	0.003834	-0.002994	0.011375	
14638	    0	21.400285	3.308540	-4.487255	0.481618	-0.687999	2.349914	0.213746	0.035705	-0.044053	0.999922	0.002408	-0.003440	0.011749	
14639	    0	21.215091	4.489363	-3.323411	0.272567	-0.775929	2.346862	0.211731	0.047424	-0.032349	0.999922	0.001363	-0.003880	0.011734	
14640	    0	20.441216	3.916960	-2.738304	0.078585	-0.927948	2.248057	0.204079	0.041475	-0.026420	0.999926	0.000393	-0.004640	0.011240	
14641	    0	19.915173	2.425726	-1.643110	0.231938	-0.964184	1.979105	0.198975	0.026245	-0.015442	0.999938	0.001160	-0.004821	0.009895	
14642	    0	18.767432	1.663435	-0.120631	1.031132	-0.904482	1.606017	0.187535	0.018144	-0.000267	0.999944	0.005156	-0.004522	0.008030	
14643	    0	16.877249	3.010874	-0.488054	1.853991	-0.960375	1.380193	0.168579	0.031311	-0.003784	0.999921	0.009270	-0.004802	0.006901	
14644	    0	15.688605	4.489173	-1.232195	2.603635	-0.946273	1.379640	0.156625	0.046122	-0.010985	0.999880	0.013018	-0.004731	0.006898	
14645	    0	14.635743	5.840871	-3.045760	2.574453	-0.959817	1.487792	0.146057	0.059875	-0.028992	0.999878	0.012872	-0.004799	0.007439	
14646	    0	13.089267	7.646594	-3.526696	2.001827	-1.051174	1.616339	0.130447	0.077865	-0.033806	0.999903	0.010009	-0.005256	0.008081	
14647	    0	11.793802	8.486841	-2.527685	1.455724	-1.030565	1.619760	0.117371	0.085999	-0.024048	0.999927	0.007278	-0.005153	0.008099	
14648	    0	10.499870	8.212681	-1.215332	1.087591	-0.957316	1.570159	0.104404	0.083011	-0.011203	0.999943	0.005438	-0.004786	0.007851	
14649	    0	9.331685	7.469192	-0.942171	0.740825	-1.024452	1.405355	0.092834	0.075378	-0.008667	0.999955	0.003704	-0.005122	0.007027	
14650	    0	8.024556	7.484653	-0.515178	0.471502	-1.064313	1.190199	0.079823	0.075334	-0.004549	0.999965	0.002357	-0.005322	0.005951	
14651	    0	6.828048	8.085946	0.382503	0.485234	-0.916870	0.962838	0.067871	0.081177	0.004333	0.999974	0.002426	-0.004584	0.004814	
14652	    0	5.623872	8.403044	0.766574	0.569538	-0.747876	0.771337	0.055884	0.084224	0.008115	0.999981	0.002848	-0.003739	0.003857	
14653	    0	4.564293	8.495261	0.604871	0.539591	-0.574496	0.648501	0.045349	0.085083	0.006409	0.999987	0.002698	-0.002872	0.003242	
14654	    0	3.910433	9.621309	1.321475	0.665285	-0.345994	0.476457	0.038852	0.096261	0.013602	0.999990	0.003326	-0.001730	0.002382	
14655	    0	2.928168	9.675268	0.155660	0.122833	-0.218773	0.343323	0.029114	0.096802	0.001648	0.999997	0.000614	-0.001094	0.001717	
14656	    0	2.453195	10.317748	-0.637668	-0.545312	-0.065613	0.166130	0.024448	0.103180	-0.006650	0.999995	-0.002727	-0.000328	0.000831	
14657	    0	1.268122	10.018954	-1.313563	-1.433385	0.027466	0.090028	0.012634	0.100098	-0.013855	0.999973	-0.007167	0.000137	0.000450	
14658	    0	1.600170	7.288746	0.230540	-1.767372	0.022507	0.018883	0.015995	0.072906	0.001659	0.999961	-0.008837	0.000113	0.000094	
14659	    0	1.732157	5.194268	-1.015362	-2.297071	-0.081636	-0.031281	0.017334	0.051819	-0.010742	0.999933	-0.011485	-0.000408	-0.000156	
14660	    0	2.192698	2.181546	2.017311	-2.146572	-0.226025	-0.144580	0.021920	0.022015	0.019962	0.999941	-0.010733	-0.001130	-0.000723	
14661	    0	3.249497	-2.188215	2.447111	-1.605816	-0.451666	-0.272373	0.032410	-0.021729	0.024719	0.999964	-0.008029	-0.002258	-0.001362	
14662	    0	3.002740	-6.081898	-1.265287	-1.317227	-0.584417	-0.340656	0.029960	-0.060951	-0.012164	0.999972	-0.006586	-0.002922	-0.001703	
14663	    0	4.598135	-12.194961	-6.655291	-0.886348	-0.141144	-0.312043	0.045837	-0.122314	-0.065979	0.999989	-0.004432	-0.000706	-0.001560	
14664	    0	6.466367	-18.196505	-8.556986	-0.506975	0.497247	-0.308038	0.064171	-0.182281	-0.085268	0.999992	-0.002535	0.002486	-0.001540	
14665	    0	7.426188	-19.221401	-5.943373	0.559427	0.566103	-0.249482	0.073853	-0.192139	-0.060181	0.999990	0.002797	0.002831	-0.001247	
14666	    0	7.932606	-16.851590	-5.357928	1.348315	-0.022698	0.016022	0.079346	-0.168143	-0.054705	0.999977	0.006742	-0.000113	0.000080	
14667	    0	7.984749	-14.630587	-7.282996	1.082808	-0.181581	0.392153	0.080200	-0.145752	-0.073547	0.999983	0.005414	-0.000908	0.001961	
14668	    0	6.576527	-10.761007	-7.892669	0.838665	0.294496	0.589564	0.065965	-0.107083	-0.079473	0.999986	0.004193	0.001472	0.002948	
14669	    0	5.112411	-6.538673	-5.195897	1.087961	0.692946	0.628668	0.051147	-0.064941	-0.052490	0.999974	0.005440	0.003465	0.003143	
14670	    0	3.944612	-3.143211	-1.660274	1.407831	0.734147	0.582893	0.039475	-0.031199	-0.016968	0.999964	0.007039	0.003671	0.002914	
14671	    0	2.941993	1.118729	1.108781	1.629851	0.479132	0.493628	0.029419	0.011169	0.011108	0.999960	0.008149	0.002396	0.002468	
14672	    0	2.889098	5.823533	2.604585	1.816585	0.247387	0.277714	0.028843	0.058036	0.026538	0.999956	0.009083	0.001237	0.001389	
14673	    0	3.440692	10.538200	2.157190	2.309469	0.119212	-0.122836	0.034485	0.105103	0.022766	0.999932	0.011547	0.000596	-0.000614	
14674	    0	4.552597	15.115444	1.638745	2.655494	0.368511	-0.578135	0.045995	0.150787	0.018307	0.999906	0.013277	0.001842	-0.002891	
14675	    0	7.756574	11.392527	0.213031	2.038046	0.767534	-0.643172	0.077942	0.113647	0.002991	0.999935	0.010190	0.003838	-0.003216	
14676	    0	13.487085	2.700098	1.134150	0.045395	0.323297	-0.857738	0.135003	0.026420	0.011129	0.999989	0.000227	0.001616	-0.004289	
14677	    0	22.421546	-11.042362	-14.193751	0.368691	-0.643923	-0.222779	0.224548	-0.110413	-0.141418	0.999992	0.001843	-0.003220	-0.001114	
14678	    0	22.660400	3.515852	-13.411457	2.281242	-0.453959	-0.359925	0.226972	0.036273	-0.133190	0.999930	0.011406	-0.002270	-0.001800	
14679	    0	16.574736	19.946225	-6.607510	2.893935	-0.382056	-0.451677	0.166321	0.200012	-0.062866	0.999890	0.014469	-0.001910	-0.002258	
14680	    0	12.897169	12.766444	-1.709544	0.081063	-0.459673	-0.859645	0.129558	0.127115	-0.016747	0.999988	0.000405	-0.002298	-0.004298	
14681	    0	11.653675	16.494830	0.080183	-1.941542	-0.103763	-1.609082	0.117859	0.164001	-0.000732	0.999920	-0.009707	-0.000519	-0.008045	
14682	    0	13.553054	19.798694	2.458916	-3.594098	0.077063	-2.290136	0.137797	0.196816	0.020992	0.999772	-0.017969	0.000385	-0.011450	
14683	    0	18.445030	18.207970	-0.237563	-2.293525	0.341244	-2.848976	0.187012	0.179382	-0.004761	0.999831	-0.011467	0.001706	-0.014244	
14684	    0	24.137971	12.952046	0.153986	-0.120740	0.616477	-2.883444	0.243217	0.126023	0.000715	0.999890	-0.000604	0.003082	-0.014417	
14685	    0	24.690612	9.091301	1.611054	0.736262	0.359548	-2.786353	0.248169	0.087402	0.015991	0.999894	0.003681	0.001798	-0.013931	
14686	    0	22.614114	10.166459	-3.498435	0.579475	0.245676	-2.961653	0.227571	0.098403	-0.034975	0.999885	0.002897	0.001228	-0.014808	
14687	    0	20.333949	7.967904	-4.798132	-1.357899	0.194558	-2.875640	0.204407	0.076416	-0.048706	0.999872	-0.006789	0.000973	-0.014378	
14688	    0	19.675617	4.812689	-3.189375	-2.687813	0.290698	-2.767545	0.197346	0.044962	-0.032799	0.999812	-0.013438	0.001453	-0.013837	
14689	    0	18.702398	3.153444	-1.230633	-3.220597	0.424415	-2.559081	0.187378	0.028931	-0.013184	0.999785	-0.016102	0.002122	-0.012794	
14690	    0	17.865649	-2.693732	-0.508435	-3.269990	0.379779	-2.338187	0.178315	-0.029105	-0.004959	0.999796	-0.016349	0.001899	-0.011690	
14691	    0	16.796754	-5.402692	-0.538139	-2.814443	0.479152	-2.159234	0.167358	-0.055908	-0.005005	0.999840	-0.014071	0.002396	-0.010796	
14692	    0	15.713365	-6.156555	-0.600003	-2.568549	0.589969	-1.918115	0.156516	-0.063143	-0.005658	0.999866	-0.012842	0.002950	-0.009590	
14693	    0	14.801817	-7.873170	0.562464	-2.426815	0.659206	-1.757118	0.147339	-0.079956	0.006104	0.999882	-0.012134	0.003296	-0.008785	
14694	    0	13.247582	-9.129053	-0.279310	-2.107686	0.666449	-1.625875	0.131720	-0.092389	-0.002263	0.999906	-0.010538	0.003332	-0.008129	
14695	    0	11.102812	-9.703600	-2.890659	-2.116265	0.590532	-1.461834	0.110229	-0.098145	-0.028198	0.999912	-0.010581	0.002953	-0.007309	
14696	    0	9.127714	-8.397401	-4.432709	-2.076393	0.580040	-1.242479	0.090624	-0.084994	-0.043712	0.999922	-0.010382	0.002900	-0.006212	
14697	    0	7.528299	-8.643520	-4.427131	-1.537919	0.588236	-1.027696	0.074707	-0.087158	-0.043823	0.999952	-0.007689	0.002941	-0.005138	
14698	    0	6.059658	-9.156149	-4.026637	-0.781637	0.560383	-0.874716	0.060082	-0.091982	-0.040076	0.999978	-0.003908	0.002802	-0.004374	
14699	    0	4.985285	-9.651056	-3.976222	-0.150109	0.424959	-0.808719	0.049377	-0.096741	-0.039795	0.999989	-0.000751	0.002125	-0.004044	
14700	    0	4.643995	-9.528792	-3.856796	0.274850	0.302125	-0.711062	0.046042	-0.095399	-0.038769	0.999991	0.001374	0.001511	-0.003555	
14701	    0	4.513766	-8.474077	-3.784117	0.441171	0.257111	-0.537874	0.044861	-0.084778	-0.038086	0.999992	0.002206	0.001286	-0.002689	
14702	    0	4.506819	-8.095909	-3.492233	0.324059	0.261879	-0.304604	0.044899	-0.080971	-0.035112	0.999996	0.001620	0.001309	-0.001523	
14703	    0	4.798072	-6.651961	-2.779667	0.072670	0.301361	-0.078583	0.047913	-0.066528	-0.027893	0.999998	0.000363	0.001507	-0.000393	
14704	    0	5.061962	-3.685972	-2.609920	0.031662	0.331307	0.041008	0.050584	-0.036845	-0.026189	0.999998	0.000158	0.001657	0.000205	
14705	    0	4.726801	-2.034988	-1.986928	0.116921	0.327301	0.057220	0.047241	-0.020325	-0.019958	0.999998	0.000585	0.001637	0.000286	
14706	    0	4.213637	-2.039064	-1.059003	0.144577	0.177002	0.099945	0.042137	-0.020362	-0.010642	0.999999	0.000723	0.000885	0.000500	
14707	    0	4.069284	-2.164246	-1.049217	0.088501	-0.018120	0.154114	0.040710	-0.021606	-0.010498	0.999999	0.000443	-0.000091	0.000771	
14708	    0	4.080567	-2.528358	-1.843989	0.006485	-0.109673	0.276184	0.040851	-0.025227	-0.018418	0.999998	0.000032	-0.000548	0.001381	
14709	    0	4.418853	-3.084817	-2.905545	0.010872	-0.019836	0.383759	0.044250	-0.030762	-0.029053	0.999998	0.000054	-0.000099	0.001919	
14710	    0	4.569784	-3.302275	-2.901975	0.060463	0.125694	0.523949	0.045766	-0.032894	-0.029058	0.999996	0.000302	0.000628	0.002620	
14711	    0	4.863495	-2.715246	-2.209850	0.003243	0.233460	0.717165	0.048706	-0.026978	-0.022156	0.999992	0.000016	0.001167	0.003586	
14712	    0	5.628051	-1.475516	-1.475488	-0.120736	0.269700	0.922207	0.056328	-0.014504	-0.014822	0.999988	-0.000604	0.001348	0.004611	
14713	    0	6.316208	-0.404848	-0.957512	-0.280000	0.233651	1.072699	0.063171	-0.003723	-0.009644	0.999984	-0.001400	0.001168	0.005363	
14714	    0	6.685563	0.366992	-0.403451	-0.463680	0.182535	1.180657	0.066829	0.004055	-0.004105	0.999979	-0.002318	0.000913	0.005903	
14715	    0	6.789927	0.422194	-0.068048	-0.628476	0.111390	1.234446	0.067871	0.004639	-0.000732	0.999975	-0.003142	0.000557	0.006172	
14716	    0	7.000865	-0.094823	-0.521227	-0.647932	0.064850	1.253329	0.070011	-0.000526	-0.005233	0.999974	-0.003240	0.000324	0.006267	
14717	    0	7.777760	-0.704597	-1.356625	-0.437167	-0.004387	1.243600	0.077820	-0.006592	-0.013550	0.999978	-0.002186	-0.000022	0.006218	
14718	    0	9.541783	-1.525193	-2.477292	-0.035095	-0.094987	1.309023	0.095527	-0.014631	-0.024725	0.999978	-0.000175	-0.000475	0.006545	
14719	    0	11.969470	-2.046498	-3.682042	0.534253	-0.217440	1.394667	0.119873	-0.019531	-0.036743	0.999971	0.002671	-0.001087	0.006973	
14720	    0	14.610842	-2.342993	-5.323080	1.125734	-0.400740	1.488327	0.146382	-0.022042	-0.053064	0.999954	0.005629	-0.002004	0.007442	
14721	    0	17.242537	-1.849529	-7.080488	1.520571	-0.651374	1.572452	0.172791	-0.016602	-0.070374	0.999934	0.007603	-0.003257	0.007862	
14722	    0	19.684495	-1.309385	-8.763442	1.530112	-0.821324	1.682132	0.197300	-0.010769	-0.086913	0.999927	0.007650	-0.004107	0.008410	
14723	    0	21.298456	-0.392278	-8.853886	1.268034	-0.850506	1.782267	0.213379	-0.001465	-0.087646	0.999930	0.006340	-0.004252	0.008911	
14724	    0	22.123818	1.567516	-6.958785	1.120783	-0.794047	1.883359	0.221349	0.018146	-0.068612	0.999931	0.005604	-0.003970	0.009417	
14725	    0	22.912314	3.223278	-5.407238	0.946065	-0.762002	1.905863	0.229004	0.034668	-0.053040	0.999936	0.004730	-0.003810	0.009529	
14726	    0	22.456612	4.241268	-3.960732	0.786985	-0.754559	1.621081	0.224359	0.044385	-0.038589	0.999951	0.003935	-0.003773	0.008105	
14727	    0	20.196188	3.960044	-2.413024	0.661669	-0.976577	1.446554	0.201782	0.041138	-0.023010	0.999956	0.003308	-0.004883	0.007233	
14728	    0	18.427060	3.001347	-1.091082	0.715649	-1.190778	1.466204	0.184104	0.031400	-0.009704	0.999949	0.003578	-0.005954	0.007331	
14729	    0	17.919893	1.833032	-0.381721	1.319342	-1.190212	1.454958	0.179077	0.019653	-0.002625	0.999933	0.006597	-0.005951	0.007275	
14730	    0	16.953247	2.490839	-0.919559	1.986947	-1.117169	1.491783	0.169387	0.026256	-0.007993	0.999907	0.009934	-0.005586	0.007459	
14731	    0	15.347397	4.615239	-1.544678	2.485947	-1.075025	1.503814	0.153198	0.047485	-0.014038	0.999880	0.012429	-0.005375	0.007519	
14732	    0	14.102632	6.777731	-2.194127	2.497772	-1.047557	1.482260	0.140627	0.069081	-0.020347	0.999881	0.012488	-0.005238	0.007411	
14733	    0	12.700363	8.993538	-1.853772	1.937923	-0.995474	1.515242	0.126404	0.091064	-0.017029	0.999911	0.009689	-0.004977	0.007576	
14734	    0	11.720969	8.963893	-0.894336	1.340704	-1.006530	1.534495	0.116558	0.090590	-0.007751	0.999935	0.006703	-0.005033	0.007672	
14735	    0	10.371861	7.543720	0.275801	0.876823	-1.105518	1.450373	0.103149	0.076172	0.003662	0.999949	0.004384	-0.005527	0.007252	
14736	    0	9.079003	6.956670	0.746282	0.589760	-1.069846	1.289385	0.090297	0.070127	0.008153	0.999960	0.002949	-0.005349	0.006447	
14737	    0	7.619864	7.758528	1.140683	0.558668	-0.892649	1.187909	0.075684	0.078003	0.011963	0.999968	0.002793	-0.004463	0.005939	
14738	    0	6.237824	8.537873	1.129348	0.374606	-0.688177	1.117906	0.061860	0.085704	0.011667	0.999976	0.001873	-0.003441	0.005589	
14739	    0	4.790303	9.034266	0.934754	0.167085	-0.413325	1.014715	0.047424	0.090576	0.009521	0.999984	0.000835	-0.002067	0.005074	
14740	    0	4.285280	8.221809	2.091653	0.292779	-0.062943	0.865367	0.042490	0.082372	0.021050	0.999990	0.001464	-0.000315	0.004327	
14741	    0	3.095649	8.489389	0.735968	-0.346185	0.067902	0.751498	0.030640	0.085022	0.007202	0.999990	-0.001731	0.000340	0.003757	
14742	    0	1.995749	8.955693	0.386140	-0.750735	0.282289	0.554087	0.019714	0.089625	0.003497	0.999988	-0.003754	0.001411	0.002770	
14743	    0	0.628859	9.820167	-0.855443	-1.577014	0.323681	0.471502	0.006042	0.098145	-0.009338	0.999965	-0.007885	0.001618	0.002357	
14744	    0	1.286295	6.523919	0.036240	-1.707290	0.267032	0.312046	0.012761	0.065259	-0.000212	0.999961	-0.008536	0.001335	0.001560	
14745	    0	0.842926	5.110398	-2.070520	-2.569461	0.066378	0.237281	0.008362	0.050842	-0.021362	0.999916	-0.012847	0.000332	0.001186	
14746	    0	0.735265	3.320216	-0.797112	-2.439370	-0.315293	0.111773	0.007347	0.033106	-0.008364	0.999924	-0.012197	-0.001576	0.000559	
14747	    0	1.378622	-1.397377	-1.959299	-1.811057	-0.811781	-0.145724	0.013855	-0.014160	-0.019409	0.999950	-0.009055	-0.004059	-0.000729	
14748	    0	1.421964	-5.636940	-4.720217	-1.572632	-0.988021	-0.333791	0.014357	-0.056762	-0.046686	0.999955	-0.007863	-0.004940	-0.001669	
14749	    0	3.479040	-10.120394	-5.755598	-1.190767	-0.386050	-0.458530	0.034668	-0.101624	-0.056885	0.999977	-0.005954	-0.001930	-0.002293	
14750	    0	6.345937	-15.157821	-4.482841	-0.578882	0.466730	-0.429536	0.063029	-0.151843	-0.044537	0.999990	-0.002894	0.002334	-0.002148	
14751	    0	7.855382	-15.719576	-2.859690	0.631145	0.832371	-0.313570	0.078186	-0.157227	-0.029419	0.999985	0.003156	0.004162	-0.001568	
14752	    0	8.046427	-14.811564	-4.459453	1.766993	0.577744	-0.097658	0.080260	-0.147752	-0.046133	0.999956	0.008835	0.002889	-0.000488	
14753	    0	8.001215	-13.867152	-7.939202	1.876288	0.459297	0.097658	0.079895	-0.137878	-0.080872	0.999952	0.009381	0.002296	0.000488	
14754	    0	7.271223	-10.787841	-7.025172	1.486796	0.793276	0.232318	0.072556	-0.107266	-0.071339	0.999964	0.007434	0.003966	0.001162	
14755	    0	6.171588	-6.650174	-3.731438	1.297011	0.910387	0.306705	0.061646	-0.066162	-0.038025	0.999967	0.006485	0.004552	0.001534	
14756	    0	5.062794	-2.918687	-1.271545	1.271832	0.715835	0.343707	0.050632	-0.029017	-0.013082	0.999971	0.006359	0.003579	0.001719	
14757	    0	3.712924	1.343565	0.138836	1.272593	0.378612	0.334170	0.037109	0.013489	0.001404	0.999976	0.006363	0.001893	0.001671	
14758	    0	3.087420	5.769906	1.362264	1.325236	0.222399	0.175668	0.030839	0.057634	0.013970	0.999976	0.006626	0.001112	0.000878	
14759	    0	3.981451	8.545267	1.472034	1.457227	0.113107	-0.077058	0.039856	0.085327	0.015320	0.999972	0.007286	0.000566	-0.000385	
14760	    0	5.955547	8.302753	-0.843189	1.709007	0.038338	-0.492293	0.059758	0.082949	-0.007734	0.999960	0.008545	0.000192	-0.002461	
14761	    0	10.839195	6.331900	-1.735838	1.509302	0.384526	-0.511175	0.108521	0.063171	-0.017090	0.999966	0.007546	0.001923	-0.002556	
14762	    0	17.503190	-2.401876	-4.386291	0.479890	0.304795	-0.392915	0.174917	-0.024257	-0.044188	0.999993	0.002399	0.001524	-0.001965	
14763	    0	24.254901	-14.756242	-16.590183	0.868992	-0.482752	0.042725	0.242981	-0.146790	-0.165955	0.999988	0.004345	-0.002414	0.000214	
14764	    0	23.580602	-8.163435	-4.242657	2.331977	-0.026894	-0.078775	0.235780	-0.081225	-0.043344	0.999931	0.011660	-0.000134	-0.000394	
14765	    0	13.264929	20.360407	1.313627	3.338971	0.076298	-0.334946	0.132996	0.203125	0.016479	0.999859	0.016694	0.000381	-0.001675	
14766	    0	7.593467	26.426342	-1.442862	0.857357	-0.207330	-0.520518	0.076636	0.264123	-0.013217	0.999987	0.004287	-0.001037	-0.002603	
14767	    0	6.825448	24.089427	-2.776057	-1.879161	-0.147823	-1.287870	0.069824	0.240173	-0.029968	0.999934	-0.009396	-0.000739	-0.006439	
14768	    0	12.161039	19.552107	-0.786913	-3.233534	0.008965	-2.036600	0.123591	0.194108	-0.011021	0.999817	-0.016167	0.000045	-0.010182	
14769	    0	18.044260	17.678384	-1.108022	-2.108671	0.215159	-2.568173	0.182678	0.174316	-0.013123	0.999861	-0.010543	0.001076	-0.012840	
14770	    0	22.759834	11.829844	-0.280916	-0.490777	0.343143	-2.740568	0.229185	0.115157	-0.003487	0.999901	-0.002454	0.001716	-0.013702	
14771	    0	24.336246	9.019800	-0.531098	0.449578	0.260935	-2.899275	0.244629	0.086670	-0.005432	0.999891	0.002248	0.001305	-0.014496	
14772	    0	22.649680	9.066187	-3.830836	0.131612	0.198563	-3.107197	0.227831	0.087154	-0.038476	0.999878	0.000658	0.000993	-0.015535	
