// Start Time: Unknown
// Update Rate: 100.0Hz
// Filter Profile: human (34.3)
// Firmware Version: 2.1.4
PacketCounter	SampleTimeFine	Acc_X	Acc_Y	Acc_Z	Gyr_X	Gyr_Y	Gyr_Z	VelInc_X	VelInc_Y	VelInc_Z	OriInc_q0	OriInc_q1	OriInc_q2	OriInc_q3	
59087	    0	22.715263	24.363890	-0.597273	0.487042	-1.043144	6.777763	0.218750	0.251160	-0.004211	0.999409	0.002435	-0.005215	0.033882	
59088	    0	21.522429	27.345795	0.374426	1.391605	-0.952663	5.533990	0.207523	0.279232	0.006675	0.999581	0.006957	-0.004763	0.027666	
59089	    0	19.102461	34.074020	1.094262	2.097498	-0.835299	3.906581	0.184265	0.344238	0.015320	0.999745	0.010487	-0.004176	0.019531	
59090	    0	14.937913	40.249244	-0.760932	2.112285	-0.686674	2.237222	0.144879	0.404177	-0.002844	0.999875	0.010561	-0.003433	0.011186	
59091	    0	9.820204	43.175580	-2.427004	1.715307	-0.617991	0.763715	0.096619	0.432312	-0.020264	0.999950	0.008576	-0.003090	0.003819	
59092	    0	6.169175	43.058207	-2.230534	1.310934	-0.566107	-0.556951	0.062948	0.430541	-0.019306	0.999970	0.006555	-0.002831	-0.002785	
59093	    0	8.824515	38.381789	-1.332706	0.922411	-0.591098	-1.802859	0.091736	0.383057	-0.011292	0.999944	0.004612	-0.002955	-0.009014	
59094	    0	9.484561	32.326995	-1.256375	0.792730	-0.676758	-3.133344	0.099934	0.321776	-0.010954	0.999864	0.003963	-0.003384	-0.015666	
59095	    0	9.743451	25.224733	-12.164720	0.677546	-0.978741	-4.275864	0.103394	0.250488	-0.120300	0.999753	0.003387	-0.004893	-0.021378	
59096	    0	21.422453	4.266709	-29.722417	1.859875	-1.254223	-4.700238	0.217048	0.040341	-0.295486	0.999660	0.009298	-0.006270	-0.023499	
59097	    0	53.774016	-6.738541	24.693817	2.348782	0.825851	-6.341253	0.536194	-0.087280	0.243774	0.999419	0.011742	0.004128	-0.031700	
59098	    0	35.077305	-4.288811	25.653200	3.916753	-1.686131	-6.407221	0.346879	-0.059093	0.258416	0.999259	0.019579	-0.008429	-0.032028	
59099	    0	5.809170	-4.855804	4.900755	5.046924	-2.142171	-6.099121	0.056030	-0.051514	0.048340	0.999159	0.025228	-0.010708	-0.030487	
59100	    0	9.691717	15.603333	10.861173	4.959532	-1.853695	-6.220449	0.100614	0.150170	0.113306	0.999166	0.024791	-0.009266	-0.031094	
59101	    0	5.443429	23.587730	-2.343357	2.506125	-2.213677	-5.575781	0.061218	0.234497	-0.019836	0.999472	0.012528	-0.011066	-0.027874	
59102	    0	-7.057178	19.347519	-11.202500	0.284406	-1.616593	-3.792079	-0.065978	0.194915	-0.112294	0.999786	0.001422	-0.008082	-0.018959	
59103	    0	-1.276221	4.831752	-9.733654	-1.068164	-1.052714	-2.965682	-0.011536	0.047974	-0.097656	0.999862	-0.005341	-0.005263	-0.014828	
59104	    0	9.000694	3.285059	-6.907480	-0.829726	-0.712039	-2.710248	0.090684	0.031339	-0.068885	0.999893	-0.004148	-0.003560	-0.013551	
59105	    0	19.357586	9.428543	-1.569700	-0.670643	-0.707838	-2.444529	0.194763	0.091858	-0.015320	0.999913	-0.003353	-0.003539	-0.012222	
59106	    0	17.911896	8.269327	-1.919235	-0.925085	-0.762576	-2.029275	0.180017	0.080782	-0.018884	0.999930	-0.004625	-0.003813	-0.010146	
59107	    0	14.446031	3.605978	-3.496102	-0.451668	-0.598727	-1.898989	0.144897	0.034607	-0.034607	0.999948	-0.002258	-0.002994	-0.009495	
59108	    0	14.649016	5.844419	-3.245578	-0.218013	-0.365072	-1.800181	0.147067	0.057087	-0.032250	0.999957	-0.001090	-0.001825	-0.009001	
59109	    0	13.124270	4.374830	-6.033276	-0.412563	-0.180818	-1.367962	0.131592	0.042725	-0.060303	0.999973	-0.002063	-0.000904	-0.006840	
59110	    0	11.347189	4.857130	-7.701054	-0.364878	0.004387	-1.042753	0.113721	0.047838	-0.077101	0.999985	-0.001824	0.000022	-0.005214	
59111	    0	12.325062	3.759796	-7.512070	-0.157738	0.172425	-0.894168	0.123352	0.036987	-0.075256	0.999989	-0.000789	0.000862	-0.004471	
59112	    0	16.643391	7.244143	-7.209028	-0.348474	0.353242	-0.719454	0.166565	0.071716	-0.072510	0.999990	-0.001742	0.001766	-0.003597	
59113	    0	21.222562	2.220347	-6.149023	-0.429346	0.478365	-0.691989	0.212152	0.021337	-0.062044	0.999987	-0.002147	0.002392	-0.003460	
59114	    0	19.845812	0.557678	-4.504300	-0.555613	0.538829	-0.758938	0.198355	0.004698	-0.045591	0.999985	-0.002778	0.002694	-0.003795	
59115	    0	20.562033	-0.275088	-3.309202	-0.846679	0.597386	-0.867469	0.205505	-0.003784	-0.033691	0.999977	-0.004233	0.002987	-0.004337	
59116	    0	20.205100	0.608499	-1.676831	-1.412029	0.582894	-0.949109	0.202026	0.005005	-0.017395	0.999959	-0.007060	0.002914	-0.004745	
59117	    0	19.603591	-0.422333	0.058697	-1.998183	0.481616	-1.060319	0.196011	-0.005260	0.000164	0.999930	-0.009991	0.002408	-0.005301	
59118	    0	18.366018	-0.894121	1.905638	-2.343055	0.410855	-1.132426	0.183645	-0.009760	0.018790	0.999913	-0.011715	0.002054	-0.005662	
59119	    0	17.446359	-1.614346	3.457626	-2.740388	0.363172	-1.067391	0.174438	-0.016602	0.034485	0.999889	-0.013701	0.001816	-0.005337	
59120	    0	15.316719	-3.223567	4.354116	-3.513724	0.328845	-0.993403	0.153079	-0.032228	0.043856	0.999831	-0.017568	0.001644	-0.004967	
59121	    0	12.498192	-5.653265	4.769633	-4.283294	0.310541	-0.854560	0.124817	-0.056030	0.048706	0.999760	-0.021415	0.001553	-0.004272	
59122	    0	10.003911	-6.927564	3.955484	-4.408061	0.224514	-0.775402	0.099817	-0.068770	0.040962	0.999748	-0.022038	0.001122	-0.003877	
59123	    0	10.639468	-7.481173	2.410021	-3.775263	0.229850	-0.920163	0.106079	-0.074829	0.025391	0.999810	-0.018875	0.001149	-0.004601	
59124	    0	12.266728	-7.520377	1.770087	-2.409819	0.330935	-1.223030	0.122235	-0.075733	0.018409	0.999907	-0.012049	0.001655	-0.006115	
59125	    0	10.213417	-3.720215	-1.849998	-1.389911	0.263982	-1.602966	0.101807	-0.038147	-0.018372	0.999943	-0.006949	0.001320	-0.008015	
59126	    0	10.597599	-4.123209	-5.418378	-0.849740	0.185207	-1.941908	0.105517	-0.042488	-0.054103	0.999943	-0.004249	0.000926	-0.009709	
59127	    0	10.260906	-6.798447	-4.013475	-0.057031	0.209813	-2.387295	0.101746	-0.069214	-0.040222	0.999928	-0.000285	0.001049	-0.011936	
59128	    0	8.588771	-5.667235	-3.221883	0.680757	0.226220	-2.864751	0.085029	-0.057784	-0.032511	0.999890	0.003404	0.001131	-0.014323	
59129	    0	9.137974	-5.222349	-3.312336	1.212379	0.407623	-3.457074	0.090393	-0.053589	-0.033630	0.999829	0.006062	0.002038	-0.017284	
59130	    0	10.260428	-4.333088	-1.772385	1.509984	0.603536	-4.188890	0.101614	-0.045329	-0.018369	0.999747	0.007549	0.003017	-0.020943	
59131	    0	11.136758	0.640184	-0.719152	1.440005	0.737075	-4.684928	0.111450	0.003845	-0.007568	0.999693	0.007199	0.003685	-0.023422	
59132	    0	12.970098	6.248822	-2.336770	0.625481	0.616897	-4.768648	0.131070	0.059447	-0.023582	0.999705	0.003127	0.003084	-0.023841	
59133	    0	15.315161	3.313170	-3.374889	-0.337250	0.652563	-4.601704	0.153748	0.029541	-0.034302	0.999728	-0.001686	0.003263	-0.023006	
59134	    0	17.178808	-2.179619	-2.927349	-0.750600	0.733433	-4.196113	0.171170	-0.025503	-0.029811	0.999765	-0.003753	0.003667	-0.020979	
59135	    0	21.857382	-4.931273	-3.909407	-0.694896	1.034619	-3.912628	0.217346	-0.053711	-0.040039	0.999788	-0.003474	0.005173	-0.019562	
59136	    0	28.416210	-7.667751	-4.006679	-0.441389	1.202660	-3.688856	0.282435	-0.081988	-0.041592	0.999809	-0.002207	0.006013	-0.018443	
59137	    0	29.988628	-13.313991	-3.975195	-0.014306	0.813340	-3.627223	0.297241	-0.138550	-0.040955	0.999826	-0.000072	0.004066	-0.018135	
59138	    0	21.370353	-12.685366	-5.092317	0.115782	0.400755	-3.567697	0.211293	-0.130608	-0.051423	0.999838	0.000579	0.002004	-0.017838	
59139	    0	15.488590	-8.854139	-4.061517	0.066569	0.322736	-3.057982	0.153442	-0.090881	-0.040894	0.999882	0.000333	0.001614	-0.015289	
59140	    0	13.155772	-5.717137	-2.374620	-0.263221	0.343141	-2.517387	0.130783	-0.058852	-0.023894	0.999918	-0.001316	0.001716	-0.012587	
59141	    0	10.608927	-2.833873	-1.936736	-0.629245	0.366980	-1.924930	0.105774	-0.029419	-0.019470	0.999947	-0.003146	0.001835	-0.009624	
59142	    0	8.524031	-2.759925	-3.021875	-0.804336	0.382045	-1.146517	0.085022	-0.028209	-0.030269	0.999973	-0.004022	0.001910	-0.005733	
59143	    0	6.879573	-5.139418	-4.353616	-0.742152	0.326539	-0.233460	0.068665	-0.051636	-0.043457	0.999990	-0.003711	0.001633	-0.001167	
59144	    0	5.433756	-6.986962	-5.622477	-0.417138	0.185013	0.569154	0.054484	-0.069832	-0.056129	0.999993	-0.002086	0.000925	0.002846	
59145	    0	3.861428	-6.378270	-5.821822	-0.011253	0.066376	1.277932	0.039001	-0.063538	-0.058228	0.999979	-0.000056	0.000332	0.006390	
59146	    0	2.514331	-4.389251	-5.204028	0.355346	-0.041390	2.057876	0.025603	-0.043538	-0.052113	0.999945	0.001777	-0.000207	0.010289	
59147	    0	2.450816	-2.582680	-4.412352	0.613426	-0.098995	2.920641	0.024902	-0.025330	-0.044189	0.999888	0.003067	-0.000495	0.014603	
59148	    0	2.859059	-1.531605	-3.843106	0.665516	-0.170528	3.826764	0.028908	-0.014637	-0.038456	0.999810	0.003327	-0.000853	0.019133	
59149	    0	3.076449	-1.706418	-3.709573	0.601442	-0.231955	4.620017	0.031189	-0.016235	-0.037109	0.999727	0.003007	-0.001160	0.023098	
59150	    0	3.786883	-2.472047	-3.387880	0.513901	-0.259430	5.300196	0.038548	-0.023618	-0.033891	0.999644	0.002569	-0.001297	0.026498	
59151	    0	5.092718	-2.824185	-2.966575	0.454205	-0.250280	5.835032	0.051758	-0.026672	-0.029663	0.999571	0.002271	-0.001251	0.029171	
59152	    0	6.392244	-2.632396	-2.451702	0.347767	-0.258679	6.286517	0.064738	-0.024255	-0.024477	0.999503	0.001739	-0.001293	0.031427	
59153	    0	7.705600	-2.367885	-2.010678	0.226636	-0.289018	6.700629	0.077820	-0.021057	-0.020020	0.999436	0.001133	-0.001445	0.033497	
59154	    0	8.903953	-1.778868	-1.856756	-0.010302	-0.321265	7.081561	0.089624	-0.014623	-0.018423	0.999372	-0.000051	-0.001606	0.035400	
59155	    0	10.336394	-0.912743	-1.818355	-0.470080	-0.314213	7.454128	0.103638	-0.005310	-0.018005	0.999301	-0.002350	-0.001571	0.037262	
59156	    0	11.732577	-0.307404	-1.039759	-1.051029	-0.286558	7.789903	0.117343	0.001443	-0.010229	0.999227	-0.005254	-0.001432	0.038939	
59157	    0	12.704427	0.522665	-0.792241	-1.353836	-0.361545	8.106228	0.126709	0.010315	-0.007751	0.999154	-0.006767	-0.001807	0.040520	
59158	    0	13.718627	0.373321	-0.155812	-1.222009	-0.488231	8.206822	0.136883	0.009347	-0.001269	0.999136	-0.006108	-0.002440	0.041022	
59159	    0	16.314675	1.261155	-0.501903	-0.834696	-0.629599	8.078711	0.162476	0.019165	-0.004578	0.999170	-0.004172	-0.003147	0.040382	
59160	    0	19.085694	4.432120	-0.233993	-0.397023	-0.759704	7.857461	0.188928	0.051766	-0.001718	0.999219	-0.001985	-0.003798	0.039277	
59161	    0	20.166023	10.638685	-0.687253	-0.005151	-0.898963	7.608367	0.197449	0.113953	-0.005981	0.999266	-0.000026	-0.004494	0.038033	
59162	    0	20.815726	18.167860	-2.143534	0.306583	-1.025059	7.434494	0.201320	0.189280	-0.020105	0.999294	0.001533	-0.005124	0.037164	
59163	    0	22.896372	23.992731	-3.993088	0.571562	-1.078833	7.006023	0.220581	0.247864	-0.038025	0.999368	0.002857	-0.005393	0.035023	
59164	    0	21.547159	27.567234	-3.794862	1.484362	-1.087375	6.142142	0.207062	0.282384	-0.034728	0.999486	0.007421	-0.005436	0.030705	
59165	    0	20.477531	32.339552	-1.615246	2.762391	-1.021709	4.748390	0.197083	0.328308	-0.010620	0.999609	0.013810	-0.005108	0.023739	
59166	    0	18.314396	40.807849	-0.474126	3.041898	-0.945169	3.080811	0.176829	0.410835	0.002339	0.999754	0.015208	-0.004725	0.015403	
59167	    0	12.794659	44.465111	-2.941665	2.495865	-0.861393	1.618259	0.124451	0.445984	-0.023315	0.999880	0.012479	-0.004307	0.008091	
59168	    0	7.653407	44.470132	-5.073886	1.716640	-0.789845	0.204662	0.076268	0.445191	-0.046618	0.999954	0.008583	-0.003949	0.001023	
59169	    0	7.944164	42.444600	-5.321008	0.932322	-0.810823	-1.064312	0.081909	0.424255	-0.050903	0.999967	0.004662	-0.004054	-0.005322	
59170	    0	8.358150	37.975461	-4.488373	0.231367	-0.896286	-2.310240	0.088160	0.378805	-0.044057	0.999922	0.001157	-0.004481	-0.011551	
59171	    0	9.688986	29.960466	-7.075954	0.038912	-1.014579	-3.628755	0.102661	0.297791	-0.070190	0.999822	0.000195	-0.005073	-0.018143	
59172	    0	17.473928	29.766570	-17.739837	1.074365	-1.152768	-5.504025	0.183870	0.293633	-0.174771	0.999590	0.005371	-0.005763	-0.027516	
59173	    0	47.414899	0.745728	15.121951	2.824201	0.532066	-6.288637	0.474426	-0.009583	0.149902	0.999402	0.014118	0.002660	-0.031437	
59174	    0	35.898376	-15.491596	22.864384	4.463834	-1.779963	-5.633115	0.352304	-0.169999	0.228117	0.999314	0.022314	-0.008898	-0.028159	
59175	    0	6.884829	2.503282	3.797498	5.977367	-2.402471	-5.670380	0.069031	0.021912	0.039490	0.999079	0.029878	-0.012009	-0.028343	
59176	    0	6.042646	21.378663	7.389571	4.534455	-1.861057	-5.703553	0.065735	0.210205	0.079285	0.999292	0.022667	-0.009303	-0.028511	
59177	    0	7.975198	21.434131	-6.871135	1.580253	-2.247339	-4.859602	0.085689	0.212836	-0.066085	0.999608	0.007900	-0.011235	-0.024295	
59178	    0	-0.754748	13.635041	-7.470920	-0.002098	-1.657768	-3.234660	-0.004722	0.136441	-0.074758	0.999834	-0.000010	-0.008288	-0.016172	
59179	    0	6.008099	6.816113	-5.006750	-1.446599	-1.060343	-2.768070	0.061279	0.066956	-0.050232	0.999864	-0.007233	-0.005301	-0.013840	
59180	    0	12.004114	2.195595	-3.510550	-1.171344	-0.963245	-2.481930	0.120467	0.020259	-0.034648	0.999894	-0.005857	-0.004816	-0.012409	
59181	    0	17.064959	6.799369	-2.029926	-0.607316	-0.990895	-2.282777	0.171509	0.065979	-0.019653	0.999917	-0.003036	-0.004954	-0.011414	
59182	    0	15.117630	6.119139	-2.023821	-0.592626	-1.002715	-1.981207	0.151872	0.059630	-0.019656	0.999933	-0.002963	-0.005013	-0.009906	
59183	    0	12.971548	5.047220	-5.241885	-0.218776	-0.817884	-1.782255	0.130371	0.049255	-0.051941	0.999950	-0.001094	-0.004089	-0.008911	
59184	    0	12.821956	7.177908	-6.487916	-0.195696	-0.494581	-1.497666	0.128912	0.070752	-0.064631	0.999968	-0.000978	-0.002473	-0.007488	
59185	    0	11.725320	4.992356	-7.762006	-0.386050	-0.237848	-1.090247	0.117615	0.049133	-0.077576	0.999982	-0.001930	-0.001189	-0.005451	
59186	    0	11.757429	4.271870	-7.537845	-0.413515	0.058747	-0.778392	0.117717	0.042105	-0.075500	0.999990	-0.002068	0.000294	-0.003892	
59187	    0	14.129780	3.299957	-7.943140	-0.273896	0.247384	-0.594331	0.141296	0.032471	-0.079651	0.999993	-0.001369	0.001237	-0.002972	
59188	    0	18.148727	5.435904	-7.921976	-0.337792	0.392533	-0.482179	0.181461	0.053787	-0.079667	0.999993	-0.001689	0.001963	-0.002411	
59189	    0	22.375670	1.196889	-6.068689	-0.643733	0.496675	-0.484468	0.223633	0.011230	-0.061279	0.999989	-0.003219	0.002483	-0.002422	
59190	    0	20.706483	-0.763863	-3.617053	-1.002509	0.482181	-0.561718	0.206954	-0.008403	-0.036629	0.999980	-0.005013	0.002411	-0.002809	
59191	    0	20.949695	-1.424369	-1.539135	-1.598380	0.452620	-0.675210	0.209412	-0.015076	-0.015747	0.999959	-0.007992	0.002263	-0.003376	
59192	    0	20.901856	0.841216	0.182114	-2.074668	0.364693	-0.886173	0.209056	0.007502	0.001359	0.999934	-0.010373	0.001823	-0.004431	
59193	    0	20.847659	-0.153646	2.482098	-2.807532	0.241861	-1.024666	0.208496	-0.002258	0.024597	0.999887	-0.014037	0.001209	-0.005123	
59194	    0	18.345227	-4.757514	4.380817	-3.105492	0.117689	-0.979085	0.183245	-0.047786	0.044441	0.999866	-0.015527	0.000588	-0.004895	
59195	    0	16.386198	-2.782622	5.333083	-3.528793	0.133713	-1.012478	0.163757	-0.027710	0.053711	0.999831	-0.017643	0.000669	-0.005062	
59196	    0	15.041076	-3.140799	6.223915	-4.422950	0.185792	-1.034063	0.150309	-0.030801	0.062785	0.999742	-0.022113	0.000929	-0.005170	
59197	    0	12.724833	-7.925690	5.424229	-5.045872	0.215363	-0.901893	0.126953	-0.078430	0.056091	0.999671	-0.025227	0.001077	-0.004509	
59198	    0	11.406453	-9.504777	4.421741	-4.816351	0.257327	-0.986771	0.113656	-0.094510	0.046351	0.999697	-0.024079	0.001287	-0.004933	
59199	    0	11.358100	-8.212132	2.467808	-3.620949	0.296802	-1.413053	0.113037	-0.082458	0.026001	0.999809	-0.018104	0.001484	-0.007065	
59200	    0	12.035431	-8.873520	1.422421	-2.011171	0.358783	-1.808413	0.119573	-0.089671	0.014908	0.999907	-0.010056	0.001794	-0.009042	
59201	    0	9.717696	-5.573594	-3.059587	-1.132042	0.247962	-2.271332	0.096497	-0.057007	-0.030396	0.999918	-0.005660	0.001240	-0.011356	
59202	    0	11.246500	-6.772527	-4.535786	-0.356684	0.273522	-2.566792	0.111521	-0.069242	-0.045388	0.999915	-0.001783	0.001368	-0.012834	
59203	    0	10.414958	-8.667932	-2.870985	0.614953	0.378624	-2.992367	0.102783	-0.088135	-0.029175	0.999881	0.003075	0.001893	-0.014961	
59204	    0	10.068173	-7.423508	-4.632940	1.537804	0.445395	-3.599400	0.099224	-0.075669	-0.047130	0.999805	0.007689	0.002227	-0.017996	
59205	    0	10.966609	-6.307875	-4.820259	2.054980	0.609646	-4.240053	0.108154	-0.064880	-0.049194	0.999718	0.010274	0.003048	-0.021198	
59206	    0	10.592948	-5.256778	-3.952569	2.126164	0.550903	-4.635747	0.104569	-0.054576	-0.040388	0.999671	0.010630	0.002754	-0.023176	
59207	    0	11.330772	0.301647	-2.957035	1.452214	0.396769	-4.736053	0.113281	0.000549	-0.029785	0.999691	0.007260	0.001984	-0.023678	
59208	    0	12.612665	2.421188	-2.322633	0.430910	0.423471	-4.689272	0.126599	0.021297	-0.023446	0.999721	0.002154	0.002117	-0.023444	
59209	    0	13.198881	0.022873	-2.137886	-0.388937	0.534860	-4.169011	0.131897	-0.002563	-0.021729	0.999777	-0.001945	0.002674	-0.020844	
59210	    0	16.694635	-2.467052	-3.006595	-0.896890	0.869804	-3.625710	0.166328	-0.027826	-0.030670	0.999816	-0.004484	0.004349	-0.018127	
59211	    0	23.500335	-5.932157	-3.267985	-1.020108	1.290394	-3.298374	0.233765	-0.063354	-0.033875	0.999829	-0.005100	0.006452	-0.016491	
59212	    0	28.303017	-9.966738	-4.225535	-0.618200	0.958297	-3.143648	0.281210	-0.104230	-0.043288	0.999860	-0.003091	0.004791	-0.015718	
59213	    0	23.364926	-11.901327	-6.697586	-0.396743	0.347341	-2.936663	0.231750	-0.122559	-0.067139	0.999888	-0.001984	0.001737	-0.014683	
59214	    0	15.131492	-11.829228	-6.470961	-0.561349	0.234038	-2.570036	0.149701	-0.120404	-0.064549	0.999912	-0.002807	0.001170	-0.012850	
59215	    0	12.126312	-7.040936	-4.114976	-0.630011	0.352486	-2.153061	0.120422	-0.071838	-0.041138	0.999935	-0.003150	0.001762	-0.010765	
59216	    0	10.673839	-2.519886	-3.270307	-0.755702	0.287823	-1.636528	0.106480	-0.026195	-0.032759	0.999958	-0.003778	0.001439	-0.008183	
59217	    0	9.009505	-1.946860	-3.373158	-0.804906	0.223733	-0.922400	0.089966	-0.020020	-0.033752	0.999980	-0.004025	0.001119	-0.004612	
59218	    0	7.136316	-3.849089	-4.175806	-0.757410	0.138665	-0.095749	0.071316	-0.038683	-0.041661	0.999992	-0.003787	0.000693	-0.000479	
59219	    0	5.617553	-5.106024	-5.147113	-0.598147	0.042915	0.669863	0.056335	-0.051025	-0.051331	0.999990	-0.002991	0.000215	0.003349	
59220	    0	4.089471	-4.956792	-5.562075	-0.356105	-0.084687	1.369869	0.041257	-0.049385	-0.055515	0.999974	-0.001781	-0.000423	0.006849	
59221	    0	2.942930	-3.932718	-5.929008	0.033761	-0.212101	2.122538	0.029907	-0.039001	-0.059265	0.999943	0.000169	-0.001060	0.010612	
59222	    0	2.749504	-2.132927	-5.803862	0.343335	-0.272761	2.947344	0.027884	-0.020821	-0.058037	0.999888	0.001717	-0.001364	0.014736	
59223	    0	3.354312	-0.991695	-5.399122	0.442532	-0.337812	3.808829	0.033813	-0.009155	-0.053955	0.999814	0.002213	-0.001689	0.019043	
59224	    0	3.883073	-1.806128	-4.648504	0.514458	-0.408973	4.613531	0.039327	-0.017038	-0.046450	0.999728	0.002572	-0.002045	0.023066	
59225	    0	4.720874	-2.873212	-4.006004	0.599742	-0.437026	5.310695	0.048035	-0.027344	-0.040039	0.999640	0.002998	-0.002185	0.026550	
59226	    0	5.893718	-2.854887	-3.325476	0.532417	-0.440470	5.812712	0.059805	-0.026731	-0.033196	0.999571	0.002662	-0.002202	0.029059	
59227	    0	6.979171	-2.408695	-2.977227	0.391642	-0.436472	6.196068	0.070557	-0.021851	-0.029663	0.999516	0.001958	-0.002182	0.030975	
59228	    0	8.093524	-1.578864	-2.545632	0.177225	-0.464332	6.546433	0.081452	-0.013105	-0.025280	0.999461	0.000886	-0.002321	0.032726	
59229	    0	9.145933	-1.015993	-2.452234	-0.150901	-0.489141	6.890714	0.091797	-0.007019	-0.024292	0.999403	-0.000754	-0.002445	0.034447	
59230	    0	10.390506	-0.669493	-2.347406	-0.621933	-0.473890	7.249531	0.104114	-0.002995	-0.023214	0.999335	-0.003109	-0.002369	0.036240	
59231	    0	11.717328	-0.397746	-1.564742	-1.146788	-0.444139	7.561053	0.117249	0.000366	-0.015381	0.999266	-0.005733	-0.002220	0.037796	
59232	    0	12.868258	0.334723	-1.024863	-1.356674	-0.550225	7.832119	0.128449	0.008313	-0.009940	0.999206	-0.006782	-0.002750	0.039150	
59233	    0	14.437336	0.653397	-0.519189	-1.237630	-0.686830	7.913813	0.143982	0.012207	-0.004761	0.999191	-0.006186	-0.003433	0.039558	
59234	    0	17.915468	3.535911	-0.551806	-1.039010	-0.821898	7.751173	0.177628	0.042237	-0.004993	0.999227	-0.005194	-0.004108	0.038746	
59235	    0	19.070475	6.662048	1.308818	-0.925675	-0.968219	7.591601	0.187927	0.073853	0.013672	0.999257	-0.004627	-0.004840	0.037949	
59236	    0	19.521150	12.131606	1.135118	-0.458253	-1.265443	7.400922	0.190470	0.128451	0.012278	0.999292	-0.002291	-0.006326	0.036996	
59237	    0	20.608093	18.780318	-0.419855	0.135834	-1.371882	7.209107	0.199158	0.195068	-0.002686	0.999326	0.000679	-0.006858	0.036037	
59238	    0	22.959119	25.350868	-0.246145	0.776634	-1.274931	6.701069	0.220934	0.261012	-0.000031	0.999411	0.003882	-0.006373	0.033499	
59239	    0	21.988884	28.850243	1.846262	1.963550	-1.108729	5.789353	0.211304	0.294495	0.022522	0.999517	0.009816	-0.005543	0.028942	
59240	    0	21.553885	35.032673	4.029237	2.948153	-0.878628	4.319697	0.207721	0.354216	0.046419	0.999648	0.014739	-0.004393	0.021596	
59241	    0	19.258935	40.921393	2.352621	3.118556	-0.687459	2.758231	0.186829	0.411377	0.030579	0.999777	0.015592	-0.003437	0.013790	
59242	    0	12.311340	45.320917	-3.061737	2.877927	-0.569176	1.156092	0.120564	0.454286	-0.023740	0.999875	0.014389	-0.002846	0.005780	
59243	    0	9.719079	47.463225	-7.575533	2.311190	-0.527204	-0.373086	0.098267	0.475281	-0.070007	0.999928	0.011556	-0.002636	-0.001865	
59244	    0	8.253405	46.892625	-9.645657	1.726774	-0.640125	-1.917705	0.087330	0.468912	-0.092134	0.999911	0.008634	-0.003201	-0.009588	
59245	    0	15.250529	53.638929	-7.883805	1.334475	-0.476680	-3.866850	0.163025	0.533813	-0.074890	0.999787	0.006672	-0.002383	-0.019333	
59246	    0	26.238632	24.641103	-1.788661	0.588678	-0.266298	-5.309165	0.268826	0.239382	-0.016820	0.999642	0.002943	-0.001331	-0.026543	
59247	    0	30.736706	-6.096360	8.103771	2.775226	-0.420252	-5.295592	0.305420	-0.070190	0.080750	0.999551	0.013874	-0.002101	-0.026474	
59248	    0	24.790258	-17.135692	14.397673	3.818673	-1.214451	-5.481819	0.242167	-0.180773	0.142067	0.999423	0.019090	-0.006071	-0.027404	
59249	    0	9.998944	-13.550809	3.051622	5.089335	-2.193054	-5.495322	0.095886	-0.138916	0.028076	0.999238	0.025440	-0.010962	-0.027470	
59250	    0	2.002494	28.449191	-2.110961	4.621056	-1.873834	-5.569038	0.028097	0.284167	-0.014302	0.999301	0.023100	-0.009367	-0.027839	
59251	    0	7.421158	27.438315	-9.031726	2.985223	-2.123555	-4.452368	0.081238	0.273926	-0.085388	0.999584	0.014924	-0.010616	-0.022259	
59252	    0	-0.883821	16.026212	-6.745835	0.721217	-1.740764	-3.562596	-0.005395	0.160621	-0.066936	0.999797	0.003606	-0.008703	-0.017812	
59253	    0	3.549958	4.524508	-2.643305	-0.600265	-1.113933	-2.711588	0.036255	0.044678	-0.026367	0.999887	-0.003001	-0.005569	-0.013557	
59254	    0	13.235414	5.203659	0.032787	-0.880654	-0.703646	-2.694989	0.133038	0.050249	0.000571	0.999893	-0.004403	-0.003518	-0.013474	
59255	    0	17.572527	4.991418	-0.557075	-0.908694	-0.891718	-2.661229	0.176392	0.047546	-0.005005	0.999890	-0.004543	-0.004458	-0.013306	
59256	    0	16.593123	3.798659	-1.600129	-0.843647	-0.975449	-2.444345	0.166454	0.035889	-0.015345	0.999904	-0.004218	-0.004877	-0.012221	
59257	    0	13.735657	2.976048	-2.789602	-0.565354	-0.919940	-2.333896	0.137817	0.028076	-0.027344	0.999917	-0.002827	-0.004600	-0.011669	
59258	    0	14.023804	8.480426	-4.352259	-0.474177	-0.640120	-2.107283	0.141259	0.083217	-0.043270	0.999936	-0.002371	-0.003201	-0.010536	
59259	    0	11.430179	3.930052	-5.230891	-0.729381	-0.461394	-1.680781	0.114746	0.038147	-0.052185	0.999955	-0.003647	-0.002307	-0.008404	
59260	    0	9.772532	5.040542	-6.745732	-0.742156	-0.194551	-1.308454	0.098117	0.049514	-0.067547	0.999970	-0.003711	-0.000973	-0.006542	
59261	    0	10.901895	5.020176	-6.008574	-0.551418	-0.077057	-1.094062	0.109314	0.049438	-0.060181	0.999981	-0.002757	-0.000385	-0.005470	
59262	    0	14.597987	6.077213	-7.457630	-0.431253	0.129128	-0.920490	0.146209	0.059938	-0.074800	0.999987	-0.002156	0.000646	-0.004602	
59263	    0	15.632195	3.910873	-8.167057	-0.675776	0.216676	-0.720218	0.156372	0.038269	-0.081970	0.999987	-0.003379	0.001083	-0.003601	
59264	    0	18.100426	0.490633	-6.536310	-0.555422	0.345804	-0.659564	0.180905	0.004128	-0.065688	0.999989	-0.002777	0.001729	-0.003298	
59265	    0	20.668194	1.815162	-4.324281	-0.550082	0.396921	-0.793461	0.206665	0.017212	-0.043701	0.999986	-0.002750	0.001985	-0.003967	
59266	    0	20.536815	1.865842	-2.170797	-0.852781	0.369456	-0.798040	0.205400	0.017745	-0.022164	0.999981	-0.004264	0.001847	-0.003990	
59267	    0	19.653601	1.350989	-0.115538	-1.355569	0.350193	-0.943004	0.196594	0.012573	-0.001587	0.999964	-0.006778	0.001751	-0.004715	
59268	    0	19.602306	1.114549	1.321834	-1.850163	0.287824	-0.998706	0.196095	0.010286	0.012838	0.999943	-0.009251	0.001439	-0.004993	
59269	    0	19.015531	0.059445	2.718708	-2.265799	0.218969	-1.075773	0.190186	-0.000122	0.026978	0.999920	-0.011329	0.001095	-0.005379	
59270	    0	18.272774	-1.388198	4.093403	-2.765186	0.190170	-1.125759	0.182687	-0.014344	0.040956	0.999887	-0.013825	0.000951	-0.005629	
59271	    0	16.396787	-3.922047	5.369288	-3.604146	0.167856	-0.996457	0.163818	-0.039062	0.054260	0.999825	-0.018020	0.000839	-0.004982	
59272	    0	13.896623	-5.905531	4.519423	-4.351784	0.191323	-0.891187	0.138748	-0.058674	0.046341	0.999752	-0.021757	0.000957	-0.004456	
59273	    0	12.904441	-7.810731	3.983024	-4.602283	0.183885	-0.921716	0.128723	-0.077759	0.041504	0.999723	-0.023009	0.000919	-0.004608	
59274	    0	12.776683	-10.056838	2.226365	-3.945818	0.146876	-1.113970	0.127223	-0.100814	0.024158	0.999789	-0.019728	0.000734	-0.005569	
59275	    0	13.399434	-10.926625	1.256396	-2.516074	0.227364	-1.512964	0.133179	-0.110107	0.013794	0.999891	-0.012580	0.001137	-0.007565	
59276	    0	11.575777	-8.217977	-0.159356	-0.998518	0.227361	-2.009816	0.114923	-0.083344	-0.001310	0.999936	-0.004992	0.001137	-0.010049	
59277	    0	10.279682	-4.900362	-4.926559	-0.451481	0.080874	-2.420868	0.102173	-0.050354	-0.049194	0.999924	-0.002257	0.000404	-0.012104	
59278	    0	10.756953	-8.681520	-5.397129	0.072863	0.052645	-2.769940	0.106339	-0.088274	-0.054031	0.999904	0.000364	0.000263	-0.013849	
59279	    0	9.820684	-9.217284	-3.225741	0.662452	0.180825	-3.215935	0.096680	-0.093628	-0.032654	0.999865	0.003312	0.000904	-0.016079	
59280	    0	9.371582	-7.122792	-2.999633	1.515108	0.242249	-3.701267	0.092342	-0.072715	-0.030656	0.999799	0.007575	0.001211	-0.018505	
59281	    0	10.933647	-4.054008	-1.515173	2.192905	0.360334	-4.333161	0.108398	-0.042725	-0.015808	0.999703	0.010963	0.001801	-0.021664	
59282	    0	11.506087	0.417802	-0.354162	1.927787	0.444082	-4.854186	0.115109	0.001420	-0.003775	0.999656	0.009638	0.002220	-0.024268	
59283	    0	13.576406	6.223392	-0.910896	1.197369	0.415083	-4.868067	0.137207	0.058960	-0.009033	0.999683	0.005986	0.002075	-0.024338	
59284	    0	16.143049	6.059176	-3.287120	0.105104	0.391423	-4.644815	0.162715	0.056840	-0.033158	0.999728	0.000525	0.001957	-0.023222	
59285	    0	18.715819	1.307515	-3.587286	-0.609442	0.634811	-4.069050	0.187256	0.009155	-0.036499	0.999783	-0.003047	0.003174	-0.020344	
59286	    0	25.392659	-2.819028	-4.065158	-0.799226	1.039947	-3.515259	0.253161	-0.032810	-0.041844	0.999824	-0.003996	0.005199	-0.017575	
59287	    0	30.019621	-8.195964	-3.936606	-0.473045	0.829546	-3.248751	0.298645	-0.086914	-0.040405	0.999856	-0.002365	0.004148	-0.016243	
59288	    0	26.078069	-13.356833	-4.892404	-0.322357	0.295843	-3.306924	0.258451	-0.137934	-0.049088	0.999861	-0.001612	0.001479	-0.016534	
59289	    0	17.771943	-12.318668	-4.574481	-0.575279	0.235948	-3.013730	0.175781	-0.125977	-0.045593	0.999881	-0.002876	0.001180	-0.015068	
59290	    0	13.862625	-8.672739	-2.779449	-0.690098	0.343714	-2.451773	0.137501	-0.088513	-0.027728	0.999917	-0.003450	0.001719	-0.012259	
59291	    0	11.858800	-5.174210	-2.406627	-0.811783	0.329787	-1.926458	0.118042	-0.052979	-0.024048	0.999944	-0.004059	0.001649	-0.009632	
59292	    0	9.732193	-3.574091	-3.841018	-0.973140	0.298503	-1.227392	0.097042	-0.036524	-0.038379	0.999968	-0.004866	0.001493	-0.006137	
59293	    0	7.943463	-5.115707	-4.293576	-1.058775	0.307466	-0.327303	0.079285	-0.051514	-0.042786	0.999983	-0.005294	0.001537	-0.001637	
59294	    0	6.148808	-6.580089	-4.895256	-0.898365	0.240708	0.468256	0.061584	-0.065876	-0.048731	0.999986	-0.004492	0.001204	0.002341	
59295	    0	4.284925	-6.671282	-5.111027	-0.536160	0.151826	1.207742	0.043213	-0.066589	-0.050964	0.999977	-0.002681	0.000759	0.006039	
59296	    0	2.436181	-5.704048	-4.812278	-0.046731	0.073625	1.952584	0.024899	-0.056810	-0.048119	0.999951	-0.000234	0.000368	0.009763	
59297	    0	1.818213	-4.057185	-4.575453	0.405897	0.010872	2.767272	0.018738	-0.040222	-0.045837	0.999902	0.002029	0.000054	0.013836	
59298	    0	2.337732	-2.863341	-4.240138	0.643385	-0.035288	3.626456	0.023897	-0.028067	-0.042488	0.999830	0.003217	-0.000176	0.018131	
59299	    0	2.865791	-2.563510	-3.879848	0.765293	-0.104341	4.442210	0.029236	-0.024841	-0.038879	0.999745	0.003826	-0.000522	0.022209	
59300	    0	3.531182	-2.631023	-3.365110	0.774662	-0.132003	5.142601	0.035993	-0.025260	-0.033727	0.999661	0.003873	-0.000660	0.025710	
59301	    0	4.490945	-2.654030	-2.941627	0.690555	-0.108925	5.690782	0.045654	-0.025146	-0.029480	0.999589	0.003452	-0.000545	0.028450	
59302	    0	5.830831	-2.370986	-2.668483	0.566763	-0.090232	6.146262	0.059011	-0.021828	-0.026722	0.999523	0.002833	-0.000451	0.030726	
59303	    0	7.203807	-2.478435	-2.550265	0.435908	-0.111409	6.586890	0.072815	-0.022339	-0.025513	0.999454	0.002179	-0.000557	0.032928	
59304	    0	8.794968	-1.818634	-2.432540	0.176657	-0.140219	7.025448	0.088532	-0.015061	-0.024278	0.999382	0.000883	-0.000701	0.035120	
59305	    0	10.208002	-0.466066	-2.039245	-0.424864	-0.123625	7.416714	0.102173	-0.000916	-0.020325	0.999310	-0.002124	-0.000618	0.037075	
59306	    0	11.132167	-0.051436	-0.495576	-1.121805	-0.077458	7.715272	0.111234	0.003751	-0.004926	0.999240	-0.005608	-0.000387	0.038567	
59307	    0	11.764773	0.096375	-0.543746	-1.208060	-0.258516	7.968009	0.117493	0.005615	-0.005310	0.999187	-0.006039	-0.001292	0.039829	
59308	    0	13.362586	0.182451	-0.625590	-0.982555	-0.433660	8.055997	0.133422	0.007173	-0.005993	0.999174	-0.004911	-0.002168	0.040269	
59309	    0	16.299315	1.886867	0.622215	-0.757613	-0.488413	8.002345	0.162048	0.025391	0.006531	0.999189	-0.003787	-0.002441	0.040001	
59310	    0	17.943714	5.661653	2.038996	-0.499092	-0.568538	7.865854	0.176967	0.063662	0.020742	0.999219	-0.002495	-0.002842	0.039319	
59311	    0	18.416977	10.815856	1.871644	-0.129732	-0.643128	7.726698	0.179749	0.115173	0.019226	0.999248	-0.000648	-0.003215	0.038624	
59312	    0	19.861686	16.785551	-0.091557	0.304295	-0.694442	7.569231	0.192079	0.175209	0.000022	0.999274	0.001521	-0.003471	0.037837	
59313	    0	22.660426	22.615800	-1.770411	0.775312	-0.627080	7.095329	0.218445	0.234070	-0.016113	0.999358	0.003876	-0.003135	0.035469	
59314	    0	22.546834	25.790766	-1.845648	1.809824	-0.581654	6.253020	0.217305	0.264936	-0.015440	0.999466	0.009048	-0.002908	0.031260	
59315	    0	21.799695	31.319748	-0.991208	3.011730	-0.530887	4.815564	0.210388	0.318420	-0.004578	0.999593	0.015057	-0.002654	0.024075	
59316	    0	17.948615	40.677747	-1.994227	3.320608	-0.492712	3.172966	0.173038	0.409808	-0.012723	0.999733	0.016602	-0.002463	0.015863	
59317	    0	12.503952	44.847798	-5.964753	2.742129	-0.522447	1.764759	0.121216	0.450317	-0.053162	0.999864	0.013710	-0.002612	0.008823	
59318	    0	8.946937	45.707370	-9.652692	1.845581	-0.723660	0.285916	0.089153	0.458064	-0.091980	0.999949	0.009228	-0.003618	0.001430	
59319	    0	8.344533	45.294887	-8.282149	0.721747	-0.741393	-0.994119	0.085999	0.452820	-0.080872	0.999974	0.003609	-0.003707	-0.004971	
59320	    0	10.687819	46.397537	-6.334925	0.273522	-0.639935	-2.583199	0.113060	0.462627	-0.062361	0.999910	0.001368	-0.003200	-0.012916	
59321	    0	23.590401	38.820703	-11.008807	-0.585237	-0.558340	-4.987866	0.245789	0.381836	-0.110535	0.999681	-0.002926	-0.002791	-0.024937	
59322	    0	32.714154	10.048041	-9.172364	0.914522	-1.082394	-5.877055	0.330401	0.091215	-0.089510	0.999543	0.004572	-0.005411	-0.029381	
59323	    0	36.174320	-7.222009	14.934281	2.663855	-1.176453	-5.531449	0.358643	-0.084167	0.150391	0.999511	0.013317	-0.005881	-0.027653	
59324	    0	18.468664	-16.863136	7.703796	4.746281	-2.352536	-5.620255	0.178927	-0.175511	0.075054	0.999254	0.023726	-0.011760	-0.028094	
59325	    0	5.653071	16.316663	3.207359	4.613915	-2.148798	-5.969243	0.060974	0.160583	0.036438	0.999230	0.023064	-0.010741	-0.029839	
59326	    0	5.631173	25.580019	-3.132818	3.353895	-2.446983	-4.965314	0.062988	0.254761	-0.026306	0.999475	0.016767	-0.012233	-0.024822	
59327	    0	-0.284039	20.202456	-7.096471	0.141539	-2.156461	-4.241199	0.002209	0.202064	-0.070816	0.999715	0.000708	-0.010781	-0.021204	
59328	    0	-4.146901	1.124467	-5.911428	-0.843087	-1.320136	-2.920857	-0.040910	0.011595	-0.059434	0.999863	-0.004215	-0.006600	-0.014604	
59329	    0	9.814525	2.526050	-4.863459	-0.904882	-0.572799	-2.884788	0.098633	0.023621	-0.048462	0.999881	-0.004524	-0.002864	-0.014423	
59330	    0	19.995823	8.045315	-2.106285	-0.641273	-0.748088	-2.703951	0.201098	0.077673	-0.020564	0.999896	-0.003206	-0.003740	-0.013519	
59331	    0	17.748695	9.021990	-2.664007	-0.606554	-1.019125	-2.318639	0.178650	0.088074	-0.026001	0.999915	-0.003033	-0.005095	-0.011593	
59332	    0	11.978048	3.826717	-2.915712	-0.581945	-0.896473	-2.021261	0.120288	0.036969	-0.028728	0.999934	-0.002910	-0.004482	-0.010106	
59333	    0	13.591809	5.997457	-4.185342	-0.179866	-0.590525	-1.880676	0.136597	0.058655	-0.041504	0.999950	-0.000899	-0.002953	-0.009403	
59334	    0	12.707538	5.555649	-3.465186	-0.181963	-0.451284	-1.554316	0.127580	0.054535	-0.034414	0.999967	-0.000910	-0.002256	-0.007771	
59335	    0	9.584172	3.860474	-5.407633	-0.254060	-0.226404	-1.191719	0.096130	0.037964	-0.054016	0.999980	-0.001270	-0.001132	-0.005959	
59336	    0	10.950138	6.814083	-7.366705	-0.242043	0.002670	-0.930599	0.109816	0.067541	-0.073750	0.999988	-0.001210	0.000013	-0.004653	
59337	    0	13.289128	5.502536	-7.916093	-0.199891	0.103951	-0.756075	0.133057	0.054443	-0.079285	0.999991	-0.000999	0.000520	-0.003780	
59338	    0	15.976462	4.397138	-7.362378	-0.308991	0.270081	-0.560762	0.159787	0.043409	-0.073907	0.999993	-0.001545	0.001350	-0.002804	
59339	    0	18.207627	3.109533	-6.296458	-0.614931	0.391580	-0.354005	0.182007	0.030579	-0.063416	0.999991	-0.003075	0.001958	-0.001770	
59340	    0	20.807415	1.092778	-3.945706	-0.696566	0.447275	-0.448610	0.208009	0.010323	-0.039959	0.999989	-0.003483	0.002236	-0.002243	
59341	    0	20.725445	0.099806	-1.908372	-1.062782	0.428966	-0.510410	0.207214	0.000366	-0.019531	0.999980	-0.005314	0.002145	-0.002552	
59342	    0	20.048031	-0.288998	-0.089759	-1.430527	0.445943	-0.636299	0.200467	-0.003536	-0.001321	0.999967	-0.007153	0.002230	-0.003181	
59343	    0	19.904918	2.299249	0.928908	-1.954689	0.403793	-0.804917	0.199158	0.022278	0.008667	0.999942	-0.009773	0.002019	-0.004025	
59344	    0	19.008371	-0.089040	2.214091	-2.446817	0.326738	-0.874735	0.190114	-0.001453	0.021846	0.999914	-0.012234	0.001634	-0.004374	
59345	    0	17.478754	-3.141975	2.742009	-2.951740	0.273143	-0.900305	0.174683	-0.031799	0.027649	0.999880	-0.014758	0.001366	-0.004501	
59346	    0	15.809278	-3.454701	3.514141	-3.668051	0.302524	-0.901276	0.157990	-0.034610	0.035537	0.999820	-0.018339	0.001513	-0.004506	
59347	    0	12.685760	-5.013863	4.175380	-4.330606	0.268577	-0.824042	0.126709	-0.049744	0.042664	0.999756	-0.021651	0.001343	-0.004120	
59348	    0	10.760177	-6.998452	3.043464	-4.583775	0.274492	-0.830153	0.107355	-0.069711	0.031887	0.999727	-0.022917	0.001372	-0.004150	
59349	    0	10.468399	-8.742429	1.511425	-3.991220	0.264950	-1.044538	0.104248	-0.087646	0.016724	0.999785	-0.019955	0.001325	-0.005222	
59350	    0	11.176473	-8.813002	-0.544664	-2.613166	0.283061	-1.457078	0.111112	-0.089004	-0.004445	0.999887	-0.013065	0.001415	-0.007285	
59351	    0	11.164713	-6.902458	-0.500274	-1.001569	0.302893	-1.943246	0.110962	-0.070129	-0.004822	0.999939	-0.005008	0.001514	-0.009716	
59352	    0	9.309026	-2.099016	-4.010486	-0.562682	0.154690	-2.393783	0.092798	-0.022215	-0.040115	0.999924	-0.002813	0.000773	-0.011969	
59353	    0	10.686949	-6.428150	-3.961925	-0.223357	0.238044	-2.652056	0.105957	-0.065735	-0.039673	0.999910	-0.001117	0.001190	-0.013260	
59354	    0	9.427342	-7.430916	-3.134891	0.518057	0.316252	-3.099761	0.093058	-0.075676	-0.031692	0.999875	0.002590	0.001581	-0.015498	
59355	    0	9.175063	-5.887317	-3.018296	1.323018	0.267999	-3.585272	0.090637	-0.060303	-0.030701	0.999816	0.006615	0.001340	-0.017925	
59356	    0	9.650667	-3.923832	-2.209816	1.718093	0.236913	-4.140248	0.095643	-0.041032	-0.022559	0.999747	0.008590	0.001184	-0.020700	
59357	    0	10.968563	-2.197755	-1.307640	1.813881	0.251795	-4.566653	0.109131	-0.024353	-0.013428	0.999697	0.009068	0.001259	-0.022831	
59358	    0	12.523914	3.032432	-0.729592	1.632102	0.228143	-4.787957	0.125910	0.027374	-0.007208	0.999679	0.008160	0.001141	-0.023937	
59359	    0	14.220365	6.599600	-1.890760	0.556429	0.180835	-4.869568	0.143738	0.062561	-0.018860	0.999699	0.002782	0.000904	-0.024345	
59360	    0	16.167756	3.569189	-2.494744	-0.285745	0.392756	-4.472156	0.162372	0.032030	-0.025313	0.999746	-0.001429	0.001964	-0.022359	
59361	    0	21.681563	-1.300177	-3.501821	-0.853025	0.754027	-3.917966	0.216370	-0.017395	-0.035767	0.999791	-0.004265	0.003770	-0.019588	
59362	    0	27.663184	-6.855206	-3.226721	-0.923021	0.932177	-3.542729	0.275205	-0.073587	-0.033220	0.999821	-0.004615	0.004661	-0.017713	
59363	    0	27.884858	-11.363920	-4.243143	-0.758976	0.487545	-3.541762	0.276672	-0.118713	-0.042664	0.999832	-0.003795	0.002438	-0.017708	
59364	    0	20.502075	-11.007046	-4.391990	-0.655588	0.120932	-3.368543	0.203100	-0.113646	-0.043674	0.999852	-0.003278	0.000605	-0.016842	
59365	    0	15.079643	-8.537600	-4.558972	-0.732449	0.022317	-2.887833	0.149536	-0.087708	-0.045288	0.999888	-0.003662	0.000112	-0.014439	
59366	    0	13.196664	-5.799079	-3.358993	-1.022367	0.144200	-2.360028	0.131245	-0.059713	-0.033382	0.999917	-0.005112	0.000721	-0.011800	
59367	    0	11.654659	-3.501903	-2.642069	-1.143667	0.155070	-1.760897	0.116211	-0.036194	-0.026306	0.999944	-0.005718	0.000775	-0.008804	
59368	    0	9.562316	-4.638836	-2.348227	-1.145184	0.160028	-1.033221	0.095363	-0.047015	-0.023291	0.999969	-0.005726	0.000800	-0.005166	
59369	    0	6.911941	-5.974352	-2.330601	-0.927738	0.124550	-0.247956	0.069031	-0.059937	-0.023071	0.999988	-0.004639	0.000623	-0.001240	
59370	    0	4.822433	-6.240673	-3.211812	-0.591089	0.087166	0.451661	0.048351	-0.062392	-0.031955	0.999992	-0.002955	0.000436	0.002258	
59371	    0	2.928995	-5.769728	-3.494295	-0.140382	0.065041	1.123053	0.029602	-0.057556	-0.034912	0.999984	-0.000702	0.000325	0.005615	
59372	    0	1.914992	-4.080891	-3.752331	0.273899	0.025368	1.880674	0.019527	-0.040575	-0.037581	0.999954	0.001369	0.000127	0.009403	
59373	    0	1.818120	-2.726886	-3.868911	0.529497	-0.036432	2.710810	0.018555	-0.026917	-0.038757	0.999904	0.002647	-0.000182	0.013554	
59374	    0	1.827561	-2.385492	-3.595254	0.627933	-0.087743	3.546334	0.018709	-0.023413	-0.036018	0.999837	0.003139	-0.000439	0.017731	
59375	    0	2.107943	-2.688549	-3.324334	0.723323	-0.130282	4.274322	0.021667	-0.026306	-0.033325	0.999764	0.003616	-0.000651	0.021370	
59376	    0	3.156476	-2.567762	-3.140036	0.850956	-0.128187	4.898576	0.032199	-0.024760	-0.031487	0.999690	0.004254	-0.000641	0.024490	
59377	    0	4.437275	-2.270784	-2.990066	0.830946	-0.102819	5.453420	0.044983	-0.021362	-0.029968	0.999619	0.004154	-0.000514	0.027264	
59378	    0	5.663432	-2.258097	-2.859372	0.725663	-0.077068	5.922052	0.057279	-0.020787	-0.028649	0.999555	0.003628	-0.000385	0.029606	
59379	    0	6.859362	-2.650470	-2.503426	0.645556	-0.085273	6.343390	0.069397	-0.024231	-0.025085	0.999492	0.003227	-0.000426	0.031712	
59380	    0	8.208673	-2.605300	-2.353157	0.517562	-0.081268	6.715136	0.082908	-0.023217	-0.023561	0.999433	0.002587	-0.000406	0.033569	
59381	    0	9.769290	-1.313607	-2.205704	0.154146	-0.064673	7.095300	0.098083	-0.009644	-0.022034	0.999370	0.000771	-0.000323	0.035469	
59382	    0	11.353226	0.573303	-2.054251	-0.529604	-0.040445	7.467679	0.113218	0.009911	-0.020542	0.999299	-0.002647	-0.000202	0.037330	
59383	    0	12.332323	1.185443	-1.677319	-1.083468	-0.113708	7.869501	0.122742	0.016602	-0.016785	0.999210	-0.005416	-0.000568	0.039337	
59384	    0	13.552990	0.200932	-1.496620	-1.320642	-0.228375	8.148601	0.135318	0.007428	-0.014849	0.999147	-0.006601	-0.001142	0.040731	
59385	    0	15.867685	-1.029983	-0.823187	-1.180413	-0.329684	8.184861	0.158936	-0.003845	-0.007935	0.999144	-0.005900	-0.001648	0.040913	
59386	    0	18.827697	1.069843	-0.208221	-0.814848	-0.459222	7.975432	0.187655	0.018184	-0.001715	0.999193	-0.004073	-0.002295	0.039866	
59387	    0	20.403071	6.268885	-0.261855	-0.434794	-0.622715	7.722121	0.201416	0.070496	-0.002136	0.999247	-0.002173	-0.003113	0.038601	
59388	    0	21.515440	12.601301	-1.328969	-0.200319	-0.811006	7.497658	0.210283	0.133945	-0.012562	0.999289	-0.001001	-0.004054	0.037479	
59389	    0	23.150389	19.309935	-2.441159	-0.083179	-0.931562	7.179302	0.224487	0.201233	-0.023438	0.999345	-0.000416	-0.004657	0.035889	
59390	    0	22.858424	24.463493	-1.717992	0.351398	-1.014897	6.567068	0.220471	0.251992	-0.015609	0.999446	0.001757	-0.005074	0.032829	
59391	    0	20.992876	27.884639	-0.230214	1.593242	-0.943698	5.506145	0.202148	0.284485	0.000916	0.999578	0.007965	-0.004718	0.027527	
59392	    0	20.308594	34.970713	1.367111	2.502675	-0.827294	3.928932	0.196096	0.353391	0.018899	0.999720	0.012512	-0.004136	0.019643	
59393	    0	17.897323	39.944640	-0.983842	2.600426	-0.818678	2.304962	0.174377	0.401550	-0.003906	0.999840	0.013001	-0.004093	0.011524	
59394	    0	9.996495	44.126360	-3.743948	2.181297	-0.740069	0.716608	0.098508	0.441989	-0.032255	0.999927	0.010906	-0.003700	0.003583	
59395	    0	9.739295	44.679502	-4.780682	1.381891	-0.704964	-0.674447	0.099060	0.446777	-0.044373	0.999964	0.006909	-0.003525	-0.003372	
59396	    0	8.900748	48.439866	-2.921901	0.837919	-0.524915	-2.230509	0.094476	0.483481	-0.026949	0.999925	0.004189	-0.002625	-0.011152	
59397	    0	19.829982	49.467329	-9.181049	0.210019	-0.637116	-4.751280	0.210266	0.489868	-0.090637	0.999712	0.001050	-0.003185	-0.023754	
59398	    0	30.716153	30.778682	-17.802850	1.080142	-1.015280	-6.523777	0.317893	0.298483	-0.174804	0.999440	0.005400	-0.005075	-0.032613	
59399	    0	39.718233	-4.691684	21.718708	1.397132	0.033002	-5.529772	0.395691	-0.059387	0.216736	0.999593	0.006985	0.000165	-0.027645	
59400	    0	20.182249	-30.469836	12.999944	3.546997	-2.053836	-5.304567	0.192297	-0.312148	0.126514	0.999438	0.017732	-0.010267	-0.026518	
59401	    0	4.722980	2.746941	2.358830	4.883413	-2.074821	-6.234956	0.047791	0.025391	0.024719	0.999162	0.024410	-0.010371	-0.031166	
59402	    0	4.048660	28.669685	1.506139	4.053768	-2.120840	-5.382131	0.047970	0.285083	0.021334	0.999374	0.020265	-0.010602	-0.026905	
59403	    0	4.406787	21.298953	-5.581733	1.256137	-2.208969	-4.659818	0.049622	0.212219	-0.053955	0.999647	0.006280	-0.011044	-0.023296	
59404	    0	-9.790407	8.921167	-12.199281	-0.122267	-1.558761	-3.031115	-0.095583	0.090597	-0.122799	0.999854	-0.000611	-0.007793	-0.015155	
59405	    0	2.476285	5.501926	-6.692417	-0.690484	-0.756672	-2.710819	0.025757	0.054443	-0.067017	0.999894	-0.003452	-0.003783	-0.013554	
59406	    0	18.122996	6.342424	-2.905239	-0.941498	-0.514619	-2.579964	0.182101	0.060943	-0.028875	0.999902	-0.004707	-0.002573	-0.012899	
59407	    0	23.784256	6.767488	-1.253064	-0.725382	-0.830861	-2.103474	0.238586	0.065125	-0.011780	0.999929	-0.003627	-0.004154	-0.010517	
59408	    0	15.442762	1.061809	-2.386862	-0.553715	-0.890750	-1.964419	0.154626	0.009035	-0.023207	0.999938	-0.002769	-0.004454	-0.009822	
59409	    0	13.981493	6.628100	-4.092187	-0.117495	-0.530061	-1.962314	0.140564	0.064880	-0.040588	0.999948	-0.000587	-0.002650	-0.009811	
59410	    0	14.041475	5.772089	-3.542452	-0.252345	-0.374798	-1.628704	0.140944	0.056530	-0.035233	0.999964	-0.001262	-0.001874	-0.008143	
59411	    0	11.202794	4.784907	-6.728663	-0.438503	-0.122071	-1.255045	0.112366	0.046997	-0.067322	0.999977	-0.002192	-0.000610	-0.006275	
59412	    0	11.098020	4.174375	-7.503062	-0.426867	0.065804	-0.987821	0.111159	0.041035	-0.075155	0.999985	-0.002134	0.000329	-0.004939	
59413	    0	13.678352	3.794501	-8.513202	-0.224305	0.223733	-0.814059	0.136841	0.037292	-0.085327	0.999990	-0.001122	0.001119	-0.004070	
59414	    0	18.244040	5.864640	-8.440692	-0.522806	0.388528	-0.653269	0.182466	0.057829	-0.084913	0.999989	-0.002614	0.001943	-0.003266	
59415	    0	21.796736	0.326084	-5.965894	-0.588229	0.471689	-0.646212	0.217834	0.002380	-0.060181	0.999988	-0.002941	0.002358	-0.003231	
59416	    0	20.941978	0.178591	-4.423162	-0.918394	0.470355	-0.723462	0.209319	0.000824	-0.044729	0.999980	-0.004592	0.002352	-0.003617	
59417	    0	21.983561	0.027289	-1.932348	-1.345078	0.469404	-0.849924	0.219788	-0.000793	-0.019836	0.999965	-0.006725	0.002347	-0.004250	
59418	    0	21.327131	0.429709	0.199269	-1.939622	0.353057	-0.985738	0.213292	0.003263	0.001581	0.999939	-0.009698	0.001765	-0.004929	
59419	    0	20.392761	-1.932584	2.767266	-2.382728	0.255020	-1.063568	0.203857	-0.020081	0.027649	0.999913	-0.011913	0.001275	-0.005318	
59420	    0	18.237209	-2.912693	4.740060	-2.527125	0.184256	-1.038965	0.182263	-0.029473	0.047604	0.999906	-0.012635	0.000921	-0.005195	
59421	    0	16.623077	-1.627289	5.812556	-3.099198	0.180252	-1.039933	0.166199	-0.016235	0.058228	0.999866	-0.015495	0.000901	-0.005199	
59422	    0	14.301247	-5.285900	6.048184	-3.925399	0.177968	-0.924364	0.142824	-0.052320	0.061385	0.999796	-0.019626	0.000890	-0.004622	
59423	    0	10.736706	-8.647656	4.241681	-4.150700	0.142871	-0.795042	0.107056	-0.085999	0.044128	0.999776	-0.020752	0.000714	-0.003975	
59424	    0	9.685441	-8.650432	2.423600	-3.609485	0.142678	-0.926262	0.096472	-0.086496	0.025728	0.999825	-0.018046	0.000713	-0.004631	
59425	    0	11.836515	-7.998801	0.948476	-2.358126	0.199896	-1.284066	0.117859	-0.080627	0.010315	0.999908	-0.011790	0.000999	-0.006420	
59426	    0	11.064508	-5.971088	-0.951762	-1.074809	0.173381	-1.709967	0.110121	-0.060704	-0.009289	0.999949	-0.005374	0.000867	-0.008550	
59427	    0	9.488796	-3.166817	-4.954586	-0.764290	0.035096	-2.069897	0.094543	-0.032837	-0.049438	0.999939	-0.003821	0.000175	-0.010349	
59428	    0	9.854065	-6.788091	-4.529413	-0.281722	-0.032807	-2.401601	0.097723	-0.069121	-0.045181	0.999927	-0.001409	-0.000164	-0.012008	
59429	    0	8.152401	-7.027424	-2.771349	0.130658	0.027467	-2.857306	0.080505	-0.071411	-0.027771	0.999897	0.000653	0.000137	-0.014286	
59430	    0	8.359705	-6.553652	-2.259115	0.769273	0.127990	-3.396015	0.082455	-0.066855	-0.022900	0.999847	0.003846	0.000640	-0.016979	
59431	    0	9.673668	-4.266136	-1.152700	1.145258	0.256558	-4.081270	0.095825	-0.044556	-0.011902	0.999774	0.005726	0.001283	-0.020405	
59432	    0	10.165722	0.799720	-0.520748	0.648557	0.411452	-4.586442	0.101794	0.005681	-0.005396	0.999729	0.003242	0.002057	-0.022930	
59433	    0	12.572029	5.738646	-1.860468	-0.214978	0.502059	-4.619252	0.126953	0.054443	-0.018982	0.999729	-0.001075	0.002510	-0.023094	
59434	    0	15.089197	5.289209	-4.098031	-1.377992	0.459712	-4.406561	0.151909	0.049267	-0.041677	0.999730	-0.006889	0.002298	-0.022031	
59435	    0	16.554099	-0.525385	-3.756434	-1.991243	0.575303	-3.893596	0.165283	-0.008850	-0.037964	0.999756	-0.009955	0.002876	-0.019466	
59436	    0	19.975743	-4.604027	-4.897113	-1.936287	0.829374	-3.543151	0.198690	-0.050043	-0.049325	0.999787	-0.009681	0.004147	-0.017715	
59437	    0	26.096900	-10.603669	-4.446754	-1.374135	1.209521	-3.273965	0.258911	-0.110596	-0.045288	0.999824	-0.006870	0.006047	-0.016369	
59438	    0	28.827241	-16.223682	-3.068737	-0.336854	0.959061	-3.250661	0.285434	-0.166945	-0.031782	0.999854	-0.001684	0.004795	-0.016253	
59439	    0	22.565866	-15.129605	-4.270418	0.317398	0.509095	-3.286896	0.223022	-0.154907	-0.043518	0.999860	0.001587	0.002545	-0.016434	
59440	    0	16.413736	-10.050105	-3.480934	0.430314	0.390067	-2.913391	0.162582	-0.102801	-0.035347	0.999889	0.002151	0.001950	-0.014566	
59441	    0	13.939204	-5.955254	-2.429352	0.150494	0.371561	-2.425446	0.138611	-0.061218	-0.024597	0.999924	0.000752	0.001858	-0.012127	
59442	    0	11.967797	-3.186733	-2.465212	-0.285153	0.386625	-1.808574	0.119335	-0.032983	-0.024837	0.999956	-0.001426	0.001933	-0.009043	
59443	    0	9.732420	-3.079098	-3.556040	-0.642208	0.379183	-0.960547	0.097107	-0.031372	-0.035645	0.999981	-0.003211	0.001896	-0.004803	
59444	    0	7.539527	-4.674722	-4.779195	-0.681306	0.258065	-0.069428	0.075317	-0.046936	-0.047729	0.999992	-0.003407	0.001290	-0.000347	
59445	    0	5.787033	-6.165388	-5.897218	-0.395585	0.121498	0.693895	0.058048	-0.061569	-0.058886	0.999990	-0.001978	0.000607	0.003469	
59446	    0	4.261656	-5.674076	-6.052697	0.007057	-0.014305	1.382267	0.043012	-0.056442	-0.060526	0.999975	0.000035	-0.000072	0.006911	
59447	    0	3.402739	-4.595672	-5.436373	0.437936	-0.118067	2.131695	0.034546	-0.045471	-0.054443	0.999940	0.002190	-0.000590	0.010658	
59448	    0	3.506326	-3.283460	-4.407363	0.726156	-0.203713	2.965280	0.035588	-0.032149	-0.044155	0.999883	0.003631	-0.001019	0.014826	
59449	    0	3.733077	-1.836320	-3.508271	0.792743	-0.308819	3.761525	0.037720	-0.017517	-0.035095	0.999814	0.003963	-0.001544	0.018806	
59450	    0	3.749829	-1.034778	-3.378236	0.683462	-0.390468	4.481130	0.037782	-0.009388	-0.033742	0.999741	0.003417	-0.001952	0.022404	
59451	    0	4.173152	-1.574451	-2.989057	0.514469	-0.394484	5.140498	0.042175	-0.014587	-0.029846	0.999664	0.002572	-0.001972	0.025700	
59452	    0	5.294232	-2.763248	-2.620181	0.362255	-0.371220	5.681236	0.053746	-0.026066	-0.026151	0.999593	0.001811	-0.001856	0.028402	
59453	    0	6.631803	-3.111961	-1.900739	0.264781	-0.375997	6.099126	0.067261	-0.029053	-0.018921	0.999532	0.001324	-0.001880	0.030491	
59454	    0	7.788730	-2.651843	-1.320639	0.093667	-0.403856	6.448342	0.078714	-0.023983	-0.013060	0.999477	0.000468	-0.002019	0.032236	
59455	    0	9.020508	-1.765590	-1.107430	-0.144796	-0.438775	6.792236	0.090759	-0.014587	-0.010864	0.999420	-0.000724	-0.002193	0.033955	
59456	    0	10.477049	-0.546493	-0.702543	-0.646349	-0.401202	7.138450	0.104891	-0.001744	-0.006805	0.999355	-0.003231	-0.002006	0.035685	
59457	    0	11.458227	0.235572	0.435302	-1.208021	-0.340925	7.461038	0.114380	0.006653	0.004517	0.999284	-0.006039	-0.001704	0.037296	
59458	    0	11.867920	0.650925	0.339850	-1.257268	-0.493749	7.757092	0.118299	0.011126	0.003631	0.999225	-0.006285	-0.002468	0.038775	
59459	    0	13.334900	-0.059048	-0.169126	-0.943050	-0.634932	7.855761	0.133240	0.004639	-0.001282	0.999212	-0.004714	-0.003174	0.039268	
59460	    0	16.526034	1.610125	0.886471	-0.595814	-0.683384	7.703614	0.164445	0.022474	0.009367	0.999248	-0.002978	-0.003416	0.038508	
59461	    0	17.612741	7.660680	1.534088	-0.125915	-0.805663	7.482387	0.173035	0.083130	0.015991	0.999291	-0.000629	-0.004027	0.037403	
59462	    0	17.681632	13.555282	0.869543	0.354468	-0.887125	7.433533	0.171576	0.141979	0.009712	0.999297	0.001772	-0.004435	0.037159	
59463	    0	19.447609	19.652300	-1.365688	0.783714	-0.826257	7.230465	0.187256	0.203430	-0.012085	0.999330	0.003918	-0.004130	0.036144	
59464	    0	21.458036	25.042971	-1.701990	1.277407	-0.730846	6.636562	0.206170	0.257463	-0.014627	0.999422	0.006386	-0.003654	0.033176	
59465	    0	20.948113	27.786123	-1.072369	2.417374	-0.710981	5.614594	0.201599	0.283691	-0.006592	0.999526	0.012085	-0.003554	0.028069	
59466	    0	19.674279	34.185655	-0.263966	3.369542	-0.651628	4.097282	0.189680	0.345763	0.003790	0.999642	0.016846	-0.003258	0.020484	
59467	    0	18.173773	40.705520	-2.100137	3.326662	-0.663616	2.492707	0.176697	0.409546	-0.013611	0.999778	0.016632	-0.003318	0.012463	
59468	    0	10.168578	45.806443	-5.699036	2.672100	-0.690485	0.965153	0.099653	0.459252	-0.050513	0.999892	0.013360	-0.003452	0.004826	
59469	    0	9.718702	44.682305	-7.315773	1.635956	-0.710307	-0.398260	0.098328	0.447205	-0.069153	0.999958	0.008180	-0.003551	-0.001991	
59470	    0	9.861010	54.041178	-8.633487	1.245725	-0.623149	-2.209917	0.104838	0.539799	-0.082651	0.999914	0.006228	-0.003116	-0.011049	
59471	    0	22.461675	85.982350	-27.036346	1.822197	-1.596902	-5.774869	0.251465	0.855225	-0.260620	0.999509	0.009109	-0.007983	-0.028870	
59472	    0	49.798895	34.823730	4.139831	0.187155	0.653229	-7.454896	0.510633	0.329320	0.040058	0.999299	0.000936	0.003265	-0.037266	
59473	    0	33.908810	-31.457878	30.817337	0.312838	-1.398424	-4.809312	0.329224	-0.323059	0.309998	0.999684	0.001564	-0.006991	-0.024044	
59474	    0	12.725629	-36.945425	7.273406	3.687076	-2.304732	-5.427310	0.116351	-0.373984	0.067249	0.999395	0.018432	-0.011521	-0.027131	
59475	    0	0.676138	13.195598	7.773494	4.409515	-1.595568	-6.789799	0.010559	0.129883	0.080688	0.999148	0.022041	-0.007976	-0.033939	
59476	    0	6.570793	28.501357	-4.637839	3.327400	-2.035700	-5.316171	0.073699	0.283836	-0.040926	0.999456	0.016634	-0.010177	-0.026576	
59477	    0	-3.395040	16.398089	-10.833274	1.511738	-2.185296	-4.362199	-0.029175	0.165466	-0.107422	0.999674	0.007558	-0.010925	-0.021809	
59478	    0	-12.828337	9.836530	-10.534978	-0.469225	-1.223419	-2.704722	-0.126291	0.099833	-0.106359	0.999887	-0.002346	-0.006117	-0.013523	
59479	    0	5.703782	6.179476	-5.835695	-0.635358	-0.698875	-2.624597	0.058044	0.060852	-0.058350	0.999903	-0.003177	-0.003494	-0.013123	
59480	    0	24.134130	7.464801	-2.268194	-1.028853	-0.555626	-2.334852	0.242252	0.071708	-0.022384	0.999914	-0.005144	-0.002778	-0.011674	
59481	    0	22.599022	3.152762	-1.940275	-0.592817	-0.990126	-1.976819	0.226379	0.029236	-0.018372	0.999934	-0.002964	-0.004951	-0.009884	
59482	    0	13.839194	2.896267	-4.209739	-0.233655	-0.806635	-2.079817	0.138851	0.027472	-0.041571	0.999937	-0.001168	-0.004033	-0.010399	
59483	    0	14.323520	9.334492	-3.407232	-0.141718	-0.535593	-1.948581	0.144226	0.091919	-0.033752	0.999949	-0.000709	-0.002678	-0.009743	
59484	    0	12.640741	4.169311	-3.506990	-0.246051	-0.399594	-1.539438	0.126793	0.040675	-0.034867	0.999968	-0.001230	-0.001998	-0.007697	
59485	    0	11.063039	6.688562	-5.978526	-0.281527	-0.115777	-1.262674	0.111084	0.066101	-0.059814	0.999978	-0.001408	-0.000579	-0.006313	
59486	    0	11.797909	5.231621	-7.382950	-0.228501	0.033951	-1.015477	0.118230	0.051632	-0.073909	0.999986	-0.001143	0.000170	-0.005077	
59487	    0	14.354882	5.021214	-7.451869	-0.104523	0.226022	-0.852969	0.143677	0.049561	-0.074707	0.999990	-0.000523	0.001130	-0.004265	
59488	    0	18.804328	4.664255	-6.858878	-0.287820	0.417711	-0.720408	0.188066	0.045866	-0.069048	0.999990	-0.001439	0.002089	-0.003602	
59489	    0	20.307039	1.397169	-4.709531	-0.276185	0.486185	-0.711825	0.203003	0.013184	-0.047607	0.999990	-0.001381	0.002431	-0.003559	
59490	    0	21.003978	1.068132	-4.021793	-0.469591	0.498201	-0.703242	0.209974	0.009848	-0.040765	0.999988	-0.002348	0.002491	-0.003516	
59491	    0	21.064619	1.118768	-2.107194	-0.839048	0.523380	-0.801092	0.210632	0.010254	-0.021667	0.999979	-0.004195	0.002617	-0.004005	
59492	    0	20.524225	1.393964	-0.121799	-1.606775	0.476272	-0.886549	0.205297	0.013017	-0.001814	0.999954	-0.008034	0.002381	-0.004433	
59493	    0	19.124043	-1.160799	2.145827	-2.205521	0.366983	-0.936150	0.191223	-0.012268	0.021240	0.999926	-0.011027	0.001835	-0.004681	
59494	    0	18.270872	-0.595325	3.594004	-2.524836	0.309572	-0.979645	0.182734	-0.006396	0.035736	0.999907	-0.012624	0.001548	-0.004898	
59495	    0	17.694693	-1.592902	5.124913	-3.095189	0.255596	-0.898019	0.176941	-0.015930	0.051270	0.999868	-0.015475	0.001278	-0.004490	
59496	    0	14.109694	-3.826188	5.408965	-4.154706	0.190749	-0.772534	0.141003	-0.037674	0.054742	0.999776	-0.020772	0.000954	-0.003862	
59497	    0	10.979431	-6.516338	4.159063	-4.715221	0.158706	-0.645508	0.109619	-0.064514	0.043030	0.999716	-0.023574	0.000793	-0.003227	
59498	    0	9.876099	-7.669908	2.269280	-4.185229	0.058942	-0.768529	0.098474	-0.076581	0.024267	0.999773	-0.020925	0.000295	-0.003842	
59499	    0	11.637265	-8.484858	0.635484	-2.838054	0.097660	-1.104016	0.115906	-0.085388	0.007507	0.999884	-0.014190	0.000488	-0.005520	
59500	    0	11.724450	-8.099366	-0.638856	-1.309988	0.172236	-1.470971	0.116639	-0.081893	-0.005955	0.999950	-0.006550	0.000861	-0.007355	
59501	    0	10.403109	-3.309133	-5.348836	-0.675022	0.061036	-1.866944	0.103699	-0.034241	-0.053406	0.999950	-0.003375	0.000305	-0.009335	
59502	    0	10.935626	-4.759538	-5.374836	-0.017166	-0.010300	-2.246522	0.108815	-0.048824	-0.053739	0.999936	-0.000086	-0.000051	-0.011232	
59503	    0	8.616140	-4.856901	-3.461486	0.508133	-0.025750	-2.661214	0.085510	-0.049622	-0.034729	0.999907	0.002541	-0.000129	-0.013306	
59504	    0	8.234186	-4.428427	-2.801246	0.861207	0.051882	-3.203157	0.081613	-0.045474	-0.028228	0.999862	0.004306	0.000259	-0.016015	
59505	    0	9.764735	-3.469959	-1.041910	1.102716	0.257129	-3.950015	0.096924	-0.036560	-0.010742	0.999788	0.005513	0.001286	-0.019749	
59506	    0	10.520717	0.573894	-0.100371	0.950709	0.426140	-4.544670	0.105299	0.003352	-0.001208	0.999728	0.004753	0.002131	-0.022721	
59507	    0	13.477840	6.174111	-0.988743	0.229667	0.461050	-4.745171	0.136169	0.058533	-0.010132	0.999715	0.001148	0.002305	-0.023724	
59508	    0	16.505142	4.226082	-2.598532	-0.845991	0.532965	-4.716185	0.165915	0.038243	-0.026594	0.999709	-0.004230	0.002665	-0.023579	
59509	    0	17.978178	-0.686145	-2.072169	-1.481762	0.656378	-4.351435	0.179504	-0.010925	-0.021240	0.999730	-0.007408	0.003282	-0.021755	
59510	    0	21.446897	-4.435487	-2.477814	-1.611082	0.944598	-4.081115	0.213383	-0.048920	-0.025406	0.999747	-0.008055	0.004723	-0.020404	
59511	    0	26.445146	-7.591678	-3.297263	-1.224420	1.147548	-3.931726	0.262695	-0.081299	-0.033997	0.999771	-0.006122	0.005737	-0.019657	
59512	    0	29.426084	-11.561001	-4.015613	-0.555838	0.905477	-3.809796	0.291801	-0.121298	-0.041149	0.999804	-0.002779	0.004527	-0.019048	
59513	    0	24.476870	-14.715400	-5.041718	-0.038912	0.474768	-3.763806	0.241821	-0.151733	-0.050964	0.999820	-0.000195	0.002374	-0.018818	
59514	    0	17.209860	-11.022776	-4.601579	0.156601	0.310342	-3.493870	0.170067	-0.113174	-0.046369	0.999846	0.000783	0.001552	-0.017468	
59515	    0	14.191260	-6.160153	-3.151164	-0.022126	0.244341	-2.995413	0.140930	-0.063721	-0.031677	0.999887	-0.000111	0.001222	-0.014977	
59516	    0	12.164364	-3.007607	-2.311636	-0.449955	0.271995	-2.420487	0.121236	-0.031597	-0.023211	0.999923	-0.002250	0.001360	-0.012102	
59517	    0	9.726146	-2.820853	-2.309902	-0.779736	0.300030	-1.679254	0.096985	-0.029114	-0.023132	0.999955	-0.003899	0.001500	-0.008396	
59518	    0	7.561320	-5.071717	-3.581172	-0.823979	0.270463	-0.727467	0.075379	-0.051139	-0.035704	0.999984	-0.004120	0.001352	-0.003637	
59519	    0	5.635704	-7.287852	-4.963049	-0.476647	0.151825	0.211334	0.056396	-0.072937	-0.049500	0.999996	-0.002383	0.000759	0.001057	
59520	    0	3.634045	-6.776487	-5.499756	0.049210	0.007439	1.019292	0.036683	-0.067565	-0.055016	0.999987	0.000246	0.000037	0.005096	
59521	    0	1.774009	-4.567455	-5.792884	0.552377	-0.110437	1.831846	0.018188	-0.045349	-0.058044	0.999953	0.002762	-0.000552	0.009159	
59522	    0	1.642187	-3.171524	-5.288108	0.901826	-0.151830	2.728556	0.016891	-0.031248	-0.053010	0.999896	0.004509	-0.000759	0.013642	
59523	    0	2.351384	-1.732051	-4.314868	1.051584	-0.206769	3.627993	0.023865	-0.016663	-0.043213	0.999821	0.005258	-0.001034	0.018139	
59524	    0	2.672889	-1.369655	-3.615008	1.026816	-0.254844	4.465495	0.027069	-0.012909	-0.036183	0.999736	0.005134	-0.001274	0.022326	
59525	    0	3.247376	-2.016369	-3.138430	0.927270	-0.253325	5.194696	0.033020	-0.019165	-0.031433	0.999651	0.004636	-0.001266	0.025970	
59526	    0	4.669473	-2.731578	-2.735979	0.825429	-0.192861	5.819969	0.047487	-0.025828	-0.027423	0.999567	0.004127	-0.000964	0.029096	
59527	    0	6.406552	-3.636376	-2.128708	0.652614	-0.119802	6.335758	0.065186	-0.034241	-0.021362	0.999493	0.003263	-0.000599	0.031673	
59528	    0	7.995476	-3.287427	-1.415083	0.507642	-0.070585	6.728113	0.081004	-0.030125	-0.014201	0.999431	0.002538	-0.000353	0.033634	
59529	    0	9.315102	-2.249057	-0.965322	0.291504	-0.083750	7.072399	0.093872	-0.019165	-0.009644	0.999373	0.001457	-0.000419	0.035355	
59530	    0	10.675565	-0.916927	-1.437027	-0.086805	-0.111224	7.480649	0.107007	-0.005176	-0.014308	0.999300	-0.000434	-0.000556	0.037395	
59531	    0	12.268050	0.461769	-1.324216	-0.874559	-0.051703	7.901556	0.122375	0.009399	-0.013245	0.999209	-0.004372	-0.000258	0.039497	
59532	    0	13.017227	0.802249	-0.126181	-1.609514	-0.070402	8.258776	0.129694	0.013375	-0.001309	0.999115	-0.008045	-0.000352	0.041282	
59533	    0	13.665330	0.316715	0.172655	-1.762179	-0.244026	8.483491	0.136353	0.008972	0.001831	0.999061	-0.008808	-0.001220	0.042404	
59534	    0	15.650644	0.078175	0.202607	-1.518331	-0.409442	8.406340	0.156284	0.007372	0.002307	0.999085	-0.007589	-0.002047	0.042019	
59535	    0	18.659950	2.307219	0.838771	-1.113254	-0.600604	8.157376	0.185425	0.030701	0.008789	0.999147	-0.005565	-0.003002	0.040775	
59536	    0	19.788615	6.429134	1.235121	-0.689117	-0.825911	7.913022	0.195084	0.072092	0.012921	0.999203	-0.003445	-0.004128	0.039555	
59537	    0	19.987168	12.508104	0.107001	-0.251643	-1.065335	7.741229	0.194824	0.132690	0.001953	0.999235	-0.001258	-0.005325	0.038696	
59538	    0	21.720502	18.831827	-2.029547	0.229317	-1.146586	7.422858	0.210130	0.196228	-0.018855	0.999293	0.001146	-0.005732	0.037106	
59539	    0	22.458433	25.067728	-1.701668	1.080540	-1.124609	6.778558	0.216003	0.258179	-0.014404	0.999394	0.005402	-0.005622	0.033886	
59540	    0	20.547317	29.280722	0.697668	2.734461	-1.033769	5.699369	0.196969	0.298360	0.012064	0.999487	0.013670	-0.005168	0.028492	
59541	    0	20.098818	37.202667	2.534202	3.639125	-0.884362	4.166194	0.193054	0.375549	0.033020	0.999607	0.018193	-0.004421	0.020828	
59542	    0	16.477600	42.874038	-0.010400	3.303593	-0.754796	2.666871	0.159021	0.430803	0.007608	0.999767	0.016517	-0.003774	0.013333	
59543	    0	10.504378	43.137618	-5.051675	2.600955	-0.658250	1.229903	0.102539	0.432617	-0.044556	0.999890	0.013004	-0.003291	0.006149	
59544	    0	6.503835	43.812181	-7.390959	1.792172	-0.608263	-0.101091	0.065476	0.438726	-0.069781	0.999954	0.008961	-0.003041	-0.000505	
59545	    0	7.840793	41.817182	-8.280798	0.864422	-0.776492	-1.377887	0.081604	0.417969	-0.080688	0.999959	0.004322	-0.003882	-0.006889	
59546	    0	9.859064	35.170214	-5.858901	0.116352	-0.661489	-2.623257	0.103385	0.350401	-0.058048	0.999907	0.000582	-0.003307	-0.013116	
59547	    0	17.166304	25.051595	-17.032141	-0.156417	-1.020717	-4.595609	0.178223	0.246338	-0.169617	0.999722	-0.000782	-0.005103	-0.022976	
59548	    0	36.261154	14.986711	-13.234388	1.290928	-0.483025	-6.323392	0.367441	0.139146	-0.130539	0.999476	0.006454	-0.002415	-0.031611	
59549	    0	50.976569	7.085996	25.686012	2.610513	-0.124192	-6.232876	0.511414	0.051575	0.257935	0.999429	0.013050	-0.000621	-0.031158	
59550	    0	19.570856	-11.366117	11.775175	4.116635	-2.424804	-5.747034	0.190863	-0.121615	0.117637	0.999301	0.020578	-0.012121	-0.028728	
59551	    0	7.574806	-1.777356	6.697953	4.657369	-1.684796	-5.892873	0.074585	-0.021545	0.067139	0.999259	0.023281	-0.008422	-0.029457	
59552	    0	4.963033	26.032048	2.368630	4.313315	-2.657547	-5.428226	0.056289	0.258251	0.029990	0.999310	0.021562	-0.013285	-0.027135	
59553	    0	1.137457	22.115462	-6.590426	0.566157	-2.043927	-4.400309	0.016907	0.221008	-0.065125	0.999701	0.002831	-0.010219	-0.021999	
59554	    0	-3.687859	6.539407	-7.172772	-0.642998	-1.509739	-2.979422	-0.035357	0.065697	-0.072209	0.999855	-0.003215	-0.007548	-0.014896	
59555	    0	4.355604	0.974916	-7.399447	-1.130722	-0.881040	-2.751270	0.044006	0.008728	-0.073853	0.999879	-0.005653	-0.004405	-0.013756	
59556	    0	16.072091	6.437593	-2.722937	-0.456824	-0.839259	-2.540285	0.161633	0.062265	-0.026696	0.999907	-0.002284	-0.004196	-0.012701	
59557	    0	17.842476	9.948775	-1.723141	-0.481427	-1.103047	-2.135521	0.179565	0.097534	-0.016479	0.999925	-0.002407	-0.005515	-0.010677	
59558	    0	14.175033	4.927045	-3.664295	-0.671972	-1.013394	-1.752314	0.142358	0.047903	-0.036085	0.999943	-0.003360	-0.005067	-0.008761	
59559	    0	12.998159	3.924493	-5.343745	-0.148775	-0.748263	-1.624320	0.130493	0.038147	-0.052979	0.999959	-0.000744	-0.003741	-0.008121	
59560	    0	12.829301	5.579648	-3.954103	-0.082589	-0.536351	-1.380361	0.128779	0.054893	-0.039219	0.999972	-0.000413	-0.002682	-0.006902	
59561	    0	10.567907	4.121592	-4.670478	-0.226594	-0.342371	-0.970463	0.105957	0.040649	-0.046570	0.999986	-0.001133	-0.001712	-0.004852	
59562	    0	11.031111	6.486667	-7.507500	-0.284196	-0.072479	-0.729753	0.110574	0.064357	-0.075127	0.999991	-0.001421	-0.000362	-0.003649	
59563	    0	12.548706	5.152441	-7.357495	-0.228119	0.057411	-0.563813	0.125610	0.051086	-0.073669	0.999995	-0.001141	0.000287	-0.002819	
59564	    0	15.848317	3.574440	-7.676723	-0.238800	0.213433	-0.432587	0.158478	0.035310	-0.076979	0.999996	-0.001194	0.001067	-0.002163	
59565	    0	17.458986	3.605961	-7.776596	-0.684359	0.341226	-0.239564	0.174500	0.035583	-0.078186	0.999991	-0.003422	0.001706	-0.001198	
59566	    0	20.132806	0.780277	-5.570621	-0.944333	0.409510	-0.320818	0.201225	0.007215	-0.056153	0.999985	-0.004722	0.002048	-0.001604	
59567	    0	19.844573	-0.635501	-3.499615	-1.361096	0.392345	-0.366214	0.198364	-0.006958	-0.035339	0.999972	-0.006805	0.001962	-0.001831	
59568	    0	20.671161	0.122826	-0.766648	-1.745441	0.412375	-0.572213	0.206697	0.000567	-0.008100	0.999955	-0.008727	0.002062	-0.002861	
59569	    0	19.667198	0.686057	1.228696	-2.242905	0.318153	-0.782795	0.196716	0.006226	0.011902	0.999928	-0.011214	0.001591	-0.003914	
59570	    0	18.575442	-0.026328	2.596360	-2.648059	0.215728	-0.909263	0.185780	-0.000766	0.025771	0.999901	-0.013240	0.001079	-0.004546	
59571	    0	17.383869	-3.529641	3.947758	-2.906149	0.157362	-0.924719	0.173706	-0.035522	0.039856	0.999883	-0.014530	0.000787	-0.004623	
59572	    0	15.517597	-5.377410	4.613094	-3.416241	0.193606	-0.962308	0.154963	-0.053723	0.046899	0.999842	-0.017080	0.000968	-0.004811	
59573	    0	12.787400	-6.495295	4.612391	-3.931505	0.243394	-0.946873	0.127625	-0.064636	0.047241	0.999794	-0.019656	0.001217	-0.004734	
59574	    0	10.528670	-6.799639	4.177082	-4.211371	0.216310	-0.922275	0.105021	-0.067583	0.043083	0.999766	-0.021055	0.001081	-0.004611	
59575	    0	10.144960	-8.004767	2.971272	-3.917199	0.178731	-1.007149	0.101074	-0.079956	0.031189	0.999795	-0.019585	0.000894	-0.005035	
59576	    0	11.000022	-7.200344	1.288342	-2.765193	0.225076	-1.337486	0.109531	-0.072551	0.013761	0.999881	-0.013825	0.001125	-0.006687	
59577	    0	11.451724	-6.524373	-0.052644	-1.367215	0.294691	-1.712071	0.113953	-0.066223	-0.000244	0.999938	-0.006836	0.001473	-0.008560	
59578	    0	9.504423	-3.995163	-1.706128	-0.159267	0.239377	-2.189299	0.094579	-0.041002	-0.017142	0.999939	-0.000796	0.001197	-0.010946	
59579	    0	9.037500	-2.378299	-5.403715	0.387012	0.119022	-2.580335	0.090027	-0.024841	-0.054138	0.999914	0.001935	0.000595	-0.012901	
59580	    0	8.532874	-4.946292	-5.070530	0.938452	0.071910	-2.920075	0.084579	-0.050463	-0.050971	0.999882	0.004692	0.000360	-0.014600	
59581	    0	8.350948	-5.444989	-3.405032	1.359638	0.142106	-3.494468	0.082520	-0.055664	-0.034485	0.999824	0.006798	0.000710	-0.017471	
59582	    0	9.703634	-4.238276	-2.209855	1.838650	0.253127	-4.120033	0.096110	-0.044163	-0.022621	0.999744	0.009192	0.001266	-0.020598	
59583	    0	11.510224	-1.844219	-0.529656	2.004648	0.309024	-4.652904	0.114624	-0.021057	-0.005676	0.999678	0.010022	0.001545	-0.023262	
59584	    0	12.597188	2.882698	-0.197473	1.548941	0.298152	-4.947455	0.126631	0.025715	-0.001956	0.999662	0.007744	0.001491	-0.024734	
59585	    0	15.396758	6.299810	-1.239569	0.232721	0.319896	-4.993961	0.155457	0.059143	-0.012573	0.999686	0.001163	0.001599	-0.024967	
59586	    0	19.194698	3.720691	-1.758543	-1.101034	0.618044	-4.784309	0.192706	0.032503	-0.018368	0.999694	-0.005505	0.003090	-0.023919	
59587	    0	24.776286	-0.976313	-2.861889	-1.715249	1.085192	-4.286596	0.247314	-0.015320	-0.029846	0.999719	-0.008575	0.005425	-0.021431	
59588	    0	31.215864	-6.625621	-2.962324	-1.645414	1.435398	-3.861172	0.310578	-0.072515	-0.031277	0.999754	-0.008226	0.007176	-0.019304	
59589	    0	31.008469	-12.284577	-5.050630	-0.964419	0.773099	-3.771457	0.307495	-0.128906	-0.051086	0.999803	-0.004822	0.003865	-0.018856	
59590	    0	22.375797	-14.020766	-7.295191	-0.550302	0.337811	-3.648204	0.221025	-0.144457	-0.072933	0.999828	-0.002751	0.001689	-0.018240	
59591	    0	16.092076	-12.332356	-5.696017	-0.681336	0.287069	-3.236538	0.158813	-0.126099	-0.056763	0.999862	-0.003407	0.001435	-0.016182	
59592	    0	13.508326	-7.051455	-3.246156	-0.948367	0.348866	-2.739241	0.134043	-0.072509	-0.032355	0.999893	-0.004742	0.001744	-0.013696	
59593	    0	11.383665	-3.530525	-2.541706	-1.219781	0.342569	-2.152308	0.113403	-0.036682	-0.025391	0.999922	-0.006099	0.001713	-0.010761	
59594	    0	9.074157	-5.261807	-3.361327	-1.432060	0.325017	-1.310751	0.090339	-0.053451	-0.033380	0.999951	-0.007160	0.001625	-0.006554	
59595	    0	6.861812	-8.136128	-4.859618	-1.255808	0.213815	-0.357821	0.068420	-0.081787	-0.048157	0.999978	-0.006279	0.001069	-0.001789	
59596	    0	5.356188	-9.980240	-6.232676	-0.783351	0.010300	0.430871	0.053774	-0.099930	-0.061938	0.999990	-0.003917	0.000051	0.002154	
59597	    0	3.798732	-8.474709	-6.675932	-0.188256	-0.152589	1.122290	0.038513	-0.084595	-0.066650	0.999983	-0.000941	-0.000763	0.005611	
59598	    0	2.611749	-6.481507	-6.156176	0.310140	-0.273900	1.953348	0.026833	-0.064460	-0.061625	0.999949	0.001551	-0.001369	0.009767	
59599	    0	3.060794	-4.683279	-5.574999	0.652528	-0.348676	2.873335	0.031372	-0.046204	-0.055847	0.999889	0.003263	-0.001743	0.014366	
59600	    0	3.879539	-3.328197	-4.810375	0.812963	-0.430515	3.751607	0.039512	-0.032350	-0.048152	0.999813	0.004065	-0.002152	0.018757	
59601	    0	4.231070	-2.770809	-4.259275	0.867541	-0.500343	4.547530	0.043030	-0.026550	-0.042603	0.999728	0.004337	-0.002501	0.022736	
59602	    0	4.890495	-3.119051	-3.649094	0.933569	-0.510086	5.270830	0.049794	-0.029716	-0.036506	0.999639	0.004667	-0.002550	0.026351	
59603	    0	5.942810	-3.723249	-2.762086	0.925773	-0.460121	5.866346	0.060547	-0.035339	-0.027649	0.999556	0.004628	-0.002300	0.029327	
59604	    0	7.074680	-3.901844	-2.190399	0.915302	-0.406907	6.325277	0.071976	-0.036654	-0.021930	0.999487	0.004576	-0.002034	0.031621	
59605	    0	8.258495	-3.368638	-1.600175	0.864003	-0.354835	6.707520	0.083679	-0.030823	-0.015991	0.999426	0.004319	-0.001774	0.033531	
59606	    0	9.514774	-2.246375	-1.292147	0.634328	-0.301616	7.089207	0.095882	-0.019032	-0.012841	0.999365	0.003171	-0.001508	0.035439	
59607	    0	10.981253	-1.204005	-0.853826	0.125914	-0.220350	7.450303	0.110168	-0.007935	-0.008423	0.999305	0.000629	-0.001101	0.037243	
59608	    0	12.290649	-0.477456	0.245876	-0.593908	-0.108365	7.762772	0.122967	0.000006	0.002530	0.999242	-0.002969	-0.000542	0.038804	
59609	    0	13.193086	-0.591386	0.695219	-0.910438	-0.177623	8.078703	0.132019	-0.000549	0.007080	0.999173	-0.004551	-0.000888	0.040382	
59610	    0	14.887497	-0.823104	1.330816	-0.873239	-0.238677	8.169757	0.149028	-0.002086	0.013504	0.999155	-0.004365	-0.001193	0.040837	
59611	    0	18.336010	1.312796	1.167692	-0.631694	-0.308311	8.029059	0.182617	0.020508	0.011902	0.999187	-0.003158	-0.001541	0.040134	
59612	    0	20.689077	5.645515	1.711136	-0.430217	-0.425448	7.813164	0.204438	0.064512	0.017415	0.999232	-0.002151	-0.002127	0.039056	
59613	    0	20.691413	10.674596	1.732036	-0.042735	-0.575207	7.657979	0.202576	0.114563	0.017883	0.999263	-0.000214	-0.002875	0.038280	
59614	    0	21.023316	16.507814	-0.156082	0.576916	-0.663530	7.403562	0.203936	0.172709	-0.000386	0.999305	0.002884	-0.003317	0.037009	
59615	    0	22.556248	23.277584	-1.126700	1.191380	-0.631078	6.831977	0.217468	0.240356	-0.009155	0.999393	0.005956	-0.003155	0.034153	
59616	    0	20.617146	26.818827	-0.923573	2.349106	-0.584701	5.887835	0.198177	0.274180	-0.005451	0.999493	0.011744	-0.002923	0.029434	
59617	    0	20.510030	32.656612	-0.129857	3.406960	-0.446186	4.344733	0.197937	0.330872	0.004761	0.999616	0.017033	-0.002231	0.021721	
59618	    0	17.599298	41.618421	-1.962332	3.404886	-0.448644	2.676985	0.170432	0.418739	-0.012122	0.999763	0.017023	-0.002243	0.013384	
59619	    0	13.969128	45.117197	-7.240474	2.736007	-0.609422	1.216936	0.137146	0.452942	-0.065796	0.999883	0.013680	-0.003047	0.006084	
59620	    0	6.309920	48.427946	-9.261570	1.733805	-0.645265	-0.159075	0.063774	0.485006	-0.088208	0.999956	0.008669	-0.003226	-0.000795	
59621	    0	8.022695	44.833718	-9.238919	0.569160	-0.710878	-1.450366	0.083801	0.447998	-0.090820	0.999963	0.002846	-0.003554	-0.007252	
59622	    0	8.695337	53.686132	-21.306220	0.409531	-1.296498	-3.419497	0.097493	0.535688	-0.211355	0.999830	0.002048	-0.006482	-0.017097	
59623	    0	28.320322	78.594782	-31.131581	0.787717	-1.099637	-7.127417	0.312683	0.776367	-0.306580	0.999342	0.003938	-0.005497	-0.035629	
59624	    0	56.955180	-4.029470	30.364826	-0.615044	0.558385	-6.642247	0.568661	-0.058262	0.302220	0.999439	-0.003075	0.002791	-0.033205	
59625	    0	23.551769	-40.562554	12.569307	2.459518	-3.014068	-4.611142	0.224182	-0.412415	0.124084	0.999544	0.012296	-0.015068	-0.023052	
59626	    0	-0.176531	-3.898923	11.678542	4.359805	-1.535814	-6.397382	-0.003957	-0.041419	0.115875	0.999221	0.021793	-0.007677	-0.031979	
59627	    0	2.661920	31.232680	-2.142850	4.165998	-2.101600	-5.593583	0.035522	0.311768	-0.014587	0.999336	0.020825	-0.010506	-0.027962	
59628	    0	6.823697	18.870400	-5.300384	1.841198	-2.340793	-4.519633	0.073085	0.187561	-0.050437	0.999634	0.009205	-0.011703	-0.022595	
59629	    0	-7.671650	9.107764	-8.553522	0.049784	-1.452710	-3.148809	-0.074646	0.092285	-0.086060	0.999849	0.000249	-0.007263	-0.015743	
59630	    0	4.309516	6.288671	-5.195196	-0.251969	-0.876072	-2.574428	0.044127	0.062258	-0.051839	0.999907	-0.001260	-0.004380	-0.012872	
59631	    0	18.741482	7.818042	-2.248581	-0.840024	-0.757433	-2.555167	0.188477	0.075684	-0.022095	0.999902	-0.004200	-0.003787	-0.012775	
59632	    0	22.155220	6.668995	-2.851068	-0.731676	-0.976013	-2.022790	0.222347	0.064342	-0.027665	0.999929	-0.003658	-0.004880	-0.010114	
59633	    0	14.377125	3.175269	-3.308331	-0.633825	-0.985738	-1.909677	0.144226	0.030273	-0.032471	0.999937	-0.003169	-0.004929	-0.009548	
59634	    0	14.303726	6.009740	-4.580711	-0.389296	-0.679218	-1.812583	0.143728	0.058708	-0.045435	0.999950	-0.001946	-0.003396	-0.009063	
59635	    0	13.763357	5.789109	-4.657193	-0.311855	-0.485998	-1.530474	0.138184	0.056763	-0.046326	0.999966	-0.001559	-0.002430	-0.007652	
59636	    0	11.370621	4.144886	-6.103276	-0.350001	-0.218584	-1.237878	0.114026	0.040637	-0.060980	0.999978	-0.001750	-0.001093	-0.006189	
59637	    0	12.325234	5.165785	-9.274128	-0.469019	0.055695	-0.968938	0.123474	0.050842	-0.092896	0.999985	-0.002345	0.000278	-0.004845	
59638	    0	14.202306	3.476432	-8.552382	-0.514414	0.215340	-0.755885	0.142060	0.034007	-0.085765	0.999989	-0.002572	0.001077	-0.003779	
59639	    0	19.665213	2.894907	-7.342349	-0.550844	0.419046	-0.681308	0.196594	0.028076	-0.073914	0.999988	-0.002754	0.002095	-0.003407	
59640	    0	22.545943	1.645192	-4.185688	-0.627139	0.467875	-0.776867	0.225422	0.015444	-0.042434	0.999985	-0.003136	0.002339	-0.003884	
59641	    0	20.542999	-0.864151	-3.156159	-1.049050	0.457195	-0.753790	0.205322	-0.009583	-0.031982	0.999976	-0.005245	0.002286	-0.003769	
59642	    0	21.031689	-0.032038	-1.243501	-1.374834	0.466543	-0.931561	0.210282	-0.001388	-0.012918	0.999963	-0.006874	0.002333	-0.004658	
59643	    0	20.526246	1.029358	0.554532	-2.021644	0.372323	-1.041435	0.205322	0.009277	0.005066	0.999933	-0.010108	0.001862	-0.005207	
59644	    0	19.281022	-1.658367	2.994955	-2.587976	0.284014	-1.051365	0.192763	-0.017210	0.029896	0.999901	-0.012939	0.001420	-0.005257	
59645	    0	17.509736	-3.093502	4.880311	-2.800091	0.189407	-1.004065	0.174988	-0.031128	0.049072	0.999888	-0.014000	0.000947	-0.005020	
59646	    0	15.697860	-2.001811	6.204578	-3.449053	0.178537	-0.964789	0.156939	-0.019703	0.062247	0.999839	-0.017244	0.000893	-0.004824	
59647	    0	13.379777	-2.796936	6.011378	-4.359795	0.156606	-0.852274	0.133728	-0.027222	0.060608	0.999753	-0.021797	0.000783	-0.004261	
59648	    0	10.677857	-7.406213	5.050108	-4.700149	0.090226	-0.682132	0.106551	-0.073213	0.052180	0.999718	-0.023499	0.000451	-0.003410	
59649	    0	9.286124	-8.382492	2.910790	-3.814176	0.007058	-0.795796	0.092529	-0.083618	0.030701	0.999810	-0.019070	0.000035	-0.003979	
59650	    0	11.284685	-7.625111	0.680774	-2.281632	0.098040	-1.101142	0.112429	-0.076787	0.007627	0.999919	-0.011408	0.000490	-0.005506	
59651	    0	11.857047	-7.144450	-0.645513	-0.769624	0.183871	-1.451127	0.118042	-0.072327	-0.006287	0.999966	-0.003848	0.000919	-0.007256	
59652	    0	10.802524	-1.586872	-5.177976	-0.209049	0.108148	-1.922637	0.107838	-0.016960	-0.051821	0.999952	-0.001045	0.000541	-0.009613	
59653	    0	9.870718	-3.441832	-6.257538	0.357826	-0.032616	-2.222490	0.098328	-0.035400	-0.062622	0.999936	0.001789	-0.000163	-0.011112	
59654	    0	7.133094	-4.032668	-4.076736	0.622196	-0.013352	-2.608377	0.070801	-0.041125	-0.040890	0.999909	0.003111	-0.000067	-0.013041	
59655	    0	7.399422	-3.891368	-3.177311	1.020102	0.185594	-3.338030	0.073303	-0.039978	-0.032043	0.999846	0.005100	0.000928	-0.016689	
59656	    0	9.219551	-1.245503	-2.292083	1.320753	0.345067	-4.146714	0.091873	-0.014210	-0.023170	0.999762	0.006603	0.001725	-0.020732	
59657	    0	10.269801	4.683622	-2.014628	0.983521	0.422136	-4.604005	0.103699	0.044556	-0.020142	0.999721	0.004917	0.002110	-0.023018	
59658	    0	14.566101	7.098793	-2.225416	-0.355373	0.538114	-4.737542	0.147226	0.067472	-0.022771	0.999714	-0.001777	0.002690	-0.023685	
59659	    0	17.101465	2.930488	-1.588863	-1.583261	0.728872	-4.629226	0.171570	0.025208	-0.016724	0.999694	-0.007915	0.003644	-0.023144	
59660	    0	19.545726	-2.657053	-1.449129	-2.031336	0.911421	-4.325530	0.194752	-0.030939	-0.015080	0.999703	-0.010156	0.004557	-0.021626	
59661	    0	23.297041	-7.492911	-1.267129	-1.969332	1.159205	-4.172909	0.231262	-0.079895	-0.013245	0.999717	-0.009846	0.005795	-0.020863	
59662	    0	27.204336	-10.316401	-2.352739	-1.573703	1.292535	-4.151142	0.269666	-0.108968	-0.024433	0.999732	-0.007868	0.006462	-0.020754	
59663	    0	29.289553	-12.167405	-4.317097	-0.965765	1.200960	-4.027106	0.290100	-0.127747	-0.044312	0.999767	-0.004828	0.006004	-0.020134	
59664	    0	24.663005	-13.165692	-5.646070	-0.329803	0.782447	-3.914141	0.243767	-0.136540	-0.057196	0.999799	-0.001649	0.003912	-0.019569	
59665	    0	17.818993	-11.231003	-5.745229	-0.118071	0.539428	-3.616535	0.175964	-0.115540	-0.057861	0.999832	-0.000590	0.002697	-0.018082	
59666	    0	14.722663	-6.919179	-4.352507	-0.235567	0.410287	-3.083163	0.146047	-0.071501	-0.043742	0.999878	-0.001178	0.002051	-0.015415	
59667	    0	12.298668	-4.473564	-2.769521	-0.594155	0.345621	-2.459784	0.122375	-0.046326	-0.027771	0.999918	-0.002971	0.001728	-0.012299	
59668	    0	9.209278	-3.923040	-3.374036	-0.861563	0.250629	-1.708629	0.091710	-0.040160	-0.033684	0.999953	-0.004308	0.001253	-0.008543	
59669	    0	6.846655	-6.272796	-5.478496	-0.848394	0.140572	-0.798802	0.068176	-0.063232	-0.054565	0.999982	-0.004242	0.000703	-0.003994	
59670	    0	5.184920	-8.902188	-7.046164	-0.436783	0.006104	0.118637	0.051900	-0.089145	-0.070269	0.999997	-0.002184	0.000031	0.000593	
59671	    0	3.556672	-8.496733	-7.842340	0.222207	-0.147248	0.910953	0.036011	-0.084717	-0.078491	0.999989	0.001111	-0.000736	0.004555	
59672	    0	1.993956	-6.651579	-7.200880	0.869002	-0.227169	1.731519	0.020595	-0.066026	-0.072273	0.999952	0.004345	-0.001136	0.008657	
59673	    0	2.255489	-4.317852	-5.766052	1.363423	-0.255403	2.643683	0.023193	-0.042480	-0.057922	0.999888	0.006817	-0.001277	0.013218	
59674	    0	2.980863	-2.130719	-4.534582	1.589495	-0.305004	3.552472	0.030246	-0.020411	-0.045465	0.999809	0.007947	-0.001525	0.017761	
59675	    0	3.210312	-1.426885	-3.943846	1.575615	-0.344690	4.409432	0.032471	-0.013245	-0.039490	0.999724	0.007877	-0.001723	0.022045	
59676	    0	3.984541	-2.182045	-3.863236	1.449383	-0.331729	5.246622	0.040459	-0.020484	-0.038717	0.999628	0.007246	-0.001658	0.026230	
59677	    0	5.339677	-2.895676	-3.212546	1.233861	-0.260011	5.919025	0.054260	-0.027161	-0.032227	0.999541	0.006168	-0.001300	0.029591	
59678	    0	6.588793	-2.813928	-2.678171	1.015460	-0.167685	6.401802	0.066763	-0.025875	-0.026861	0.999474	0.005076	-0.000838	0.032003	
59679	    0	7.757904	-2.283183	-2.223942	0.802007	-0.117325	6.818967	0.078308	-0.020081	-0.022278	0.999410	0.004009	-0.000587	0.034088	
59680	    0	9.018387	-1.487844	-2.062163	0.498308	-0.097868	7.224708	0.090652	-0.011558	-0.020609	0.999344	0.002491	-0.000489	0.036116	
59681	    0	10.376576	-0.548562	-2.091165	-0.026519	-0.071734	7.630483	0.103882	-0.001526	-0.020874	0.999271	-0.000133	-0.000359	0.038143	
59682	    0	11.784287	0.395214	-1.713442	-0.886584	0.008967	8.001581	0.117560	0.008584	-0.017171	0.999189	-0.004432	0.000045	0.039997	
59683	    0	12.768989	0.693193	-1.355815	-1.579760	-0.046363	8.352124	0.127258	0.012146	-0.013611	0.999097	-0.007896	-0.000232	0.041748	
59684	    0	13.748148	0.249141	-0.541100	-1.778978	-0.192131	8.557565	0.137214	0.008320	-0.005336	0.999044	-0.008892	-0.000960	0.042774	
59685	    0	16.479273	0.257390	-0.097228	-1.585114	-0.360791	8.448345	0.164490	0.009521	-0.000732	0.999074	-0.007923	-0.001803	0.042229	
59686	    0	20.496898	3.392100	1.256433	-1.288017	-0.576374	8.137727	0.203324	0.042300	0.012897	0.999147	-0.006438	-0.002881	0.040677	
59687	    0	21.360810	7.726586	2.721709	-0.926266	-0.887536	7.910747	0.210205	0.085754	0.027771	0.999197	-0.004630	-0.004436	0.039543	
59688	    0	21.867750	13.814231	1.211906	-0.194981	-1.142984	7.732072	0.213048	0.146465	0.013207	0.999235	-0.000975	-0.005713	0.038651	
59689	    0	23.663614	21.199191	0.229236	0.608392	-1.139328	7.275520	0.228699	0.220398	0.004272	0.999317	0.003041	-0.005695	0.036369	
59690	    0	23.287934	27.429148	0.837735	1.914019	-1.039518	6.510869	0.223734	0.281570	0.012228	0.999411	0.009568	-0.005197	0.032548	
59691	    0	22.441424	32.616720	2.506785	3.535288	-0.883440	5.172066	0.215759	0.331299	0.031860	0.999499	0.017673	-0.004416	0.025856	
59692	    0	20.225919	40.538404	2.237325	3.974629	-0.753684	3.530545	0.194962	0.408307	0.031213	0.999640	0.019871	-0.003768	0.017651	
59693	    0	16.182008	44.110162	-2.519850	3.496034	-0.702526	2.024983	0.157410	0.443054	-0.016907	0.999789	0.017479	-0.003512	0.010124	
59694	    0	9.452571	47.121957	-8.144244	2.597890	-0.751137	0.456634	0.093738	0.472436	-0.074958	0.999906	0.012989	-0.003756	0.002283	
59695	    0	8.492773	46.676471	-8.534501	1.287858	-0.710878	-0.881206	0.087280	0.466919	-0.082031	0.999963	0.006439	-0.003554	-0.004406	
59696	    0	9.106297	50.670390	-8.882374	0.433935	-0.622959	-2.574998	0.097852	0.505664	-0.087428	0.999909	0.002170	-0.003115	-0.012875	
59697	    0	19.263955	64.129024	-23.323005	0.483006	-1.366420	-5.528249	0.211853	0.636169	-0.230286	0.999591	0.002415	-0.006831	-0.027637	
59698	    0	45.775896	28.596295	-1.369480	-0.015834	0.522535	-7.150274	0.467550	0.269361	-0.014930	0.999357	-0.000079	0.002612	-0.035744	
59699	    0	40.583119	-28.260235	28.717174	0.701991	-0.997858	-5.322164	0.396667	-0.294250	0.288147	0.999627	0.003510	-0.004989	-0.026608	
59700	    0	11.289153	-30.587276	5.678463	4.780631	-2.625741	-5.506177	0.103699	-0.310075	0.050807	0.999249	0.023897	-0.013125	-0.027524	
59701	    0	-2.679932	12.098053	8.061608	5.315634	-1.530909	-6.348769	-0.023621	0.119568	0.083618	0.999113	0.026570	-0.007652	-0.031734	
59702	    0	5.278251	32.194702	-7.290793	3.957928	-2.134538	-5.038647	0.061621	0.321819	-0.065911	0.999430	0.019786	-0.010671	-0.025188	
59703	    0	-4.275299	17.408112	-10.089753	1.238358	-2.039323	-3.883698	-0.038330	0.175476	-0.100220	0.999740	0.006191	-0.010196	-0.019417	
59704	    0	-6.266256	4.820497	-6.905601	-0.441946	-0.983458	-2.428889	-0.061731	0.048805	-0.069468	0.999911	-0.002210	-0.004917	-0.012144	
59705	    0	11.895009	5.671598	-3.771181	-0.603502	-0.574319	-2.490306	0.119751	0.055115	-0.037537	0.999913	-0.003017	-0.002872	-0.012451	
59706	    0	24.472631	8.673013	-0.828113	-0.666636	-0.749036	-2.346102	0.245750	0.083825	-0.007645	0.999918	-0.003333	-0.003745	-0.011730	
59707	    0	20.256769	6.886702	-2.357868	-0.589575	-1.116206	-1.995896	0.203369	0.066772	-0.022644	0.999929	-0.002948	-0.005581	-0.009979	
59708	    0	12.616503	0.617658	-3.513036	-0.338942	-0.957889	-1.890410	0.126382	0.004924	-0.034534	0.999942	-0.001695	-0.004789	-0.009452	
59709	    0	13.931921	7.013962	-4.368431	-0.009155	-0.678835	-1.757839	0.140076	0.068909	-0.043213	0.999955	-0.000046	-0.003394	-0.008789	
59710	    0	11.295749	6.528472	-3.228182	-0.135995	-0.542264	-1.331722	0.113476	0.064508	-0.032019	0.999973	-0.000680	-0.002711	-0.006659	
59711	    0	9.867964	3.916181	-5.473791	-0.311853	-0.224305	-1.016240	0.098938	0.038574	-0.054688	0.999985	-0.001559	-0.001122	-0.005081	
59712	    0	12.076707	6.264189	-7.770327	-0.330544	0.055695	-0.711443	0.120967	0.062083	-0.077840	0.999991	-0.001653	0.000278	-0.003557	
59713	    0	14.196876	4.018366	-7.965490	-0.121308	0.132179	-0.565339	0.142029	0.039734	-0.079773	0.999995	-0.000607	0.000661	-0.002827	
59714	    0	16.020596	4.683999	-7.533748	-0.304413	0.315094	-0.396157	0.160179	0.046408	-0.075661	0.999995	-0.001522	0.001575	-0.001981	
59715	    0	18.164089	2.345466	-6.587526	-0.664522	0.432779	-0.180054	0.181519	0.023071	-0.066345	0.999991	-0.003323	0.002164	-0.000900	
59716	    0	20.004229	1.157986	-4.497465	-0.889401	0.487521	-0.276567	0.199947	0.011102	-0.045512	0.999986	-0.004447	0.002438	-0.001383	
59717	    0	20.880393	0.066006	-2.616452	-1.289379	0.484661	-0.351718	0.208740	0.000122	-0.026672	0.999974	-0.006447	0.002423	-0.001759	
59718	    0	20.079437	0.478032	-0.129185	-1.719118	0.453765	-0.549897	0.200803	0.004214	-0.001785	0.999956	-0.008595	0.002269	-0.002749	
59719	    0	19.086650	1.052437	1.075327	-2.344381	0.334176	-0.667589	0.190918	0.010010	0.010315	0.999924	-0.011722	0.001671	-0.003338	
59720	    0	18.014767	-0.264656	2.723959	-2.756785	0.223930	-0.701928	0.180168	-0.002905	0.027077	0.999898	-0.013783	0.001120	-0.003510	
59721	    0	17.041722	-2.777667	3.722247	-3.218224	0.155837	-0.700410	0.170349	-0.027771	0.037537	0.999864	-0.016090	0.000779	-0.003502	
59722	    0	14.235258	-5.481038	4.375451	-4.061986	0.166142	-0.640914	0.142215	-0.054364	0.044744	0.999788	-0.020308	0.000831	-0.003204	
59723	    0	10.921897	-5.735178	3.767419	-4.488566	0.135815	-0.614982	0.109070	-0.056824	0.038879	0.999743	-0.022441	0.000679	-0.003075	
59724	    0	9.919512	-7.783622	2.412704	-4.539697	0.103769	-0.668775	0.098948	-0.077594	0.025839	0.999736	-0.022696	0.000519	-0.003344	
59725	    0	10.352158	-8.268780	1.041353	-3.749127	0.125893	-0.915584	0.103149	-0.082947	0.011902	0.999813	-0.018744	0.000629	-0.004578	
59726	    0	10.830157	-7.925905	-0.455418	-2.441674	0.181013	-1.259653	0.107796	-0.079988	-0.003678	0.999905	-0.012208	0.000905	-0.006298	
59727	    0	9.912613	-4.743883	-0.499629	-1.006144	0.259404	-1.773102	0.098694	-0.048340	-0.004883	0.999947	-0.005031	0.001297	-0.008865	
59728	    0	8.126662	0.117142	-4.307217	-0.378236	0.146869	-2.276662	0.081241	0.000165	-0.043133	0.999932	-0.001891	0.000734	-0.011383	
59729	    0	8.003273	-3.598571	-4.417249	0.201613	0.103000	-2.625351	0.079529	-0.036987	-0.044250	0.999912	0.001008	0.000515	-0.013126	
59730	    0	7.190945	-5.279458	-2.875089	0.673895	0.172622	-3.136388	0.071046	-0.053816	-0.028993	0.999870	0.003369	0.000863	-0.015681	
59731	    0	8.308789	-5.296740	-2.421881	1.190455	0.287647	-3.789008	0.082031	-0.054382	-0.024658	0.999802	0.005952	0.001438	-0.018944	
59732	    0	10.728504	-4.162700	-1.056955	1.600602	0.375782	-4.373948	0.106321	-0.043872	-0.011115	0.999726	0.008002	0.001879	-0.021868	
59733	    0	12.408659	-1.565558	-0.223519	1.823056	0.369304	-4.818498	0.123657	-0.018616	-0.002625	0.999666	0.009114	0.001846	-0.024090	
59734	    0	13.906720	2.816968	0.100285	1.306491	0.356142	-5.026431	0.139718	0.024657	0.000923	0.999660	0.006532	0.001781	-0.025129	
59735	    0	16.660288	3.548098	-0.940070	0.183889	0.472503	-5.145837	0.167419	0.031189	-0.009766	0.999665	0.000919	0.002362	-0.025726	
59736	    0	19.414054	0.914430	-1.129808	-0.379029	0.732879	-4.907351	0.194243	0.004356	-0.012021	0.999690	-0.001895	0.003664	-0.024534	
59737	    0	25.156558	-2.616516	-2.476727	-0.578171	1.197926	-4.526940	0.250732	-0.031921	-0.026184	0.999722	-0.002891	0.005989	-0.022633	
59738	    0	31.901089	-7.375558	-2.525676	-0.332860	1.375502	-4.202996	0.317183	-0.080479	-0.027312	0.999754	-0.001664	0.006877	-0.021013	
59739	    0	30.902085	-10.176532	-5.952047	0.061993	0.566906	-4.168246	0.306641	-0.108154	-0.060425	0.999779	0.000310	0.002834	-0.020840	
59740	    0	21.870095	-12.402436	-6.719007	0.078206	0.292797	-3.911269	0.216122	-0.128242	-0.067557	0.999807	0.000391	0.001464	-0.019555	
59741	    0	16.815510	-10.812671	-4.641424	-0.161751	0.219928	-3.352514	0.166260	-0.110962	-0.046509	0.999858	-0.000809	0.001100	-0.016762	
59742	    0	14.081768	-6.581539	-2.422430	-0.475518	0.226410	-2.781389	0.139856	-0.067822	-0.024223	0.999899	-0.002378	0.001132	-0.013906	
59743	    0	11.126655	-4.204352	-2.178821	-0.830669	0.213628	-2.165271	0.110779	-0.043335	-0.021729	0.999931	-0.004153	0.001068	-0.010826	
59744	    0	8.053020	-5.026537	-3.028858	-0.983250	0.172426	-1.326576	0.080168	-0.050946	-0.030108	0.999965	-0.004916	0.000862	-0.006633	
59745	    0	5.734955	-7.096880	-4.728713	-0.901035	0.107003	-0.377657	0.057190	-0.071289	-0.046997	0.999988	-0.004505	0.000535	-0.001888	
59746	    0	4.419517	-8.561061	-5.529259	-0.709727	0.001335	0.452806	0.044389	-0.085706	-0.054989	0.999990	-0.003549	0.000007	0.002264	
59747	    0	3.078455	-7.841211	-5.270799	-0.337031	-0.158693	1.237496	0.031311	-0.078308	-0.052551	0.999979	-0.001685	-0.000793	0.006187	
59748	    0	2.177043	-5.681740	-4.408957	-0.022507	-0.296980	2.074852	0.022424	-0.056592	-0.044050	0.999945	-0.000113	-0.001485	0.010374	
59749	    0	2.582857	-3.562573	-3.708310	0.086406	-0.381484	2.992362	0.026428	-0.035217	-0.037048	0.999886	0.000432	-0.001907	0.014961	
59750	    0	3.275197	-2.432751	-3.418029	0.016595	-0.464850	3.877886	0.033295	-0.023683	-0.034105	0.999809	0.000083	-0.002324	0.019388	
59751	    0	3.792468	-2.750246	-3.013926	-0.061613	-0.529529	4.689461	0.038635	-0.026611	-0.030029	0.999722	-0.000308	-0.002647	0.023445	
59752	    0	4.923564	-3.998991	-2.485620	-0.047690	-0.548812	5.397696	0.050359	-0.038647	-0.024710	0.999632	-0.000238	-0.002744	0.026985	
59753	    0	6.155503	-4.823871	-1.584754	0.044257	-0.549969	5.913650	0.062988	-0.046387	-0.015686	0.999558	0.000221	-0.002749	0.029564	
59754	    0	7.432712	-4.434205	-0.497746	0.115223	-0.537581	6.314572	0.075690	-0.041964	-0.004800	0.999496	0.000576	-0.002687	0.031568	
59755	    0	8.457743	-3.183455	0.167406	0.068868	-0.535683	6.670862	0.085571	-0.028992	0.001892	0.999439	0.000344	-0.002678	0.033348	
59756	    0	9.429464	-2.172107	0.559680	-0.170934	-0.490862	7.019157	0.094965	-0.018391	0.005846	0.999380	-0.000854	-0.002454	0.035089	
59757	    0	10.639801	-1.591453	0.675405	-0.570046	-0.425627	7.367862	0.106873	-0.011963	0.007019	0.999314	-0.002850	-0.002128	0.036831	
59758	    0	12.200931	-1.865049	1.921863	-0.994357	-0.339974	7.653041	0.122568	-0.013870	0.019504	0.999253	-0.004971	-0.001699	0.038256	
59759	    0	14.144205	-1.379121	2.912485	-0.997234	-0.344940	7.887823	0.141785	-0.008057	0.029419	0.999208	-0.004985	-0.001724	0.039429	
59760	    0	15.288255	-0.124952	2.830416	-0.682058	-0.448346	7.935912	0.152705	0.004910	0.028637	0.999204	-0.003409	-0.002241	0.039669	
59761	    0	17.914068	1.838360	3.292742	-0.282359	-0.482110	7.797701	0.178162	0.025391	0.033325	0.999236	-0.001411	-0.002410	0.038979	
59762	    0	19.524130	6.344458	3.528583	0.136408	-0.552310	7.578957	0.192554	0.070752	0.035867	0.999277	0.000682	-0.002761	0.037886	
59763	    0	19.186279	12.717110	2.476191	0.669254	-0.587410	7.432766	0.186890	0.134094	0.025757	0.999299	0.003345	-0.002936	0.037155	
59764	    0	20.164503	18.960207	-0.554058	1.248632	-0.528069	7.107759	0.194751	0.196633	-0.003807	0.999345	0.006242	-0.002640	0.035531	
59765	    0	21.589518	26.117973	-1.944797	1.937477	-0.373722	6.508365	0.207275	0.268188	-0.016479	0.999421	0.009686	-0.001868	0.032536	
59766	    0	20.159070	29.876094	-1.614195	3.041956	-0.267072	5.470598	0.193334	0.304321	-0.011279	0.999509	0.015207	-0.001335	0.027349	
59767	    0	19.511831	36.376842	-2.019182	3.683147	-0.208880	3.867037	0.188049	0.367737	-0.013245	0.999642	0.018414	-0.001044	0.019333	
59768	    0	17.430078	42.517939	-5.454049	3.200165	-0.249879	2.272562	0.169511	0.427921	-0.047494	0.999806	0.016000	-0.001249	0.011362	
59769	    0	10.093743	46.432619	-10.473046	2.254543	-0.483525	0.833151	0.099243	0.465881	-0.099243	0.999925	0.011272	-0.002418	0.004166	
59770	    0	6.842875	46.908344	-11.162666	1.077087	-0.543026	-0.469593	0.069829	0.469512	-0.108911	0.999979	0.005385	-0.002715	-0.002348	
59771	    0	6.287019	52.124487	-15.227100	0.509082	-0.744645	-2.078292	0.068848	0.520935	-0.150696	0.999935	0.002545	-0.003723	-0.010391	
59772	    0	19.728546	109.194698	-36.298685	2.237905	-1.753544	-5.847626	0.232267	1.089453	-0.348851	0.999471	0.011188	-0.008766	-0.029233	
59773	    0	53.352830	18.957426	14.124521	-0.885025	0.370875	-7.420554	0.540344	0.170227	0.139465	0.999300	-0.004424	0.001854	-0.037094	
59774	    0	21.497464	-51.857001	15.979272	1.794827	-2.950429	-3.897344	0.202456	-0.524021	0.158154	0.999660	0.008973	-0.014750	-0.019485	
59775	    0	1.604663	-17.781711	11.149571	3.694116	-1.556512	-5.576657	0.010193	-0.180176	0.108276	0.999410	0.018467	-0.007781	-0.027878	
59776	    0	2.628703	37.354077	-1.542759	3.759399	-1.770577	-5.693088	0.037001	0.372787	-0.008119	0.999378	0.018793	-0.008851	-0.028460	
59777	    0	7.363564	20.483292	-4.357074	1.732834	-2.206483	-4.428608	0.078613	0.203491	-0.040955	0.999656	0.008663	-0.011031	-0.022141	
59778	    0	0.697144	7.979414	-8.067612	0.123604	-1.501174	-3.500960	0.008972	0.079699	-0.080564	0.999818	0.000618	-0.007505	-0.017504	
59779	    0	1.482606	6.925474	-4.509227	0.090792	-1.004628	-2.362888	0.015869	0.069092	-0.044983	0.999917	0.000454	-0.005023	-0.011814	
59780	    0	17.457552	9.555440	-2.651406	-0.688193	-0.708984	-2.567944	0.175876	0.093211	-0.026216	0.999905	-0.003441	-0.003545	-0.012839	
59781	    0	21.797399	5.190647	-3.615421	-0.955032	-0.854512	-1.992081	0.218628	0.049561	-0.035461	0.999929	-0.004775	-0.004272	-0.009960	
59782	    0	16.012082	-0.262542	-3.828177	-0.638975	-0.960561	-1.898232	0.160267	-0.004267	-0.037500	0.999938	-0.003195	-0.004803	-0.009491	
59783	    0	14.203614	7.802203	-3.674281	-0.356299	-0.620090	-1.904330	0.142883	0.076599	-0.036438	0.999948	-0.001781	-0.003100	-0.009521	
59784	    0	14.011242	6.769716	-3.914316	-0.475889	-0.463491	-1.584263	0.140733	0.066491	-0.038977	0.999963	-0.002379	-0.002317	-0.007921	
59785	    0	11.243897	3.759856	-6.758552	-0.476650	-0.191499	-1.232919	0.112732	0.036743	-0.067566	0.999977	-0.002383	-0.000957	-0.006165	
59786	    0	13.107142	5.116966	-8.684902	-0.399782	0.065613	-1.034933	0.131305	0.050317	-0.086993	0.999984	-0.001999	0.000328	-0.005175	
59787	    0	14.580909	4.286416	-8.537167	-0.387384	0.244904	-0.801089	0.145874	0.042114	-0.085632	0.999989	-0.001937	0.001225	-0.004005	
59788	    0	19.086706	4.144950	-7.450115	-0.526049	0.411798	-0.643160	0.190845	0.040639	-0.075002	0.999989	-0.002630	0.002059	-0.003216	
59789	    0	21.608782	0.707236	-4.222826	-0.458528	0.502207	-0.693515	0.216003	0.006226	-0.042786	0.999988	-0.002293	0.002511	-0.003468	
59790	    0	20.820013	0.999061	-2.843102	-0.770001	0.519374	-0.704197	0.208158	0.009147	-0.029008	0.999983	-0.003850	0.002597	-0.003521	
59791	    0	21.155802	2.147307	-1.310510	-1.295485	0.523573	-0.829324	0.211609	0.020508	-0.013794	0.999967	-0.006477	0.002618	-0.004147	
59792	    0	20.376978	0.220025	0.280586	-2.033849	0.426492	-0.848788	0.203782	0.001361	0.002355	0.999936	-0.010169	0.002132	-0.004244	
59793	    0	18.975217	-2.120376	2.390218	-2.533608	0.327311	-0.872066	0.189697	-0.021729	0.023865	0.999908	-0.012668	0.001637	-0.004360	
59794	    0	17.815601	-2.333679	4.100352	-2.780630	0.236520	-0.798253	0.178111	-0.023477	0.041119	0.999894	-0.013903	0.001183	-0.003991	
59795	    0	16.202512	-0.934577	5.585367	-3.553778	0.207531	-0.763745	0.162048	-0.008972	0.055847	0.999834	-0.017768	0.001038	-0.003819	
59796	    0	13.355346	-4.002311	5.400582	-4.595977	0.153937	-0.580077	0.133481	-0.039157	0.054810	0.999731	-0.022978	0.000770	-0.002900	
59797	    0	10.416084	-7.447397	4.245097	-4.818243	0.082406	-0.473069	0.104004	-0.073669	0.044189	0.999706	-0.024089	0.000412	-0.002365	
59798	    0	9.871668	-8.171835	1.937397	-4.011049	0.018312	-0.660751	0.098449	-0.081634	0.021003	0.999793	-0.020054	0.000092	-0.003304	
59799	    0	12.287181	-8.621561	0.836767	-2.417062	0.123028	-1.018553	0.122437	-0.086731	0.009338	0.999913	-0.012085	0.000615	-0.005093	
59800	    0	10.811480	-5.716296	-2.278738	-1.098648	0.115778	-1.452275	0.107682	-0.058070	-0.022532	0.999958	-0.005493	0.000579	-0.007261	
59801	    0	10.623544	-2.685871	-6.076993	-0.524148	0.061227	-1.880676	0.105957	-0.028015	-0.060730	0.999951	-0.002621	0.000306	-0.009403	
59802	    0	9.192311	-4.807150	-4.873071	0.231748	0.008202	-2.286771	0.091364	-0.049062	-0.048791	0.999933	0.001159	0.000041	-0.011434	
59803	    0	5.724959	-4.307020	-3.441570	0.540370	0.044252	-2.762695	0.056641	-0.043762	-0.034546	0.999901	0.002702	0.000221	-0.013813	
59804	    0	7.080458	-4.360251	-2.841350	1.003512	0.225461	-3.498843	0.069997	-0.044688	-0.028715	0.999833	0.005017	0.001127	-0.017493	
59805	    0	9.242592	-1.806126	-1.390824	1.241598	0.418889	-4.308683	0.091980	-0.019958	-0.014221	0.999746	0.006207	0.002094	-0.021542	
59806	    0	11.267136	4.062698	-1.186947	0.934503	0.529342	-4.773616	0.113567	0.037979	-0.011988	0.999701	0.004672	0.002646	-0.023866	
59807	    0	14.928612	5.957005	-2.182653	-0.109112	0.559483	-4.941305	0.150635	0.055847	-0.022278	0.999690	-0.000546	0.002797	-0.024704	
59808	    0	17.295582	1.872265	-2.075188	-0.968269	0.681184	-4.809299	0.173265	0.014456	-0.021419	0.999693	-0.004841	0.003406	-0.024044	
59809	    0	19.126869	-3.081433	-1.698850	-1.251150	0.775984	-4.567394	0.190430	-0.035278	-0.017517	0.999712	-0.006255	0.003880	-0.022835	
59810	    0	21.948535	-6.759310	-1.912258	-1.162636	0.889860	-4.469711	0.217813	-0.072587	-0.019682	0.999723	-0.005813	0.004449	-0.022346	
59811	    0	25.654590	-9.405791	-3.279830	-0.935257	1.011748	-4.423156	0.254211	-0.099854	-0.033630	0.999731	-0.004676	0.005058	-0.022114	
59812	    0	29.401237	-12.502083	-3.234236	-0.388176	1.111691	-4.206229	0.291111	-0.131228	-0.033715	0.999761	-0.001941	0.005558	-0.021029	
59813	    0	26.744518	-12.968323	-4.519345	0.327515	0.642441	-4.068283	0.264587	-0.135010	-0.046265	0.999786	0.001637	0.003212	-0.020340	
59814	    0	19.393742	-11.072831	-5.041663	0.499184	0.324460	-3.779642	0.191718	-0.114239	-0.051011	0.999817	0.002496	0.001622	-0.018897	
59815	    0	15.540679	-6.798300	-3.381328	0.246440	0.284017	-3.225087	0.154236	-0.070435	-0.034119	0.999867	0.001232	0.001420	-0.016125	
59816	    0	13.135148	-3.596848	-1.797522	-0.222212	0.327310	-2.545046	0.130850	-0.037656	-0.018148	0.999917	-0.001111	0.001637	-0.012725	
59817	    0	10.152095	-3.839174	-2.345792	-0.593385	0.308995	-1.789883	0.101135	-0.039368	-0.023499	0.999954	-0.002967	0.001545	-0.008949	
59818	    0	7.028683	-5.878692	-3.660207	-0.580218	0.252153	-0.909810	0.069972	-0.059212	-0.036519	0.999984	-0.002901	0.001261	-0.004549	
59819	    0	4.657253	-7.641488	-4.990156	-0.217247	0.202942	-0.034332	0.046509	-0.076477	-0.049866	0.999998	-0.001086	0.001015	-0.000172	
59820	    0	3.033229	-6.428945	-5.640147	0.342942	0.159264	0.762560	0.030532	-0.064076	-0.056536	0.999990	0.001715	0.000796	0.003813	
59821	    0	1.614257	-3.758929	-5.703485	0.799762	0.070191	1.584646	0.016418	-0.037231	-0.057190	0.999960	0.003999	0.000351	0.007923	
59822	    0	1.188825	-2.625695	-5.231958	1.067386	0.041200	2.523501	0.012205	-0.025825	-0.052461	0.999906	0.005337	0.000206	0.012617	
59823	    0	1.805475	-1.857086	-4.255798	1.155346	0.005341	3.495223	0.018372	-0.018005	-0.042664	0.999830	0.005776	0.000027	0.017475	
59824	    0	2.152610	-1.197853	-3.844901	1.123716	-0.022509	4.400441	0.021784	-0.011285	-0.038511	0.999742	0.005618	-0.000113	0.022000	
59825	    0	2.369114	-0.485939	-3.586997	0.888925	-0.005150	5.137453	0.023804	-0.004089	-0.035889	0.999660	0.004444	-0.000026	0.025684	
59826	    0	3.640104	-1.135747	-3.815162	0.635810	0.030713	5.809275	0.036702	-0.010173	-0.038191	0.999573	0.003179	0.000154	0.029042	
59827	    0	5.235001	-2.712799	-3.228082	0.360168	0.079550	6.348726	0.053162	-0.025391	-0.032349	0.999494	0.001801	0.000398	0.031738	
59828	    0	6.925120	-3.237699	-2.396196	0.165589	0.077262	6.748718	0.070281	-0.029997	-0.024014	0.999430	0.000828	0.000386	0.033737	
59829	    0	8.309941	-2.186838	-1.995790	-0.067725	0.017551	7.069343	0.083801	-0.018921	-0.019958	0.999374	-0.000339	0.000088	0.035339	
59830	    0	9.643647	-0.986432	-2.242630	-0.472177	-0.047504	7.393239	0.096720	-0.006345	-0.022386	0.999313	-0.002360	-0.000237	0.036958	
59831	    0	11.107997	-0.278393	-2.034830	-1.065334	-0.042545	7.733592	0.111084	0.001404	-0.020325	0.999238	-0.005325	-0.000213	0.038658	
59832	    0	12.411849	0.347379	-1.847097	-1.431295	-0.179532	8.081607	0.123863	0.008351	-0.018408	0.999157	-0.007154	-0.000897	0.040397	
59833	    0	13.107764	0.196513	-0.729423	-1.467564	-0.295917	8.265064	0.130859	0.007324	-0.007141	0.999118	-0.007336	-0.001479	0.041313	
59834	    0	15.171787	0.718159	-0.446533	-1.217048	-0.457705	8.211402	0.151263	0.013373	-0.004188	0.999136	-0.006083	-0.002288	0.041045	
59835	    0	18.000899	3.040750	0.264403	-0.912725	-0.634748	8.014576	0.178589	0.037598	0.003052	0.999181	-0.004562	-0.003173	0.040062	
59836	    0	19.285949	6.732949	0.832200	-0.656678	-0.857574	7.782458	0.190008	0.074790	0.008904	0.999228	-0.003283	-0.004287	0.038902	
59837	    0	19.196248	12.228477	-0.038859	-0.229701	-1.148316	7.596932	0.187134	0.129456	0.000549	0.999261	-0.001148	-0.005740	0.037975	
59838	    0	20.739846	18.446329	-2.055307	0.255834	-1.317327	7.309879	0.200603	0.191904	-0.018974	0.999310	0.001279	-0.006585	0.036541	
59839	    0	21.990567	25.885411	-1.999535	0.844741	-1.331402	6.708328	0.211182	0.266113	-0.017456	0.999406	0.004223	-0.006656	0.033535	
59840	    0	20.043294	29.312913	0.996949	2.055879	-1.246080	5.718767	0.191867	0.298566	0.014234	0.999518	0.010278	-0.006229	0.028589	
59841	    0	20.290122	35.048587	3.434952	2.930027	-1.080257	4.251592	0.195190	0.354126	0.040588	0.999652	0.014648	-0.005401	0.021255	
59842	    0	17.894282	41.545392	2.131172	2.733792	-0.873242	2.748098	0.173103	0.417509	0.027774	0.999803	0.013668	-0.004366	0.013740	
59843	    0	12.407596	43.457556	-2.254459	1.996856	-0.716419	1.374091	0.121155	0.435608	-0.017761	0.999920	0.009984	-0.003582	0.006870	
59844	    0	9.786447	42.934493	-6.022278	1.050384	-0.695805	-0.028992	0.098130	0.429638	-0.057626	0.999980	0.005252	-0.003479	-0.000145	
59845	    0	8.167670	40.495878	-5.715186	0.089455	-0.643927	-1.351941	0.084595	0.404419	-0.056702	0.999971	0.000447	-0.003220	-0.006760	
59846	    0	10.131288	42.524403	-8.075504	-0.126081	-0.638035	-3.101097	0.108147	0.423552	-0.080685	0.999874	-0.000630	-0.003190	-0.015505	
59847	    0	23.165049	63.291665	-20.565192	0.586037	-0.956698	-6.289216	0.252380	0.625793	-0.202637	0.999490	0.002930	-0.004783	-0.031441	
59848	    0	52.815860	6.715221	17.047556	1.193845	0.753736	-6.591137	0.530604	0.048679	0.168806	0.999432	0.005968	0.003768	-0.032949	
59849	    0	31.496428	-37.064694	19.762812	3.172263	-2.235788	-5.022511	0.303284	-0.381470	0.195068	0.999496	0.015859	-0.011177	-0.025108	
59850	    0	5.447006	-13.200189	6.862913	5.682398	-1.893242	-6.137440	0.049719	-0.135464	0.065298	0.999081	0.028403	-0.009463	-0.030678	
59851	    0	2.202173	25.290290	3.611193	5.391938	-1.894934	-6.137357	0.029358	0.250977	0.043152	0.999121	0.026952	-0.009472	-0.030678	
59852	    0	6.375246	28.176622	-5.385286	2.508920	-2.227925	-4.958321	0.071289	0.280701	-0.049561	0.999552	0.012543	-0.011138	-0.024788	
59853	    0	-8.722835	15.947333	-11.662690	0.142106	-1.728540	-3.308870	-0.083562	0.160959	-0.117246	0.999825	0.000710	-0.008642	-0.016543	
59854	    0	-1.232629	2.791060	-8.238842	-1.237531	-1.015890	-2.422609	-0.011572	0.027543	-0.082620	0.999894	-0.006187	-0.005079	-0.012113	
59855	    0	13.952189	3.334064	-3.028633	-1.014742	-0.600262	-2.509388	0.140015	0.031433	-0.030029	0.999904	-0.005074	-0.003001	-0.012547	
59856	    0	23.572220	8.361662	-0.246949	-0.533880	-0.910972	-2.168708	0.236619	0.081049	-0.001612	0.999927	-0.002669	-0.004555	-0.010843	
59857	    0	16.806603	7.214780	-1.481484	-0.630011	-1.114679	-1.906628	0.168823	0.070496	-0.014099	0.999933	-0.003150	-0.005573	-0.009533	
59858	    0	12.767939	3.332863	-3.915239	-0.263028	-0.843635	-1.822694	0.128139	0.032111	-0.038655	0.999949	-0.001315	-0.004218	-0.009113	
59859	    0	14.109081	7.097656	-4.857596	-0.131799	-0.571448	-1.583118	0.141785	0.069824	-0.048218	0.999964	-0.000659	-0.002857	-0.007915	
59860	    0	11.399207	4.605957	-4.331057	-0.250627	-0.399592	-1.180847	0.114347	0.045331	-0.043139	0.999979	-0.001253	-0.001998	-0.005904	
59861	    0	10.389885	5.899557	-7.257283	-0.359918	-0.089264	-0.872806	0.104187	0.058411	-0.072632	0.999989	-0.001800	-0.000446	-0.004364	
59862	    0	11.885206	5.415222	-7.301024	-0.297928	0.114060	-0.624658	0.118979	0.053672	-0.073158	0.999993	-0.001490	0.000570	-0.003123	
59863	    0	14.559217	3.700704	-7.728765	-0.083161	0.290871	-0.485993	0.145569	0.036621	-0.077515	0.999995	-0.000416	0.001454	-0.002430	
59864	    0	16.881566	5.932222	-7.679445	-0.432015	0.497819	-0.269127	0.168703	0.058928	-0.077342	0.999993	-0.002160	0.002489	-0.001346	
59865	    0	20.157148	1.173670	-6.987385	-0.677302	0.639346	-0.144959	0.201355	0.011353	-0.070557	0.999989	-0.003386	0.003197	-0.000725	
59866	    0	20.812368	-0.032648	-4.828189	-0.949102	0.667576	-0.259592	0.207960	-0.000828	-0.048973	0.999982	-0.004745	0.003338	-0.001298	
59867	    0	21.463688	-0.498238	-2.611592	-1.322187	0.665480	-0.369266	0.214539	-0.005554	-0.026794	0.999970	-0.006611	0.003327	-0.001846	
59868	    0	20.448473	1.145531	-0.151368	-1.896320	0.593005	-0.558672	0.204510	0.010865	-0.002225	0.999947	-0.009481	0.002965	-0.002793	
59869	    0	19.713020	1.276665	1.434061	-2.560502	0.454916	-0.686666	0.197205	0.012268	0.013733	0.999909	-0.012802	0.002275	-0.003433	
59870	    0	18.113682	-2.123394	3.699949	-3.013159	0.332083	-0.630022	0.181131	-0.021247	0.037019	0.999880	-0.015065	0.001660	-0.003150	
59871	    0	15.936529	-4.132740	4.737973	-3.482046	0.228894	-0.575286	0.159302	-0.040955	0.047913	0.999844	-0.017409	0.001144	-0.002876	
59872	    0	13.175128	-4.680062	5.132303	-4.278707	0.199906	-0.570914	0.131671	-0.046066	0.052182	0.999766	-0.021392	0.000999	-0.002854	
59873	    0	10.432681	-7.070870	3.719930	-4.642718	0.141157	-0.474591	0.104187	-0.070068	0.038757	0.999727	-0.023211	0.000706	-0.002373	
59874	    0	9.596339	-8.915655	1.981975	-4.315526	0.055699	-0.550695	0.095724	-0.088965	0.021714	0.999763	-0.021576	0.000278	-0.002753	
59875	    0	10.942314	-8.121047	-0.369917	-3.038151	0.077251	-0.863683	0.109070	-0.081726	-0.002502	0.999875	-0.015190	0.000386	-0.004318	
59876	    0	12.249094	-6.745256	-0.787965	-1.488518	0.195506	-1.246091	0.122060	-0.068271	-0.007493	0.999952	-0.007442	0.000978	-0.006230	
59877	    0	9.206837	-0.668163	-4.208574	-0.662241	0.114633	-1.757075	0.091980	-0.007629	-0.042114	0.999955	-0.003311	0.000573	-0.008785	
59878	    0	9.314148	-0.453127	-6.476701	-0.326926	-0.002289	-2.127688	0.093086	-0.005628	-0.064757	0.999942	-0.001635	-0.000011	-0.010638	
59879	    0	6.358648	-3.847693	-4.510156	0.095561	-0.048066	-2.497929	0.063110	-0.039246	-0.045105	0.999922	0.000478	-0.000240	-0.012489	
59880	    0	5.220112	-4.160590	-3.625680	0.389687	0.084690	-3.111395	0.051531	-0.042340	-0.036361	0.999877	0.001948	0.000423	-0.015556	
59881	    0	7.111850	-2.978843	-2.230515	0.817925	0.258844	-3.875987	0.070496	-0.031067	-0.022522	0.999803	0.004089	0.001294	-0.019379	
59882	    0	9.454872	0.456846	-0.961434	0.837399	0.360139	-4.486667	0.094603	0.002487	-0.009771	0.999738	0.004187	0.001801	-0.022431	
59883	    0	12.202914	4.753565	-0.243312	0.152030	0.467726	-4.758907	0.123108	0.044617	-0.002686	0.999714	0.000760	0.002338	-0.023792	
59884	    0	16.017015	3.572019	-0.971732	-0.912000	0.579895	-4.917092	0.160954	0.031723	-0.010334	0.999682	-0.004560	0.002899	-0.024583	
59885	    0	17.767720	-0.435871	-0.390032	-1.403955	0.751002	-4.749795	0.177490	-0.008606	-0.004517	0.999686	-0.007019	0.003755	-0.023746	
59886	    0	19.032491	-3.629022	-0.608095	-1.393266	0.842750	-4.602508	0.189395	-0.040701	-0.006607	0.999701	-0.006966	0.004213	-0.023010	
59887	    0	20.555174	-5.770857	-0.841757	-1.375718	0.951672	-4.624642	0.204102	-0.062500	-0.008972	0.999698	-0.006878	0.004758	-0.023121	
59888	    0	23.693430	-6.629713	-2.386548	-1.105034	1.107895	-4.558623	0.235204	-0.071807	-0.024785	0.999709	-0.005525	0.005539	-0.022791	
59889	    0	28.598226	-8.524351	-2.555078	-0.562144	1.265063	-4.338449	0.283875	-0.091492	-0.027100	0.999741	-0.002810	0.006325	-0.021690	
59890	    0	27.296254	-10.174783	-4.279977	0.211350	0.849216	-4.189620	0.270567	-0.107387	-0.044064	0.999770	0.001057	0.004246	-0.020947	
59891	    0	19.310788	-9.504792	-4.717462	0.682115	0.550308	-3.972900	0.191040	-0.098694	-0.048035	0.999793	0.003410	0.002751	-0.019863	
59892	    0	14.869061	-5.690022	-3.734203	0.701943	0.387404	-3.549581	0.147578	-0.059394	-0.037834	0.999834	0.003510	0.001937	-0.017747	
59893	    0	12.235040	-2.248488	-2.938917	0.251970	0.299847	-3.021357	0.121948	-0.024292	-0.029602	0.999884	0.001260	0.001499	-0.015106	
59894	    0	9.863926	-1.291534	-2.084843	-0.243574	0.401507	-2.386533	0.098433	-0.014116	-0.021029	0.999926	-0.001218	0.002007	-0.011932	
59895	    0	7.542561	-1.875910	-3.297035	-0.444037	0.407606	-1.694511	0.075195	-0.019470	-0.033081	0.999959	-0.002220	0.002038	-0.008472	
59896	    0	5.814729	-4.165445	-5.005896	-0.231362	0.398637	-0.843624	0.057871	-0.041957	-0.050126	0.999988	-0.001157	0.001993	-0.004218	
59897	    0	4.251623	-5.795228	-6.094263	0.293732	0.322914	0.006104	0.042419	-0.057861	-0.061096	0.999997	0.001469	0.001615	0.000031	
59898	    0	2.579092	-4.577488	-6.292259	0.824170	0.222207	0.773816	0.025897	-0.045415	-0.063139	0.999983	0.004121	0.001111	0.003869	
59899	    0	1.741038	-2.932530	-5.633638	1.140612	0.190166	1.525902	0.017578	-0.028870	-0.056519	0.999953	0.005703	0.000951	0.007629	
59900	    0	1.961019	-1.596847	-4.386071	1.285782	0.197226	2.351641	0.019751	-0.015454	-0.043981	0.999909	0.006429	0.000986	0.011758	
59901	    0	2.344773	-0.548419	-3.339151	1.332923	0.186357	3.224346	0.023499	-0.004883	-0.033447	0.999846	0.006664	0.000932	0.016121	
59902	    0	2.620178	-0.573136	-2.913226	1.209731	0.197998	4.051893	0.026279	-0.005023	-0.029190	0.999776	0.006048	0.000990	0.020258	
59903	    0	3.318870	-1.291066	-2.888770	1.047048	0.238061	4.772662	0.033447	-0.011963	-0.028992	0.999701	0.005235	0.001190	0.023861	
59904	    0	4.210587	-1.646025	-2.758388	0.804428	0.280415	5.362979	0.042486	-0.015213	-0.027706	0.999631	0.004022	0.001402	0.026812	
59905	    0	5.091814	-1.853577	-2.477493	0.521926	0.319146	5.867092	0.051392	-0.016968	-0.024902	0.999564	0.002609	0.001595	0.029331	
59906	    0	6.157336	-1.973151	-1.948098	0.276039	0.351201	6.305028	0.062119	-0.017752	-0.019615	0.999500	0.001380	0.001756	0.031520	
59907	    0	7.119338	-1.617772	-1.477477	0.025372	0.324309	6.661696	0.071655	-0.013794	-0.014893	0.999443	0.000127	0.001621	0.033302	
59908	    0	7.957619	-1.643677	-1.428094	-0.256972	0.307909	6.987472	0.080064	-0.013663	-0.014385	0.999387	-0.001285	0.001539	0.034930	
59909	    0	8.929303	-1.771109	-1.383790	-0.575195	0.273957	7.328160	0.089844	-0.014465	-0.013916	0.999323	-0.002875	0.001369	0.036633	
59910	    0	10.247385	-1.564039	-1.130326	-0.915371	0.227030	7.618295	0.102959	-0.011776	-0.011360	0.999263	-0.004576	0.001135	0.038082	
59911	    0	11.486194	-1.095984	-1.215118	-0.978919	0.058762	7.906143	0.115173	-0.006470	-0.012146	0.999207	-0.004893	0.000294	0.039520	
59912	    0	12.856399	-1.288565	-0.176051	-0.852247	-0.094631	8.077171	0.128945	-0.007689	-0.001659	0.999175	-0.004260	-0.000473	0.040375	
59913	    0	15.819543	-0.737463	-0.247950	-0.552329	-0.345706	8.090905	0.158325	-0.000977	-0.002197	0.999176	-0.002761	-0.001728	0.040443	
59914	    0	18.818047	1.766075	0.130519	-0.255080	-0.552704	7.923876	0.187280	0.025096	0.001795	0.999210	-0.001275	-0.002763	0.039609	
59915	    0	20.176814	6.278647	-0.231888	0.166362	-0.797280	7.705327	0.199158	0.070496	-0.001465	0.999249	0.000832	-0.003985	0.038517	
59916	    0	21.092251	12.704631	-1.942725	0.747858	-1.061691	7.427831	0.206108	0.134830	-0.017830	0.999289	0.003738	-0.005307	0.037130	
59917	    0	22.231699	21.569359	-2.712840	1.115085	-1.140077	7.008344	0.214722	0.223450	-0.024658	0.999353	0.005574	-0.005699	0.035034	
59918	    0	21.527919	28.103362	-0.856333	1.426772	-1.077662	6.440217	0.206118	0.287816	-0.005399	0.999441	0.007133	-0.005387	0.032195	
59919	    0	19.969330	30.199341	1.556357	1.983161	-0.904784	5.413060	0.191345	0.307068	0.019470	0.999574	0.009914	-0.004523	0.027061	
59920	    0	19.532110	34.754641	0.925015	2.055344	-0.663051	3.980786	0.188314	0.351217	0.013479	0.999743	0.010276	-0.003315	0.019902	
59921	    0	16.359497	39.301394	-1.978151	1.490077	-0.453012	2.568151	0.158569	0.395203	-0.016479	0.999887	0.007450	-0.002265	0.012840	
59922	    0	11.087827	40.735375	-5.184345	0.583082	-0.354198	1.290905	0.108335	0.408207	-0.050461	0.999973	0.002915	-0.001771	0.006454	
59923	    0	8.879947	39.916114	-7.130587	-0.332451	-0.431824	0.012970	0.088928	0.399048	-0.071777	0.999996	-0.001662	-0.002159	0.000065	
59924	    0	7.080710	39.116707	-5.358565	-0.987064	-0.437551	-1.275077	0.073418	0.390434	-0.055355	0.999965	-0.004935	-0.002188	-0.006375	
59925	    0	6.926004	40.971401	-14.968230	-0.986519	-0.899350	-2.752793	0.075562	0.407959	-0.151367	0.999883	-0.004932	-0.004497	-0.013763	
59926	    0	21.672232	73.511012	-26.727582	0.802733	-1.110626	-5.861404	0.239625	0.729372	-0.263052	0.999547	0.004013	-0.005552	-0.029303	
59927	    0	54.829302	1.992980	13.857652	0.751638	0.509168	-6.696831	0.548889	0.001038	0.137207	0.999429	0.003757	0.002545	-0.033478	
59928	    0	31.678216	-42.635667	16.143555	3.275212	-2.342190	-4.400333	0.305399	-0.435766	0.157971	0.999555	0.016374	-0.011709	-0.021998	
59929	    0	1.988426	-6.327164	11.649525	4.685665	-1.681765	-6.127995	0.016907	-0.066528	0.115112	0.999221	0.023422	-0.008407	-0.030632	
59930	    0	0.845924	28.944777	0.429003	4.171156	-1.696010	-5.757851	0.016711	0.288871	0.010438	0.999331	0.020851	-0.008478	-0.028783	
59931	    0	9.091751	19.911050	-3.279971	1.993251	-2.082336	-4.822412	0.096008	0.197144	-0.029846	0.999605	0.009965	-0.010410	-0.024109	
59932	    0	-5.552889	11.614928	-10.163157	0.244155	-1.493353	-3.491422	-0.052729	0.117210	-0.101890	0.999819	0.001221	-0.007466	-0.017456	
59933	    0	0.770096	7.267481	-6.049546	-0.578327	-0.848989	-2.629177	0.008911	0.072388	-0.060669	0.999900	-0.002892	-0.004245	-0.013145	
59934	    0	14.453398	4.409528	-3.338470	-0.968968	-0.660729	-2.685643	0.145217	0.041987	-0.033113	0.999892	-0.004845	-0.003304	-0.013428	
59935	    0	22.267117	7.490612	-2.092392	-0.791952	-0.796339	-2.237760	0.223572	0.072327	-0.020325	0.999921	-0.003960	-0.003982	-0.011189	
59936	    0	17.566443	3.263137	-0.637405	-0.662819	-1.031137	-2.013825	0.176011	0.030841	-0.005571	0.999930	-0.003314	-0.005156	-0.010069	
59937	    0	12.859674	6.794501	-2.102773	-0.246434	-0.744452	-1.966132	0.129333	0.066650	-0.020630	0.999944	-0.001232	-0.003722	-0.009830	
59938	    0	14.100681	8.331563	-2.925137	-0.369267	-0.482565	-1.643583	0.141755	0.082099	-0.029062	0.999961	-0.001846	-0.002413	-0.008218	
59939	    0	11.313542	5.046750	-6.344717	-0.452236	-0.254824	-1.239023	0.113525	0.049622	-0.063416	0.999977	-0.002261	-0.001274	-0.006195	
59940	    0	11.328325	5.998040	-6.802004	-0.499156	0.060654	-0.940900	0.113543	0.059277	-0.068203	0.999986	-0.002496	0.000303	-0.004704	
59941	    0	13.086870	4.269897	-8.248516	-0.281525	0.241280	-0.715639	0.130920	0.042114	-0.082703	0.999991	-0.001408	0.001206	-0.003578	
59942	    0	17.142810	5.914106	-8.567587	-0.360871	0.506593	-0.523187	0.171364	0.058537	-0.086216	0.999991	-0.001804	0.002533	-0.002616	
59943	    0	21.322642	2.449494	-7.426160	-0.489618	0.706485	-0.419618	0.213013	0.023865	-0.075073	0.999989	-0.002448	0.003532	-0.002098	
59944	    0	21.859771	-0.774147	-5.199140	-0.701527	0.789456	-0.438502	0.218372	-0.008405	-0.052825	0.999983	-0.003508	0.003947	-0.002192	
59945	    0	22.176061	-0.804712	-4.531195	-1.138316	0.793655	-0.489049	0.221558	-0.008850	-0.046143	0.999972	-0.005692	0.003968	-0.002445	
59946	    0	22.511908	0.315063	-1.753142	-1.693944	0.752843	-0.676929	0.225060	0.002235	-0.018400	0.999950	-0.008470	0.003764	-0.003385	
59947	    0	21.809395	-1.122198	1.128977	-2.434610	0.576990	-0.801872	0.218079	-0.011963	0.010803	0.999913	-0.012173	0.002885	-0.004009	
59948	    0	19.715977	-3.545270	2.837564	-2.869141	0.441949	-0.758390	0.197087	-0.035792	0.028452	0.999887	-0.014345	0.002210	-0.003792	
59949	    0	18.239184	-3.326746	4.763157	-3.064092	0.383202	-0.664548	0.182373	-0.033142	0.047791	0.999875	-0.015320	0.001916	-0.003323	
59950	    0	14.804126	-4.853679	5.679109	-4.022878	0.318168	-0.630995	0.147981	-0.047852	0.057523	0.999791	-0.020113	0.001591	-0.003155	
59951	    0	11.653883	-8.282601	3.992856	-4.578805	0.219174	-0.460856	0.116394	-0.082153	0.041687	0.999734	-0.022892	0.001096	-0.002304	
59952	    0	10.044049	-11.204944	1.351879	-4.167864	0.130282	-0.544397	0.100145	-0.112009	0.015788	0.999779	-0.020838	0.000651	-0.002722	
59953	    0	11.576908	-9.953379	-0.704890	-2.718447	0.187117	-0.936159	0.115295	-0.100159	-0.005798	0.999896	-0.013592	0.000936	-0.004681	
59954	    0	11.082460	-6.454693	-1.806755	-1.317236	0.236134	-1.448655	0.110332	-0.065465	-0.017769	0.999951	-0.006586	0.001181	-0.007243	
59955	    0	9.163861	-1.711712	-5.845088	-1.061080	0.119784	-1.931039	0.091431	-0.018311	-0.058411	0.999939	-0.005305	0.000599	-0.009655	
59956	    0	8.720222	-5.392784	-5.611471	-0.372323	0.053216	-2.370128	0.086539	-0.055060	-0.056036	0.999928	-0.001862	0.000266	-0.011850	
59957	    0	5.357316	-5.519105	-3.903396	-0.031854	0.141149	-2.912243	0.052734	-0.055969	-0.039062	0.999893	-0.000159	0.000706	-0.014561	
59958	    0	7.221911	-4.391771	-2.872027	0.510437	0.375007	-3.717834	0.071333	-0.045176	-0.028969	0.999822	0.002552	0.001875	-0.018588	
59959	    0	8.922713	-0.222898	-1.516630	0.757667	0.451129	-4.577288	0.089111	-0.004211	-0.015381	0.999728	0.003788	0.002255	-0.022884	
