// Start Time: Unknown
// Update Rate: 100.0Hz
// Filter Profile: human (34.3)
// Firmware Version: 2.1.4
PacketCounter	SampleTimeFine	Acc_X	Acc_Y	Acc_Z	Gyr_X	Gyr_Y	Gyr_Z	VelInc_X	VelInc_Y	VelInc_Z	OriInc_q0	OriInc_q1	OriInc_q2	OriInc_q3	
15458	    0	11.578013	20.215825	2.075678	-0.371760	-0.346582	-3.367396	0.119126	0.200210	0.020588	0.999855	-0.001859	-0.001733	-0.016836	
15459	    0	14.539583	17.304319	0.611928	-0.983495	-0.457604	-3.854628	0.148682	0.170227	0.005615	0.999799	-0.004917	-0.002288	-0.019272	
15460	    0	8.669247	29.529386	-29.818706	-0.144211	-2.078662	-4.642224	0.096604	0.292913	-0.297429	0.999676	-0.000721	-0.010392	-0.023209	
15461	    0	25.572536	8.839290	-16.155135	1.513879	-0.539281	-5.504599	0.258484	0.082520	-0.160217	0.999589	0.007568	-0.002696	-0.027519	
15462	    0	55.455128	-21.073985	29.807268	2.257787	1.135285	-6.356525	0.549082	-0.231574	0.292409	0.999414	0.011287	0.005675	-0.031776	
15463	    0	22.703910	-5.543698	11.448258	5.490942	-1.964185	-5.968681	0.224060	-0.065308	0.114990	0.999129	0.027447	-0.009818	-0.029835	
15464	    0	5.356747	18.884854	10.200959	4.713713	-0.803361	-5.466327	0.058234	0.184822	0.106626	0.999340	0.023563	-0.004016	-0.027326	
15465	    0	14.858174	21.222278	5.683575	2.851719	-0.960683	-5.155947	0.153687	0.207458	0.060547	0.999554	0.014256	-0.004803	-0.025776	
15466	    0	7.350875	9.267195	-3.192483	1.003166	-1.516672	-4.315961	0.075725	0.091210	-0.030896	0.999725	0.005015	-0.007583	-0.021578	
15467	    0	1.343896	11.682233	-7.629352	0.644715	-0.674281	-3.303690	0.015625	0.116821	-0.075867	0.999852	0.003223	-0.003371	-0.016518	
15468	    0	7.714781	10.332528	-6.559900	-0.652906	-0.418485	-2.605900	0.078621	0.102093	-0.065770	0.999907	-0.003264	-0.002092	-0.013029	
15469	    0	11.604092	6.063701	-3.734435	-0.625622	-0.410278	-1.945531	0.116699	0.059387	-0.037292	0.999946	-0.003128	-0.002051	-0.009727	
15470	    0	12.323806	5.811682	-3.145382	-0.830089	-0.354390	-1.501866	0.123725	0.057058	-0.031473	0.999961	-0.004150	-0.001772	-0.007509	
15471	    0	15.495538	6.663970	-1.378890	-0.704008	-0.214388	-1.103219	0.155334	0.065735	-0.013855	0.999977	-0.003520	-0.001072	-0.005516	
15472	    0	19.762158	6.226417	-1.732586	-0.663952	-0.135041	-0.886350	0.197906	0.061330	-0.017397	0.999984	-0.003320	-0.000675	-0.004432	
15473	    0	20.472741	2.961648	-3.474216	-0.714877	-0.054741	-0.667575	0.204834	0.028809	-0.034790	0.999988	-0.003574	-0.000274	-0.003338	
15474	    0	20.896542	1.277881	-4.349339	-0.990492	0.232889	-0.516322	0.208946	0.012023	-0.043797	0.999983	-0.004952	0.001164	-0.002582	
15475	    0	22.151661	0.188682	-4.178208	-1.278507	0.402836	-0.579076	0.221436	0.000977	-0.042236	0.999973	-0.006392	0.002014	-0.002895	
15476	    0	21.304319	-0.658625	-4.374677	-1.731516	0.401884	-0.535973	0.212935	-0.007538	-0.044112	0.999956	-0.008657	0.002009	-0.002680	
15477	    0	20.010344	-0.356320	-3.605219	-2.162599	0.412569	-0.635161	0.200015	-0.004591	-0.036419	0.999934	-0.010813	0.002063	-0.003176	
15478	    0	18.253702	0.912447	-2.333403	-2.928654	0.402466	-0.557348	0.182513	0.008269	-0.023827	0.999887	-0.014643	0.002012	-0.002787	
15479	    0	16.925835	0.377285	-0.850909	-3.704859	0.327320	-0.372336	0.169250	0.003296	-0.008850	0.999825	-0.018523	0.001637	-0.001862	
15480	    0	14.189317	-3.450186	1.054063	-4.584716	0.252937	-0.189989	0.141874	-0.034386	0.011150	0.999736	-0.022922	0.001265	-0.000950	
15481	    0	12.335889	-6.374463	1.398773	-5.111299	0.274688	-0.086222	0.123352	-0.063416	0.015442	0.999672	-0.025554	0.001373	-0.000431	
15482	    0	11.359167	-8.823685	1.019849	-5.223489	0.325240	0.025371	0.113622	-0.087919	0.012313	0.999657	-0.026114	0.001626	0.000127	
15483	    0	11.122591	-8.571776	0.907321	-4.602268	0.318937	0.057989	0.111267	-0.085449	0.010864	0.999733	-0.023009	0.001595	0.000290	
15484	    0	11.660701	-5.469825	1.094348	-3.687688	0.371191	-0.005722	0.116627	-0.054490	0.011733	0.999827	-0.018437	0.001856	-0.000029	
15485	    0	13.120668	-3.178894	1.931626	-2.938952	0.474757	-0.171668	0.131226	-0.031616	0.019470	0.999888	-0.014694	0.002374	-0.000858	
15486	    0	12.366580	3.058877	2.107671	-2.188732	0.445376	-0.680939	0.123816	0.030394	0.020468	0.999931	-0.010943	0.002227	-0.003405	
15487	    0	9.785828	7.930253	-3.027897	-2.209529	0.579277	-0.955225	0.098145	0.078491	-0.031433	0.999923	-0.011047	0.002896	-0.004776	
15488	    0	8.832823	5.245825	-5.122397	-2.046257	0.752087	-1.214059	0.088448	0.051392	-0.052086	0.999922	-0.010231	0.003760	-0.006070	
15489	    0	6.770709	4.076847	-6.646466	-1.495207	0.745410	-1.758619	0.067810	0.039673	-0.067017	0.999926	-0.007476	0.003727	-0.008793	
15490	    0	7.030819	7.446082	-6.835858	-1.635604	0.833729	-2.086134	0.070788	0.073160	-0.069255	0.999903	-0.008178	0.004169	-0.010430	
15491	    0	8.900215	6.314421	-4.361696	-2.741214	1.290970	-2.262250	0.089417	0.061523	-0.045044	0.999821	-0.013705	0.006454	-0.011311	
15492	    0	10.581648	0.582849	-1.222259	-2.926269	1.714064	-2.304429	0.105762	0.004421	-0.013201	0.999789	-0.014630	0.008570	-0.011521	
15493	    0	10.124680	-3.134577	-0.345338	-2.440031	1.795498	-2.378229	0.100830	-0.032593	-0.003967	0.999814	-0.012199	0.008977	-0.011890	
15494	    0	10.813654	-2.227419	-1.001302	-1.961441	1.831733	-2.600249	0.107738	-0.023780	-0.010773	0.999825	-0.009807	0.009158	-0.013000	
15495	    0	11.856560	-3.287633	-1.089170	-1.794354	2.019626	-2.754382	0.117981	-0.034607	-0.011780	0.999813	-0.008971	0.010098	-0.013771	
15496	    0	11.898961	-5.294036	-2.385507	-1.006759	2.025916	-3.031339	0.117920	-0.054856	-0.024780	0.999821	-0.005033	0.010129	-0.015156	
15497	    0	11.944525	-6.171362	-3.521012	-0.070958	1.903843	-3.365536	0.118042	-0.063721	-0.036316	0.999812	-0.000355	0.009519	-0.016827	
15498	    0	11.416703	-5.828088	-3.370056	0.652551	1.794753	-3.680684	0.112761	-0.060252	-0.034911	0.999784	0.003263	0.008973	-0.018402	
15499	    0	11.879115	-4.987579	-1.548759	1.251520	1.860208	-3.984417	0.117615	-0.052124	-0.016907	0.999739	0.006257	0.009300	-0.019920	
15500	    0	12.611737	-1.851740	-1.096784	1.827238	1.880077	-4.231127	0.125578	-0.021070	-0.012335	0.999690	0.009135	0.009399	-0.021153	
15501	    0	13.021802	-0.899022	-1.060721	2.047378	1.822096	-4.284367	0.129883	-0.011658	-0.011902	0.999676	0.010236	0.009109	-0.021420	
15502	    0	13.084577	-1.942253	-2.933772	2.071592	1.590891	-4.197548	0.130164	-0.021847	-0.030593	0.999694	0.010357	0.007954	-0.020986	
15503	    0	13.083032	-3.490672	-5.034770	2.394342	1.312577	-4.046270	0.129761	-0.036926	-0.051636	0.999701	0.011971	0.006562	-0.020229	
15504	    0	12.565463	-3.669529	-5.816447	2.439728	0.991724	-3.955260	0.124614	-0.038448	-0.059246	0.999718	0.012197	0.004958	-0.019774	
15505	    0	12.176672	-3.900055	-5.738581	2.407478	0.693574	-3.875313	0.120789	-0.040649	-0.058289	0.999733	0.012036	0.003468	-0.019375	
15506	    0	13.133534	-4.336932	-5.171579	2.361109	0.544783	-3.700176	0.130368	-0.045170	-0.052598	0.999755	0.011805	0.002724	-0.018499	
15507	    0	15.966578	-4.691145	-4.360782	2.314928	0.641107	-3.439583	0.158691	-0.049133	-0.044678	0.999780	0.011574	0.003205	-0.017197	
15508	    0	19.180086	-5.562783	-4.014664	2.321399	0.786834	-3.184151	0.190726	-0.058193	-0.041564	0.999798	0.011606	0.003934	-0.015920	
15509	    0	18.537422	-3.751224	-5.758221	2.698124	0.395992	-2.921490	0.184692	-0.039429	-0.058472	0.999800	0.013490	0.001980	-0.014606	
15510	    0	14.134363	-3.192414	-6.857093	2.719086	0.016976	-2.594719	0.140916	-0.032818	-0.069025	0.999823	0.013595	0.000085	-0.012973	
15511	    0	10.423566	-1.570864	-6.509425	2.336218	-0.182159	-2.121060	0.104126	-0.016052	-0.065186	0.999875	0.011681	-0.000911	-0.010605	
15512	    0	8.547344	0.510676	-4.680763	1.862381	-0.263030	-1.547089	0.085573	0.004880	-0.046649	0.999926	0.009312	-0.001315	-0.007735	
15513	    0	8.091366	0.956763	-2.964542	1.416796	-0.243190	-0.932323	0.080994	0.009399	-0.029480	0.999963	0.007084	-0.001216	-0.004662	
15514	    0	7.214723	0.322300	-2.460409	1.038175	-0.207711	-0.259401	0.072177	0.003257	-0.024512	0.999985	0.005191	-0.001039	-0.001297	
15515	    0	5.781472	-0.855313	-2.913369	0.691988	-0.169182	0.524141	0.057861	-0.008301	-0.029114	0.999990	0.003460	-0.000846	0.002621	
15516	    0	4.218453	-1.326060	-3.673196	0.336459	-0.123025	1.281748	0.042291	-0.012928	-0.036728	0.999977	0.001682	-0.000615	0.006409	
15517	    0	2.963976	-0.638836	-4.164374	-0.077058	-0.103571	2.026402	0.029724	-0.006104	-0.041626	0.999948	-0.000385	-0.000518	0.010132	
15518	    0	2.317932	-0.389468	-4.283846	-0.455871	-0.143056	2.727214	0.023261	-0.003675	-0.042813	0.999904	-0.002279	-0.000715	0.013636	
15519	    0	2.014680	-0.464933	-3.891765	-0.781099	-0.203715	3.418144	0.020264	-0.004456	-0.038879	0.999846	-0.003905	-0.001019	0.017090	
15520	    0	1.830192	-0.722920	-3.396788	-1.011541	-0.292609	4.059517	0.018496	-0.007027	-0.033905	0.999780	-0.005057	-0.001463	0.020296	
15521	    0	2.038744	-1.324707	-3.002437	-1.154248	-0.405923	4.657432	0.020752	-0.012939	-0.029907	0.999710	-0.005771	-0.002029	0.023285	
15522	    0	2.773554	-1.983476	-2.750608	-1.250226	-0.526491	5.179833	0.028312	-0.019278	-0.027310	0.999640	-0.006250	-0.002632	0.025896	
15523	    0	3.960373	-2.371733	-2.678021	-1.354219	-0.671482	5.641976	0.040344	-0.022766	-0.026489	0.999573	-0.006770	-0.003357	0.028206	
15524	    0	5.392607	-2.899602	-2.533559	-1.441428	-0.861690	6.032403	0.054879	-0.027531	-0.024899	0.999510	-0.007206	-0.004308	0.030157	
15525	    0	6.830340	-3.162657	-2.439519	-1.495636	-1.057438	6.384688	0.069397	-0.029602	-0.023804	0.999448	-0.007477	-0.005286	0.031918	
15526	    0	8.398369	-3.402707	-2.025108	-1.542213	-1.255289	6.677261	0.085184	-0.031348	-0.019470	0.999393	-0.007710	-0.006275	0.033380	
15527	    0	10.135247	-3.768488	-1.225816	-1.564368	-1.468788	6.914504	0.102661	-0.034241	-0.011230	0.999345	-0.007820	-0.007342	0.034565	
15528	    0	11.563088	-4.030172	0.512144	-1.515740	-1.657871	7.118352	0.116917	-0.036110	0.006371	0.999303	-0.007577	-0.008287	0.035583	
15529	    0	13.218621	-4.471638	1.602378	-1.168155	-1.880343	7.336695	0.133545	-0.039734	0.017517	0.999266	-0.005839	-0.009399	0.036674	
15530	    0	15.600739	-4.416455	2.975131	-0.640078	-2.067139	7.512671	0.157197	-0.038175	0.031501	0.999235	-0.003200	-0.010333	0.037554	
15531	    0	17.911515	-2.810188	4.514730	-0.107412	-2.184105	7.621473	0.179504	-0.021240	0.047119	0.999214	-0.000537	-0.010918	0.038097	
15532	    0	19.976291	-0.213733	5.253224	0.557475	-2.175528	7.664429	0.199066	0.005351	0.054708	0.999203	0.002787	-0.010875	0.038312	
15533	    0	22.067998	2.613460	5.133850	1.178298	-1.991621	7.723802	0.218933	0.034302	0.053711	0.999187	0.005890	-0.009955	0.038609	
15534	    0	24.928981	6.416828	4.562121	1.516565	-1.663471	7.771514	0.246162	0.073417	0.048211	0.999182	0.007581	-0.008315	0.038847	
15535	    0	27.321611	12.852776	3.678638	1.498235	-1.298865	7.693979	0.267761	0.138611	0.039551	0.999210	0.007489	-0.006493	0.038460	
15536	    0	26.486382	17.545660	1.625509	1.487530	-1.005041	7.513198	0.257939	0.185101	0.018916	0.999253	0.007436	-0.005024	0.037557	
15537	    0	25.956649	17.453413	-2.272542	2.094165	-0.828738	6.970247	0.253357	0.183655	-0.019775	0.999329	0.010468	-0.004143	0.034843	
15538	    0	25.671415	20.987651	-5.240873	3.108799	-0.816117	5.894433	0.250568	0.218092	-0.048030	0.999436	0.015541	-0.004080	0.029467	
15539	    0	21.821947	28.329328	-6.781979	3.597003	-0.826952	4.488241	0.212036	0.289246	-0.061768	0.999578	0.017982	-0.004134	0.022438	
15540	    0	16.702942	34.878656	-7.456592	3.159594	-0.853228	3.033699	0.162003	0.352382	-0.068319	0.999750	0.015797	-0.004266	0.015167	
15541	    0	12.038156	38.436277	-5.102552	2.319615	-0.904118	1.705997	0.117310	0.385925	-0.046021	0.999886	0.011598	-0.004520	0.008530	
15542	    0	9.419908	41.092129	-0.689985	1.511212	-0.821124	0.453573	0.093286	0.411168	-0.003409	0.999960	0.007556	-0.004106	0.002268	
15543	    0	9.118456	41.030862	1.796134	0.571445	-0.599483	-0.743107	0.092651	0.409912	0.019409	0.999984	0.002857	-0.002997	-0.003716	
15544	    0	8.805450	33.630573	-0.172699	0.105097	-0.397498	-1.870184	0.091197	0.335464	-0.001371	0.999953	0.000525	-0.001987	-0.009351	
15545	    0	10.607242	25.454500	-1.206580	0.151067	-0.286685	-2.880960	0.109741	0.252991	-0.011719	0.999894	0.000755	-0.001433	-0.014404	
15546	    0	13.131594	21.142802	-1.003055	0.271050	-0.369856	-3.669566	0.135183	0.208984	-0.009499	0.999828	0.001355	-0.001849	-0.018347	
15547	    0	13.565373	21.441897	-7.925064	0.080115	-0.882603	-4.352927	0.140625	0.211426	-0.078552	0.999753	0.000401	-0.004413	-0.021763	
15548	    0	11.662793	34.501745	-24.839932	1.139597	-1.530844	-5.222039	0.127492	0.343187	-0.245492	0.999613	0.005697	-0.007653	-0.026107	
15549	    0	33.526746	-4.951685	5.496551	0.896003	0.381521	-5.612942	0.333801	-0.059143	0.054077	0.999594	0.004479	0.001907	-0.028061	
15550	    0	48.689815	-28.861596	29.238743	4.012379	0.037392	-5.859080	0.478107	-0.308495	0.286241	0.999370	0.020058	0.000187	-0.029289	
15551	    0	14.862218	6.203465	7.176602	5.392432	-1.525350	-5.953349	0.149780	0.055603	0.074463	0.999164	0.026955	-0.007625	-0.029758	
15552	    0	7.877127	23.497418	9.224463	5.049534	-0.796120	-5.402666	0.084652	0.230307	0.098429	0.999308	0.025242	-0.003980	-0.027007	
15553	    0	12.554641	16.309588	3.194096	2.157872	-1.264163	-4.976534	0.129333	0.159546	0.034485	0.999612	0.010788	-0.006320	-0.024879	
15554	    0	3.138988	11.401187	-8.024419	1.340576	-1.193701	-3.635083	0.033937	0.113944	-0.079283	0.999793	0.006702	-0.005968	-0.018174	
15555	    0	4.502034	14.431789	-5.893738	-0.097660	-0.467508	-2.896222	0.047241	0.143616	-0.058899	0.999892	-0.000488	-0.002337	-0.014481	
15556	    0	12.687758	8.063763	-5.113322	-0.922035	-0.296981	-2.224023	0.127838	0.078983	-0.051311	0.999926	-0.004610	-0.001485	-0.011120	
15557	    0	14.246712	2.620249	-4.511709	-0.846686	-0.337988	-1.726559	0.142761	0.024780	-0.044983	0.999952	-0.004233	-0.001690	-0.008633	
15558	    0	13.264719	5.275233	-3.328258	-0.690849	-0.262454	-1.379409	0.133050	0.051721	-0.033288	0.999969	-0.003454	-0.001312	-0.006897	
15559	    0	16.705046	6.692440	-1.347981	-0.607304	-0.156976	-1.081092	0.167419	0.065979	-0.013550	0.999980	-0.003036	-0.000785	-0.005405	
15560	    0	20.795457	5.222737	-1.598811	-0.754360	-0.043869	-0.831990	0.208173	0.051301	-0.016137	0.999984	-0.003772	-0.000219	-0.004160	
15561	    0	21.627376	2.046058	-3.617032	-0.941282	0.160981	-0.644687	0.216309	0.019592	-0.036438	0.999983	-0.004706	0.000805	-0.003223	
15562	    0	23.158706	-0.026195	-3.473160	-0.975807	0.384143	-0.791746	0.231516	-0.001349	-0.035172	0.999978	-0.004879	0.001921	-0.003959	
15563	    0	22.635011	-1.427320	-3.991614	-1.275648	0.463300	-0.806435	0.226196	-0.015442	-0.040344	0.999969	-0.006378	0.002316	-0.004032	
15564	    0	20.581772	-0.204339	-3.829041	-1.827272	0.438507	-0.854507	0.205721	-0.003275	-0.038715	0.999947	-0.009136	0.002192	-0.004272	
15565	    0	18.419785	2.186758	-3.910408	-2.699942	0.375379	-0.764491	0.184204	0.020630	-0.039734	0.999899	-0.013499	0.001877	-0.003822	
15566	    0	17.602059	0.245087	-2.438760	-3.723557	0.268380	-0.594174	0.175993	0.001471	-0.024657	0.999821	-0.018617	0.001342	-0.002971	
15567	    0	15.297385	-5.125234	-0.485822	-4.310944	0.126086	-0.303674	0.152893	-0.051575	-0.003845	0.999766	-0.021553	0.000630	-0.001518	
15568	    0	12.150663	-5.816255	0.746618	-5.004262	0.169581	-0.253895	0.121440	-0.058107	0.008818	0.999685	-0.025019	0.000848	-0.001269	
15569	    0	11.220174	-6.443408	0.967962	-5.224442	0.229099	-0.097667	0.112183	-0.064209	0.011230	0.999658	-0.026119	0.001145	-0.000488	
15570	    0	10.614450	-7.099658	0.299855	-5.086112	0.152795	-0.040059	0.106133	-0.070912	0.004722	0.999676	-0.025428	0.000764	-0.000200	
15571	    0	10.841108	-5.457489	-0.796274	-4.356729	0.119219	-0.030520	0.108398	-0.054749	-0.006836	0.999763	-0.021782	0.000596	-0.000153	
15572	    0	12.292292	-2.783608	1.265849	-3.470787	0.247396	-0.163087	0.122916	-0.027713	0.012988	0.999847	-0.017353	0.001237	-0.000815	
15573	    0	10.552303	3.375527	1.716489	-3.247982	0.261128	-0.634795	0.105652	0.033691	0.016479	0.999862	-0.016239	0.001306	-0.003174	
15574	    0	10.760828	6.029641	-1.201041	-3.201637	0.400371	-0.986718	0.107878	0.059560	-0.013184	0.999857	-0.016007	0.002002	-0.004933	
15575	    0	9.106913	3.436630	-1.345544	-2.938783	0.589015	-1.297818	0.091248	0.033569	-0.014221	0.999866	-0.014693	0.002945	-0.006489	
15576	    0	7.911795	4.716363	-2.292879	-2.585335	0.772701	-1.830945	0.079453	0.046133	-0.023836	0.999866	-0.012926	0.003863	-0.009154	
15577	    0	8.392678	5.395216	-3.388303	-2.166089	0.934836	-2.437708	0.084412	0.052551	-0.034851	0.999856	-0.010830	0.004674	-0.012188	
15578	    0	8.937186	7.040944	-4.511477	-2.025144	1.040898	-2.840390	0.090117	0.068668	-0.046284	0.999834	-0.010125	0.005204	-0.014201	
15579	    0	9.151852	6.658411	-5.761395	-2.017139	1.097171	-2.955800	0.092163	0.064636	-0.058777	0.999825	-0.010085	0.005486	-0.014778	
15580	    0	10.033057	3.589263	-5.136906	-1.397010	1.180134	-2.893017	0.100526	0.034077	-0.052204	0.999853	-0.006985	0.005900	-0.014464	
15581	    0	10.221250	-1.301380	-2.988256	-0.924533	1.373352	-2.812320	0.101807	-0.014587	-0.030518	0.999866	-0.004622	0.006866	-0.014061	
15582	    0	10.523180	-3.015440	-0.263366	-0.383586	1.676449	-2.933262	0.104748	-0.031699	-0.003453	0.999855	-0.001918	0.008382	-0.014666	
15583	    0	11.675648	-4.659552	0.461452	0.454738	1.871027	-3.195376	0.116028	-0.048462	0.003418	0.999825	0.002274	0.009355	-0.015976	
15584	    0	12.115008	-5.412698	0.034928	1.271148	1.931329	-3.444156	0.120188	-0.056198	-0.001167	0.999784	0.006355	0.009656	-0.017220	
15585	    0	12.146950	-5.868736	-1.363964	2.012046	1.884815	-3.632670	0.120239	-0.060730	-0.015381	0.999740	0.010059	0.009423	-0.018162	
15586	    0	12.598511	-5.684977	-2.224274	2.445085	1.827805	-3.846173	0.124650	-0.058969	-0.024098	0.999698	0.012224	0.009138	-0.019229	
15587	    0	12.984401	-4.727549	-2.826587	2.620984	1.742935	-4.045548	0.128601	-0.049500	-0.030029	0.999671	0.013103	0.008714	-0.020226	
15588	    0	13.181756	-3.863671	-2.930507	2.660861	1.636308	-4.162686	0.130733	-0.040961	-0.030912	0.999661	0.013303	0.008181	-0.020811	
15589	    0	13.483376	-2.278040	-1.967420	2.614320	1.490191	-4.284394	0.134155	-0.025391	-0.020996	0.999657	0.013070	0.007450	-0.021420	
15590	    0	13.833602	-1.365149	-2.316046	2.336375	1.231137	-4.373072	0.137851	-0.016391	-0.024191	0.999673	0.011681	0.006155	-0.021863	
15591	    0	13.628124	-1.763117	-3.839665	2.063954	0.956248	-4.286614	0.135681	-0.020142	-0.039246	0.999705	0.010319	0.004781	-0.021431	
15592	    0	12.832030	-2.523087	-4.655956	1.854296	0.786659	-4.112031	0.127586	-0.027423	-0.047310	0.999738	0.009271	0.003933	-0.020558	
15593	    0	13.545757	-2.725955	-4.784010	1.480405	0.786650	-3.911123	0.134705	-0.029541	-0.048584	0.999773	0.007401	0.003933	-0.019554	
15594	    0	17.157482	-3.795540	-3.621183	1.142003	1.104998	-3.583756	0.170656	-0.040808	-0.037384	0.999807	0.005710	0.005525	-0.017918	
15595	    0	20.748438	-4.191521	-4.615280	1.442990	0.981958	-3.235045	0.206543	-0.044922	-0.047485	0.999830	0.007215	0.004910	-0.016174	
15596	    0	19.785935	-2.631649	-7.743183	1.798719	0.453018	-2.903128	0.197280	-0.028482	-0.078129	0.999851	0.008993	0.002265	-0.014515	
15597	    0	14.013439	-3.564643	-8.813251	1.753303	0.071910	-2.502539	0.139648	-0.036621	-0.088501	0.999883	0.008766	0.000360	-0.012512	
15598	    0	9.477473	-1.580787	-7.032895	1.149584	-0.095942	-1.958508	0.094650	-0.016331	-0.070376	0.999935	0.005748	-0.000480	-0.009792	
15599	    0	7.075224	0.970450	-4.069415	0.621039	-0.215723	-1.390089	0.070862	0.009338	-0.040588	0.999970	0.003105	-0.001079	-0.006950	
15600	    0	6.675911	1.087441	-2.087731	0.261117	-0.256349	-0.819781	0.066830	0.010628	-0.020778	0.999990	0.001306	-0.001282	-0.004099	
15601	    0	6.113797	-0.050005	-1.491256	-0.025749	-0.264740	-0.154877	0.061157	-0.000549	-0.014832	0.999998	-0.000129	-0.001324	-0.000774	
15602	    0	5.708560	-1.811472	-2.111717	-0.276948	-0.216294	0.598336	0.057162	-0.017973	-0.021030	0.999993	-0.001385	-0.001081	0.002992	
15603	    0	4.997664	-2.641825	-3.027007	-0.494961	-0.214388	1.232919	0.050171	-0.026184	-0.030151	0.999977	-0.002475	-0.001072	0.006165	
15604	    0	4.048988	-1.769314	-4.009527	-0.709927	-0.317579	1.856263	0.040716	-0.017458	-0.039968	0.999949	-0.003550	-0.001588	0.009281	
15605	    0	3.681604	-1.088654	-4.480598	-0.867297	-0.442518	2.490309	0.037048	-0.010620	-0.044678	0.999910	-0.004336	-0.002213	0.012451	
15606	    0	4.046326	-0.899468	-3.849384	-1.051380	-0.538660	3.128007	0.040703	-0.008561	-0.038339	0.999860	-0.005257	-0.002693	0.015639	
15607	    0	4.474163	-1.520692	-2.890575	-1.092600	-0.616304	3.724147	0.045105	-0.014526	-0.028687	0.999806	-0.005463	-0.003081	0.018620	
15608	    0	4.912279	-2.838411	-2.061704	-0.895764	-0.712835	4.281776	0.049789	-0.027414	-0.020316	0.999754	-0.004478	-0.003564	0.021407	
15609	    0	5.672888	-3.807358	-1.486668	-0.544030	-0.833785	4.777238	0.057678	-0.036743	-0.014526	0.999701	-0.002720	-0.004169	0.023884	
15610	    0	6.557418	-3.422115	-1.139492	-0.229290	-0.944247	5.195459	0.066486	-0.032515	-0.011045	0.999650	-0.001146	-0.004721	0.025974	
15611	    0	7.246028	-2.681750	-1.363330	-0.050361	-1.047466	5.591574	0.073242	-0.024780	-0.013245	0.999595	-0.000252	-0.005237	0.027954	
15612	    0	8.130933	-3.145618	-1.460573	0.031285	-1.173011	6.000691	0.082288	-0.028995	-0.014130	0.999533	0.000156	-0.005864	0.029999	
15613	    0	9.120541	-3.760549	-1.058432	0.083175	-1.281010	6.375483	0.092407	-0.034668	-0.010010	0.999471	0.000416	-0.006404	0.031872	
15614	    0	10.056783	-3.809538	-0.666520	0.136974	-1.376229	6.685411	0.101809	-0.034701	-0.005992	0.999417	0.000685	-0.006880	0.033421	
15615	    0	10.853772	-3.364648	-0.040683	0.133733	-1.452942	6.955657	0.109619	-0.029846	0.000366	0.999369	0.000669	-0.007263	0.034771	
15616	    0	11.612740	-3.272846	0.746928	0.234466	-1.529278	7.221528	0.117146	-0.028520	0.008327	0.999318	0.001172	-0.007645	0.036099	
15617	    0	13.120980	-3.139939	1.540188	0.459402	-1.547430	7.503825	0.132141	-0.026489	0.016357	0.999263	0.002296	-0.007735	0.037510	
15618	    0	14.858346	-2.423901	2.028496	0.778978	-1.555094	7.800843	0.149217	-0.018508	0.021364	0.999201	0.003894	-0.007773	0.038994	
15619	    0	16.878362	-0.974627	3.036849	0.934101	-1.507803	8.032202	0.168762	-0.003113	0.031616	0.999154	0.004669	-0.007537	0.040150	
15620	    0	19.291777	0.788664	3.570591	1.141118	-1.398494	8.166977	0.192131	0.015535	0.037126	0.999125	0.005704	-0.006990	0.040823	
15621	    0	22.137484	4.092907	2.276814	1.354809	-1.263038	8.214707	0.219299	0.049805	0.024475	0.999113	0.006772	-0.006313	0.041061	
15622	    0	25.334603	8.701804	0.873001	1.242426	-1.016530	8.189861	0.249453	0.097226	0.010588	0.999129	0.006210	-0.005081	0.040937	
15623	    0	28.034229	14.718997	-0.122851	0.898228	-0.784328	8.061923	0.274109	0.158325	0.000549	0.999169	0.004490	-0.003921	0.040298	
15624	    0	28.160297	19.958974	-0.604445	0.653814	-0.634545	7.750952	0.273605	0.210315	-0.004492	0.999238	0.003268	-0.003172	0.038745	
15625	    0	27.498561	22.527296	-3.090351	0.901416	-0.643297	7.106023	0.266846	0.234985	-0.028992	0.999353	0.004506	-0.003216	0.035522	
15626	    0	25.525659	26.659894	-5.211468	1.477478	-0.687709	5.981068	0.247299	0.274446	-0.049247	0.999519	0.007386	-0.003438	0.029901	
15627	    0	21.508801	32.812401	-5.589721	1.797096	-0.754624	4.538425	0.207764	0.333374	-0.052124	0.999695	0.008985	-0.003773	0.022690	
15628	    0	16.554612	37.258038	-4.445624	1.641169	-0.802082	3.052109	0.160000	0.375395	-0.040734	0.999842	0.008205	-0.004010	0.015260	
15629	    0	12.622059	39.247807	-1.157871	1.333837	-0.761430	1.632725	0.123047	0.393555	-0.008484	0.999937	0.006669	-0.003807	0.008163	
15630	    0	10.087615	41.209174	1.478522	1.021391	-0.604824	0.266268	0.100278	0.412142	0.017194	0.999981	0.005107	-0.003024	0.001331	
15631	    0	9.808773	39.575561	1.822509	0.557903	-0.408938	-1.005560	0.100037	0.395203	0.019531	0.999981	0.002789	-0.002045	-0.005028	
15632	    0	9.837022	33.716412	-0.121354	0.256734	-0.264173	-2.178236	0.102036	0.336067	-0.000648	0.999939	0.001284	-0.001321	-0.010891	
15633	    0	11.115581	26.813483	-1.148316	0.189980	-0.212678	-3.138100	0.115356	0.266357	-0.011108	0.999875	0.000950	-0.001063	-0.015690	
15634	    0	12.919587	22.289217	-0.505015	0.085264	-0.242058	-3.851748	0.133462	0.220351	-0.004796	0.999813	0.000426	-0.001210	-0.019258	
15635	    0	15.835616	19.888837	-9.017068	-0.392758	-0.806498	-4.510132	0.163147	0.195068	-0.089905	0.999735	-0.001964	-0.004032	-0.022549	
15636	    0	9.183459	20.940179	-33.433535	1.124522	-2.084229	-4.935499	0.100463	0.208865	-0.332143	0.999625	0.005622	-0.010420	-0.024674	
15637	    0	31.298201	-16.402848	-5.680579	1.798475	-0.024226	-5.199325	0.308594	-0.171570	-0.058289	0.999621	0.008991	-0.000121	-0.025993	
15638	    0	50.445622	-25.251330	30.854918	4.768831	0.292281	-6.219360	0.496574	-0.275285	0.301435	0.999230	0.023838	0.001461	-0.031089	
15639	    0	13.186741	18.868843	6.312782	5.416851	-1.507034	-5.928926	0.136841	0.182861	0.069153	0.999166	0.027077	-0.007533	-0.029636	
15640	    0	10.398843	29.200288	11.439388	4.038147	-0.617893	-4.819718	0.110579	0.286998	0.120558	0.999500	0.020187	-0.003089	-0.024095	
15641	    0	12.470740	10.637268	3.261638	1.261269	-1.145100	-4.675775	0.126953	0.103210	0.033997	0.999690	0.006306	-0.005725	-0.023376	
15642	    0	3.146738	8.326505	-7.537791	1.133985	-0.922638	-3.442965	0.033245	0.083128	-0.074756	0.999825	0.005670	-0.004613	-0.017214	
15643	    0	6.680513	12.911611	-4.837084	0.306140	-0.230415	-2.806948	0.068665	0.128235	-0.048096	0.999899	0.001531	-0.001152	-0.014034	
15644	    0	13.471794	8.589209	-2.770299	-0.571645	-0.229650	-2.199793	0.135683	0.084324	-0.027790	0.999934	-0.002858	-0.001148	-0.010999	
15645	    0	14.021507	4.663970	-1.625162	-0.583657	-0.300411	-1.683067	0.140625	0.045410	-0.016174	0.999959	-0.002918	-0.001502	-0.008415	
15646	    0	12.681736	7.237266	-2.229897	-0.810821	-0.243571	-1.234829	0.127288	0.071497	-0.022435	0.999971	-0.004054	-0.001218	-0.006174	
15647	    0	16.518314	7.668268	-0.233203	-0.832944	-0.103760	-0.900274	0.165527	0.075928	-0.002563	0.999981	-0.004165	-0.000519	-0.004501	
15648	    0	20.172930	3.951030	-1.101028	-0.902562	-0.121880	-0.617412	0.201857	0.038837	-0.011064	0.999985	-0.004513	-0.000609	-0.003087	
15649	    0	20.034278	1.714090	-3.596342	-1.002508	0.024605	-0.479891	0.200378	0.016479	-0.036072	0.999984	-0.005013	0.000123	-0.002399	
15650	    0	20.373587	0.716170	-5.488837	-1.375401	0.311854	-0.301554	0.203660	0.006475	-0.055252	0.999973	-0.006877	0.001559	-0.001508	
15651	    0	21.947504	-0.440886	-4.630987	-1.658462	0.441748	-0.469214	0.219360	-0.005310	-0.046753	0.999960	-0.008292	0.002209	-0.002346	
15652	    0	20.284867	-1.384245	-4.614034	-2.128263	0.370224	-0.414475	0.202733	-0.014755	-0.046362	0.999939	-0.010641	0.001851	-0.002072	
15653	    0	18.356861	1.434564	-3.696106	-2.616198	0.364887	-0.468459	0.183533	0.013428	-0.037476	0.999909	-0.013081	0.001824	-0.002342	
15654	    0	17.059742	1.866067	-1.985301	-3.538319	0.340671	-0.269713	0.170588	0.018072	-0.020467	0.999839	-0.017691	0.001703	-0.001348	
15655	    0	14.807441	-1.466681	-0.108464	-4.361881	0.204484	-0.028994	0.148071	-0.014709	-0.000916	0.999762	-0.021808	0.001022	-0.000145	
15656	    0	12.119260	-3.059975	0.535266	-5.160333	0.218797	0.079545	0.121211	-0.030402	0.006006	0.999666	-0.025799	0.001094	0.000398	
15657	    0	11.643147	-5.653928	1.056325	-5.523625	0.368738	0.225859	0.116516	-0.056091	0.011902	0.999616	-0.027615	0.001843	0.001129	
15658	    0	11.485042	-8.075206	0.683392	-5.377852	0.402881	0.366065	0.115014	-0.080323	0.008766	0.999635	-0.026886	0.002014	0.001830	
15659	    0	11.126056	-6.479635	1.168673	-4.588535	0.407446	0.319700	0.111389	-0.064331	0.012939	0.999733	-0.022941	0.002037	0.001598	
15660	    0	11.546853	-2.338143	1.596863	-3.987008	0.456459	0.148020	0.115522	-0.022975	0.016166	0.999798	-0.019934	0.002282	0.000740	
15661	    0	13.293168	1.222135	1.915951	-3.478231	0.585968	-0.144966	0.132996	0.012451	0.018555	0.999844	-0.017390	0.002930	-0.000725	
15662	    0	11.982342	5.654291	0.365470	-3.333069	0.713003	-0.697171	0.120029	0.056170	0.002289	0.999848	-0.016665	0.003565	-0.003486	
15663	    0	10.312489	7.013031	-3.632285	-3.119814	0.964594	-1.118525	0.103333	0.068970	-0.037903	0.999850	-0.015598	0.004823	-0.005592	
15664	    0	8.213278	5.541861	-5.851413	-2.681288	1.116997	-1.741683	0.082275	0.053907	-0.059703	0.999856	-0.013406	0.005585	-0.008708	
15665	    0	8.033957	5.190822	-7.172047	-2.101048	1.243653	-2.427793	0.080505	0.050171	-0.072754	0.999851	-0.010505	0.006218	-0.012138	
15666	    0	8.779313	7.092273	-8.018700	-1.899063	1.288296	-2.868814	0.088269	0.068890	-0.081415	0.999831	-0.009495	0.006441	-0.014343	
15667	    0	9.380996	4.084547	-8.136638	-1.899068	1.400267	-2.920704	0.093811	0.038696	-0.082397	0.999824	-0.009495	0.007001	-0.014603	
15668	    0	10.807494	0.180356	-7.402667	-1.277991	1.515087	-2.952922	0.107516	-0.000263	-0.074845	0.999842	-0.006390	0.007575	-0.014764	
15669	    0	11.605676	0.275810	-4.900938	-0.345439	1.685423	-3.139664	0.115662	0.000854	-0.049988	0.999840	-0.001727	0.008427	-0.015697	
15670	    0	13.035632	-2.339841	-2.285049	-0.382638	2.004367	-3.296296	0.129709	-0.025585	-0.024105	0.999812	-0.001913	0.010021	-0.016480	
15671	    0	14.218586	-6.608605	-1.085713	0.295471	2.201249	-3.675362	0.140808	-0.068665	-0.012512	0.999769	0.001477	0.011005	-0.018375	
15672	    0	14.113920	-7.407324	-1.010703	1.508861	2.046214	-4.137064	0.139451	-0.076883	-0.012113	0.999704	0.007544	0.010230	-0.020683	
15673	    0	13.548203	-6.885360	-0.430901	2.050269	1.952792	-4.620164	0.133789	-0.071899	-0.006348	0.999633	0.010250	0.009763	-0.023098	
15674	    0	13.549972	-5.189923	-0.632583	2.199278	1.874604	-4.896442	0.134106	-0.055111	-0.008182	0.999596	0.010995	0.009372	-0.024479	
15675	    0	14.859633	-3.422814	0.409259	2.447862	1.871187	-5.000261	0.147705	-0.037964	0.002258	0.999568	0.012238	0.009355	-0.024998	
15676	    0	15.844954	-2.023926	0.450408	2.397507	1.756735	-5.135908	0.157889	-0.024340	0.002840	0.999559	0.011986	0.008782	-0.025676	
15677	    0	16.050023	-3.196940	-1.721096	2.223702	1.506250	-5.081876	0.159485	-0.035828	-0.018799	0.999586	0.011117	0.007530	-0.025406	
15678	    0	15.099914	-4.400746	-3.534556	2.251151	1.251953	-4.911862	0.149637	-0.047285	-0.036805	0.999615	0.011254	0.006259	-0.024556	
15679	    0	14.123247	-5.160454	-4.524385	2.032710	1.027991	-4.804033	0.139709	-0.054504	-0.046509	0.999646	0.010162	0.005139	-0.024017	
15680	    0	13.303220	-4.746592	-5.777952	2.009234	0.762262	-4.706335	0.131653	-0.049988	-0.058777	0.999665	0.010045	0.003811	-0.023529	
15681	    0	13.688858	-3.743771	-6.597018	2.059391	0.587716	-4.557519	0.135803	-0.039856	-0.066772	0.999682	0.010296	0.002938	-0.022785	
15682	    0	16.417228	-3.595819	-6.259927	1.970285	0.691479	-4.260654	0.163147	-0.038818	-0.063538	0.999718	0.009851	0.003457	-0.021301	
15683	    0	19.790431	-3.315707	-6.355154	2.124395	0.699293	-3.924894	0.196987	-0.036346	-0.064616	0.999743	0.010621	0.003496	-0.019623	
15684	    0	18.871430	-2.017208	-7.639294	2.232147	0.273725	-3.596194	0.188216	-0.022703	-0.076895	0.999775	0.011160	0.001369	-0.017980	
15685	    0	14.514544	-2.142251	-7.968411	2.014467	-0.104529	-3.131285	0.144836	-0.022888	-0.079834	0.999826	0.010072	-0.000523	-0.015656	
15686	    0	10.834072	-1.167248	-6.233667	1.571334	-0.286876	-2.581505	0.108272	-0.012581	-0.062278	0.999885	0.007856	-0.001434	-0.012907	
15687	    0	8.449283	0.444065	-3.526557	1.033233	-0.354011	-1.982159	0.084595	0.003784	-0.035095	0.999935	0.005166	-0.001770	-0.009911	
15688	    0	7.347701	0.464767	-1.818723	0.583654	-0.314906	-1.353849	0.073535	0.004203	-0.018059	0.999971	0.002918	-0.001575	-0.006769	
15689	    0	6.365277	-0.229508	-1.398373	0.202370	-0.220490	-0.695802	0.063660	-0.002502	-0.013916	0.999992	0.001012	-0.001102	-0.003479	
15690	    0	5.645922	-1.710210	-1.923643	-0.118637	-0.115585	0.039864	0.056474	-0.017102	-0.019194	0.999999	-0.000593	-0.000578	0.000199	
15691	    0	4.242032	-2.837737	-2.771428	-0.296021	-0.110436	0.748446	0.042542	-0.028259	-0.027649	0.999991	-0.001480	-0.000552	0.003742	
15692	    0	2.802267	-2.397399	-3.576098	-0.434880	-0.166895	1.435866	0.028224	-0.023849	-0.035686	0.999971	-0.002174	-0.000834	0.007179	
15693	    0	2.125350	-1.188599	-3.967172	-0.593579	-0.232510	2.095074	0.021423	-0.011780	-0.039612	0.999940	-0.002968	-0.001163	0.010475	
15694	    0	2.155333	-0.728897	-3.200416	-0.724436	-0.234231	2.779866	0.021690	-0.007104	-0.031953	0.999896	-0.003622	-0.001171	0.013899	
15695	    0	2.246091	-0.877392	-2.478581	-0.795024	-0.287452	3.439511	0.022644	-0.008484	-0.024719	0.999843	-0.003975	-0.001437	0.017197	
15696	    0	2.565346	-1.872828	-1.919697	-0.774248	-0.365474	4.065425	0.026063	-0.018275	-0.019078	0.999784	-0.003871	-0.001827	0.020326	
15697	    0	2.870981	-2.920000	-1.602027	-0.567680	-0.475928	4.665045	0.029419	-0.028564	-0.015869	0.999721	-0.002838	-0.002379	0.023323	
15698	    0	3.780098	-3.495541	-1.500809	-0.333061	-0.571888	5.164730	0.038730	-0.033988	-0.014841	0.999660	-0.001665	-0.002859	0.025821	
15699	    0	4.822900	-3.162206	-1.429153	-0.191523	-0.667469	5.578585	0.049133	-0.030273	-0.014099	0.999604	-0.000957	-0.003337	0.027889	
15700	    0	5.675984	-2.689987	-1.649393	-0.159860	-0.803688	5.989987	0.057597	-0.025196	-0.016243	0.999542	-0.000799	-0.004018	0.029945	
15701	    0	6.684878	-3.106394	-1.718787	-0.186189	-0.931519	6.364013	0.067871	-0.028931	-0.016846	0.999482	-0.000931	-0.004657	0.031815	
15702	    0	7.786724	-3.502818	-1.645882	-0.216335	-1.072898	6.688635	0.079067	-0.032414	-0.016001	0.999425	-0.001081	-0.005363	0.033437	
15703	    0	8.695528	-3.703096	-1.419607	-0.241711	-1.236219	6.947244	0.088257	-0.033997	-0.013611	0.999376	-0.001208	-0.006180	0.034729	
15704	    0	9.727734	-3.869486	-0.953700	-0.233321	-1.376650	7.187351	0.098646	-0.035176	-0.008819	0.999330	-0.001166	-0.006882	0.035929	
15705	    0	11.052632	-4.108349	0.166519	-0.107600	-1.465005	7.455712	0.111938	-0.036926	0.002502	0.999278	-0.000538	-0.007323	0.037270	
15706	    0	12.968849	-2.671889	0.425088	0.145759	-1.577404	7.724665	0.130552	-0.021690	0.005261	0.999223	0.000729	-0.007885	0.038613	
15707	    0	14.600937	-1.349327	1.733665	0.303734	-1.686373	7.976455	0.146240	-0.007690	0.018555	0.999167	0.001518	-0.008430	0.039871	
15708	    0	16.548008	-0.256477	2.694611	0.541270	-1.729317	8.097301	0.165164	0.004052	0.028380	0.999139	0.002706	-0.008644	0.040475	
15709	    0	18.974406	2.444019	2.853633	0.808187	-1.713867	8.116210	0.188293	0.031982	0.030273	0.999131	0.004040	-0.008567	0.040569	
15710	    0	21.023451	6.030613	1.987091	1.019200	-1.605307	8.104948	0.207395	0.068643	0.021879	0.999133	0.005095	-0.008024	0.040513	
15711	    0	23.288130	11.150772	1.142363	1.087500	-1.453625	8.089475	0.228027	0.120728	0.013733	0.999141	0.005436	-0.007266	0.040436	
15712	    0	25.836174	18.344640	-0.446463	0.902233	-1.205013	7.982159	0.250787	0.193571	-0.002080	0.999175	0.004510	-0.006023	0.039900	
15713	    0	27.598318	24.946472	-0.819900	0.567960	-0.924151	7.675567	0.266174	0.259827	-0.006226	0.999249	0.002839	-0.004620	0.038368	
15714	    0	27.495116	25.437920	-0.728093	0.724179	-0.756610	6.953528	0.265911	0.263752	-0.005320	0.999381	0.003620	-0.003782	0.034760	
15715	    0	26.158497	26.529901	-1.863801	1.449032	-0.679687	5.679382	0.253967	0.272705	-0.015808	0.999564	0.007244	-0.003398	0.028393	
15716	    0	22.639474	32.493173	-3.981082	1.920483	-0.625473	4.057278	0.219853	0.329794	-0.035965	0.999743	0.009602	-0.003127	0.020285	
15717	    0	17.649254	38.587159	-6.255097	1.667092	-0.696402	2.584183	0.171692	0.388611	-0.058716	0.999875	0.008335	-0.003482	0.012920	
15718	    0	12.684008	40.028963	-4.839831	1.283666	-0.778592	1.251241	0.124512	0.401371	-0.045337	0.999951	0.006418	-0.003893	0.006256	
15719	    0	10.040357	40.595813	-1.158542	1.074226	-0.739103	-0.131989	0.100708	0.405945	-0.009033	0.999978	0.005371	-0.003695	-0.000660	
15720	    0	9.921946	38.508925	1.534800	0.620849	-0.603492	-1.435106	0.101930	0.384314	0.016847	0.999965	0.003104	-0.003017	-0.007175	
15721	    0	11.333647	32.268387	1.595467	0.126651	-0.448430	-2.492590	0.117310	0.321228	0.016418	0.999919	0.000633	-0.002242	-0.012463	
15722	    0	15.369039	24.895753	0.079827	-0.317398	-0.424596	-3.370639	0.157855	0.246322	0.000738	0.999854	-0.001587	-0.002123	-0.016852	
15723	    0	12.257510	17.805529	-17.656817	-0.105295	-1.396872	-4.336160	0.127625	0.175232	-0.175781	0.999740	-0.000526	-0.006984	-0.021679	
15724	    0	13.458843	15.066442	-19.243348	2.190142	-1.279252	-5.301857	0.139775	0.149094	-0.189912	0.999568	0.010949	-0.006395	-0.026505	
15725	    0	41.123454	-6.978105	20.503546	2.232707	1.214979	-5.547430	0.410278	-0.083435	0.201660	0.999534	0.011162	0.006074	-0.027733	
15726	    0	39.509658	-1.969048	25.319717	4.434506	-0.621945	-6.128447	0.393343	-0.037386	0.253724	0.999280	0.022167	-0.003109	-0.030635	
15727	    0	14.867344	16.288917	8.251282	4.405506	-1.026355	-5.166115	0.152344	0.157104	0.086792	0.999411	0.022023	-0.005131	-0.025826	
15728	    0	9.032324	18.004660	7.673689	3.420192	-0.782892	-4.824018	0.094299	0.176453	0.080139	0.999555	0.017098	-0.003914	-0.024117	
15729	    0	9.582544	7.915983	-3.769787	1.126582	-1.184380	-4.365744	0.097745	0.077249	-0.036684	0.999726	0.005632	-0.005921	-0.021827	
15730	    0	1.894471	11.608095	-8.017305	1.140079	-0.666651	-3.186002	0.021061	0.116211	-0.079443	0.999851	0.005700	-0.003333	-0.015929	
15731	    0	11.585850	12.899888	-2.626234	-0.801876	-0.279817	-2.688688	0.117615	0.127319	-0.026611	0.999900	-0.004009	-0.001399	-0.013443	
15732	    0	15.077542	4.780851	-1.698146	-1.021409	-0.399408	-2.078867	0.151295	0.046151	-0.016918	0.999930	-0.005107	-0.001997	-0.010394	
15733	    0	12.100002	4.068562	-2.730735	-1.068134	-0.391967	-1.731904	0.121399	0.039490	-0.027283	0.999946	-0.005341	-0.001960	-0.008659	
15734	    0	12.471801	6.713142	-2.686135	-1.008045	-0.182535	-1.290145	0.125172	0.066189	-0.027082	0.999966	-0.005040	-0.000913	-0.006451	
15735	    0	17.484241	6.494747	-2.134298	-0.995644	-0.064660	-1.000222	0.175171	0.063965	-0.021606	0.999974	-0.004978	-0.000323	-0.005001	
15736	    0	20.268768	3.281984	-3.087772	-1.037414	0.030136	-0.706868	0.202797	0.031942	-0.031075	0.999980	-0.005187	0.000151	-0.003534	
15737	    0	19.191608	1.979315	-5.371106	-1.245890	0.256540	-0.495152	0.191895	0.018982	-0.054077	0.999976	-0.006229	0.001283	-0.002476	
15738	    0	22.501862	0.155430	-5.454768	-1.331915	0.533872	-0.592810	0.224874	0.000522	-0.055154	0.999969	-0.006660	0.002669	-0.002964	
15739	    0	20.989007	-1.509773	-4.859530	-1.686693	0.523384	-0.575265	0.209717	-0.016113	-0.049011	0.999956	-0.008433	0.002617	-0.002876	
15740	    0	19.687008	-1.152736	-4.199367	-1.968994	0.548564	-0.679792	0.196712	-0.012612	-0.042413	0.999942	-0.009845	0.002743	-0.003399	
15741	    0	17.744738	2.111830	-2.906147	-2.626122	0.581569	-0.663016	0.177429	0.020142	-0.029846	0.999904	-0.013130	0.002908	-0.003315	
15742	    0	16.520488	1.090944	-1.491848	-3.483192	0.500705	-0.479914	0.165192	0.010246	-0.015514	0.999842	-0.017415	0.002503	-0.002399	
15743	    0	14.112736	-1.793299	0.692090	-4.308657	0.409921	-0.315882	0.141113	-0.018005	0.007019	0.999764	-0.021542	0.002049	-0.001579	
15744	    0	11.949048	-4.098069	1.683974	-5.064938	0.443506	-0.150697	0.119498	-0.040631	0.017607	0.999676	-0.025322	0.002217	-0.000753	
15745	    0	11.391904	-6.038211	1.389084	-5.327288	0.517335	-0.015261	0.113953	-0.059998	0.015198	0.999641	-0.026633	0.002586	-0.000076	
15746	    0	11.104764	-8.136889	-0.075431	-5.016668	0.503784	0.079736	0.111081	-0.081314	0.001006	0.999681	-0.025081	0.002519	0.000399	
15747	    0	11.049191	-6.575293	-0.551207	-3.890287	0.515780	-0.017549	0.110474	-0.065857	-0.004517	0.999807	-0.019450	0.002579	-0.000088	
15748	    0	12.234461	-4.094999	-0.785004	-2.934183	0.524922	-0.137143	0.122296	-0.041146	-0.007568	0.999888	-0.014670	0.002625	-0.000686	
15749	    0	13.343813	-1.453945	0.614660	-1.902613	0.548563	-0.431831	0.133423	-0.014771	0.005920	0.999949	-0.009513	0.002743	-0.002159	
15750	    0	11.142050	3.428544	-2.486905	-1.690892	0.496491	-0.901809	0.111510	0.033569	-0.025432	0.999950	-0.008454	0.002482	-0.004509	
15751	    0	10.216449	2.953202	-5.506313	-1.463151	0.762952	-1.100177	0.102112	0.028564	-0.055664	0.999950	-0.007316	0.003815	-0.005501	
15752	    0	8.772698	0.365030	-6.177473	-1.036854	1.020259	-1.508168	0.087433	0.002668	-0.062237	0.999945	-0.005184	0.005101	-0.007541	
15753	    0	6.444991	1.289609	-6.780139	-0.382242	1.092747	-2.118734	0.064209	0.012085	-0.068176	0.999927	-0.001911	0.005464	-0.010593	
15754	    0	6.182451	5.550160	-8.171853	-0.251015	1.081883	-2.540479	0.062078	0.054611	-0.082123	0.999904	-0.001255	0.005409	-0.012702	
15755	    0	7.864184	5.396126	-7.877879	-0.675229	1.294188	-2.745167	0.078857	0.052612	-0.079468	0.999879	-0.003376	0.006471	-0.013725	
15756	    0	9.863541	1.444109	-6.138655	-0.496887	1.568674	-2.854476	0.098341	0.012882	-0.062192	0.999864	-0.002484	0.007843	-0.014272	
15757	    0	10.501392	-0.835341	-5.414114	0.164994	1.612933	-3.019099	0.104431	-0.009888	-0.054993	0.999853	0.000825	0.008064	-0.015095	
15758	    0	11.459761	-3.235302	-4.948995	0.664367	1.562015	-3.244963	0.113663	-0.034036	-0.050491	0.999832	0.003322	0.007810	-0.016224	
15759	    0	11.888377	-5.639490	-3.157020	0.942483	1.478674	-3.570029	0.117615	-0.058350	-0.032715	0.999802	0.004712	0.007393	-0.017849	
15760	    0	12.251782	-5.787845	-1.490470	1.296908	1.386370	-3.898354	0.121251	-0.060148	-0.016133	0.999764	0.006484	0.006931	-0.019490	
15761	    0	12.838954	-4.411665	-0.867720	1.485573	1.266781	-4.142360	0.127380	-0.046692	-0.009827	0.999738	0.007427	0.006333	-0.020710	
15762	    0	13.849867	-3.457994	-0.176346	1.256866	1.269074	-4.308710	0.137695	-0.037537	-0.002869	0.999727	0.006284	0.006345	-0.021542	
15763	    0	14.704809	-1.932352	0.559745	0.961963	1.272317	-4.375853	0.146609	-0.022558	0.004560	0.999727	0.004809	0.006361	-0.021877	
15764	    0	15.003737	-1.504660	-0.487351	0.664766	1.105210	-4.285789	0.149639	-0.018238	-0.005758	0.999749	0.003324	0.005526	-0.021427	
15765	    0	14.309069	-2.888556	-2.735522	0.519601	0.899000	-4.102632	0.142334	-0.031738	-0.028076	0.999776	0.002598	0.004495	-0.020512	
15766	    0	13.705473	-3.942145	-3.728215	0.536193	0.776154	-3.966034	0.136092	-0.042026	-0.037922	0.999792	0.002681	0.003881	-0.019829	
15767	    0	13.131778	-3.639454	-4.068131	0.378634	0.681350	-3.920244	0.130432	-0.038879	-0.041199	0.999800	0.001893	0.003407	-0.019600	
15768	    0	12.494606	-2.475216	-5.134244	0.397135	0.523600	-3.824474	0.124309	-0.027031	-0.051721	0.999811	0.001986	0.002618	-0.019121	
15769	    0	12.680657	-3.053955	-5.641228	0.412964	0.450160	-3.628745	0.126099	-0.032715	-0.056763	0.999830	0.002065	0.002251	-0.018143	
15770	    0	14.356758	-3.984436	-5.102856	0.375575	0.615150	-3.328103	0.142721	-0.042128	-0.051546	0.999855	0.001878	0.003076	-0.016640	
15771	    0	17.030309	-4.000372	-4.670781	0.586916	0.772127	-3.009159	0.169495	-0.042419	-0.047485	0.999874	0.002934	0.003860	-0.015045	
15772	    0	18.065006	-4.175764	-5.368760	0.979839	0.536365	-2.655121	0.179932	-0.043884	-0.054382	0.999896	0.004899	0.002682	-0.013275	
15773	    0	15.590802	-4.682727	-5.738108	1.176486	0.318727	-2.286784	0.155270	-0.048265	-0.057910	0.999915	0.005882	0.001594	-0.011434	
15774	    0	11.881820	-3.524288	-5.361208	1.191926	0.167659	-1.832999	0.118445	-0.036009	-0.053925	0.999939	0.005960	0.000838	-0.009165	
15775	    0	9.104238	-2.317186	-4.115111	1.076519	0.096322	-1.206983	0.090881	-0.023499	-0.041321	0.999967	0.005383	0.000482	-0.006035	
15776	    0	7.853582	-1.698671	-2.653157	1.021391	0.093461	-0.490001	0.078482	-0.017043	-0.026655	0.999984	0.005107	0.000467	-0.002450	
15777	    0	6.871556	-1.427446	-1.815108	1.015477	0.077248	0.241090	0.068726	-0.014099	-0.018250	0.999986	0.005077	0.000386	0.001205	
15778	    0	5.405097	-1.580193	-2.217005	0.989922	0.064469	0.955971	0.054118	-0.015433	-0.022264	0.999976	0.004950	0.000322	0.004780	
15779	    0	3.763614	-1.906295	-3.029883	0.882734	0.073434	1.660181	0.037781	-0.018616	-0.030396	0.999955	0.004414	0.000367	0.008301	
15780	    0	2.644672	-1.855292	-3.172470	0.751514	0.102427	2.346098	0.026645	-0.018122	-0.031807	0.999924	0.003757	0.000512	0.011730	
15781	    0	2.285313	-1.564218	-2.996923	0.643374	0.093082	3.025176	0.023071	-0.015198	-0.030029	0.999880	0.003217	0.000465	0.015125	
15782	    0	2.354162	-1.179207	-2.819247	0.526459	0.051883	3.689217	0.023746	-0.011281	-0.028229	0.999825	0.002632	0.000259	0.018445	
15783	    0	2.499556	-0.724538	-2.733382	0.364714	-0.020410	4.324680	0.025146	-0.006653	-0.027344	0.999764	0.001823	-0.000102	0.021622	
15784	    0	2.641677	-0.889881	-2.824742	0.172442	-0.130667	4.914207	0.026643	-0.008222	-0.028237	0.999697	0.000862	-0.000653	0.024569	
15785	    0	3.250326	-2.067316	-2.859875	-0.006677	-0.204493	5.464853	0.033081	-0.019775	-0.028564	0.999626	-0.000033	-0.001022	0.027321	
15786	    0	4.485249	-2.779033	-2.612144	-0.123424	-0.297781	5.926621	0.045689	-0.026461	-0.026037	0.999559	-0.000617	-0.001489	0.029629	
15787	    0	5.931905	-2.515983	-2.450792	-0.275276	-0.407477	6.274687	0.060120	-0.023315	-0.024353	0.999504	-0.001376	-0.002037	0.031368	
15788	    0	7.482944	-2.560415	-2.322432	-0.443159	-0.581085	6.605028	0.075688	-0.023165	-0.022952	0.999448	-0.002215	-0.002905	0.033019	
15789	    0	9.035907	-2.902942	-2.080819	-0.603608	-0.749168	6.922796	0.091370	-0.025940	-0.020386	0.999389	-0.003017	-0.003745	0.034607	
15790	    0	10.801632	-3.001823	-1.413241	-0.829691	-0.893793	7.223791	0.109069	-0.026148	-0.013533	0.999329	-0.004148	-0.004468	0.036111	
15791	    0	12.306726	-3.130222	-0.419013	-0.879883	-1.046816	7.505329	0.124146	-0.026672	-0.003418	0.999272	-0.004398	-0.005233	0.037518	
15792	    0	14.870146	-1.904234	-0.352288	-0.882763	-1.296577	7.805979	0.149312	-0.013234	-0.002489	0.999207	-0.004413	-0.006481	0.039020	
15793	    0	16.799579	-1.107714	2.097726	-0.911008	-1.511796	7.905451	0.168091	-0.004333	0.022278	0.999180	-0.004554	-0.007557	0.039516	
15794	    0	19.350061	1.150706	2.845865	-0.557095	-1.713640	7.814594	0.192599	0.019128	0.030066	0.999196	-0.002785	-0.008566	0.039062	
15795	    0	20.599899	4.237707	3.014497	-0.046552	-1.806931	7.790162	0.203857	0.050354	0.031982	0.999200	-0.000233	-0.009032	0.038940	
15796	    0	22.356106	7.249337	2.850260	0.505390	-1.726989	7.762292	0.220268	0.081011	0.030612	0.999206	0.002526	-0.008633	0.038801	
15797	    0	25.027197	13.629284	1.931578	0.907366	-1.581022	7.600812	0.244690	0.145569	0.021912	0.999236	0.004536	-0.007903	0.037994	
15798	    0	27.214790	22.470636	0.928464	0.900482	-1.357591	7.367928	0.263553	0.234472	0.012135	0.999288	0.004501	-0.006786	0.036831	
15799	    0	26.716800	25.601869	0.624177	0.949483	-1.185090	6.871688	0.258118	0.264954	0.009033	0.999380	0.004746	-0.005924	0.034351	
15800	    0	25.002187	25.994859	0.412336	1.794150	-1.073629	5.856313	0.242235	0.267059	0.007812	0.999516	0.008969	-0.005367	0.029277	
15801	    0	21.895217	29.752638	-0.831534	2.721914	-0.920213	4.451509	0.212280	0.302368	-0.003235	0.999649	0.013608	-0.004601	0.022255	
15802	    0	17.587731	34.835810	-3.417858	2.808769	-0.730375	2.917305	0.170878	0.351303	-0.028628	0.999788	0.014043	-0.003652	0.014585	
15803	    0	13.413972	36.685860	-5.074086	2.323992	-0.672745	1.505330	0.131531	0.368408	-0.046021	0.999898	0.011620	-0.003364	0.007526	
15804	    0	9.999514	36.791272	-3.699586	1.896319	-0.680744	0.241093	0.099669	0.368360	-0.033165	0.999949	0.009481	-0.003404	0.001205	
15805	    0	8.942792	36.531449	-1.219345	1.445982	-0.610360	-1.013198	0.091309	0.364929	-0.009277	0.999956	0.007230	-0.003052	-0.005066	
15806	    0	9.150896	33.842914	-0.318679	0.798435	-0.470363	-2.161457	0.095164	0.337422	-0.001617	0.999930	0.003992	-0.002352	-0.010807	
15807	    0	10.805393	28.187986	-0.746374	0.168807	-0.374618	-3.018305	0.112305	0.280212	-0.007019	0.999884	0.000844	-0.001873	-0.015091	
15808	    0	12.515926	23.016060	-0.437173	-0.474766	-0.298326	-3.648393	0.129336	0.227816	-0.004724	0.999829	-0.002374	-0.001492	-0.018241	
15809	    0	14.207970	17.199008	-2.084755	-1.176356	-0.332668	-4.209474	0.145691	0.168823	-0.021606	0.999760	-0.005881	-0.001663	-0.021046	
15810	    0	12.356507	25.741767	-17.211549	0.187515	-1.215697	-5.179826	0.131220	0.254246	-0.171094	0.999645	0.000937	-0.006078	-0.025896	
15811	    0	15.657010	2.711872	-0.539604	0.962945	-0.970384	-5.184795	0.157227	0.023071	-0.004517	0.999640	0.004814	-0.004851	-0.025921	
15812	    0	27.583520	-23.539488	10.204597	4.029185	0.157192	-4.888590	0.270018	-0.244031	0.096973	0.999497	0.020143	0.000786	-0.024439	
15813	    0	23.967652	5.324776	10.249554	4.867925	-0.657616	-5.637910	0.240662	0.043945	0.104431	0.999301	0.024334	-0.003287	-0.028183	
15814	    0	20.082559	15.263299	5.227862	5.041339	-0.812688	-4.531596	0.203969	0.146640	0.056850	0.999417	0.025202	-0.004063	-0.022654	
15815	    0	13.511898	21.997725	2.206290	2.607438	-1.148348	-4.231721	0.139587	0.216736	0.025696	0.999674	0.013036	-0.005741	-0.021156	
15816	    0	8.642328	7.134686	-4.714376	0.845385	-1.190062	-3.376197	0.087891	0.070068	-0.046326	0.999830	0.004227	-0.005950	-0.016880	
15817	    0	9.213421	9.803255	-3.653399	0.262078	-0.569744	-2.762505	0.093580	0.096794	-0.036141	0.999898	0.001310	-0.002849	-0.013812	
15818	    0	13.106624	10.302025	-1.461510	-0.670447	-0.396165	-2.124259	0.132179	0.101571	-0.014696	0.999935	-0.003352	-0.001981	-0.010621	
15819	    0	15.136351	5.298562	-2.348845	-0.913826	-0.380713	-1.718931	0.151855	0.051575	-0.023438	0.999950	-0.004569	-0.001904	-0.008595	
15820	    0	13.119129	3.117283	-1.959274	-0.763139	-0.373845	-1.443308	0.131448	0.030150	-0.019464	0.999965	-0.003816	-0.001869	-0.007216	
15821	    0	14.493743	5.362040	-1.065493	-0.521854	-0.238611	-1.182565	0.145264	0.052734	-0.010620	0.999978	-0.002609	-0.001193	-0.005913	
15822	    0	19.054428	6.933092	-2.721089	-0.868803	-0.061608	-0.868994	0.190851	0.068383	-0.027451	0.999981	-0.004344	-0.000308	-0.004345	
15823	    0	20.563868	3.903961	-5.000230	-1.234446	-0.007439	-0.566868	0.205750	0.038147	-0.050232	0.999976	-0.006172	-0.000037	-0.002834	
15824	    0	21.657917	-0.156419	-5.596441	-1.457610	0.242808	-0.462346	0.216506	-0.002474	-0.056211	0.999969	-0.007288	0.001214	-0.002312	
15825	    0	24.053213	-0.934348	-4.153512	-1.593801	0.396161	-0.632485	0.240417	-0.010437	-0.041931	0.999961	-0.007969	0.001981	-0.003162	
15826	    0	21.612753	-1.149818	-4.032405	-2.096792	0.395402	-0.655760	0.216007	-0.012631	-0.040623	0.999937	-0.010484	0.001977	-0.003279	
15827	    0	19.387177	-0.654583	-3.004917	-2.652825	0.393880	-0.704216	0.193787	-0.007629	-0.030334	0.999904	-0.013264	0.001969	-0.003521	
15828	    0	17.567024	-1.120208	-1.234665	-3.384758	0.358218	-0.575857	0.175614	-0.011918	-0.012464	0.999850	-0.016923	0.001791	-0.002879	
15829	    0	15.938683	-1.733587	0.568240	-4.010091	0.293752	-0.372340	0.159363	-0.017517	0.005798	0.999796	-0.020049	0.001469	-0.001862	
15830	    0	12.479874	-5.047827	1.544239	-4.746694	0.245308	-0.196094	0.124769	-0.050218	0.016483	0.999717	-0.023731	0.001226	-0.000980	
15831	    0	10.767748	-6.791260	1.162485	-5.233601	0.283274	-0.086985	0.107666	-0.067627	0.013245	0.999656	-0.026165	0.001416	-0.000435	
15832	    0	10.442789	-8.791526	0.232173	-4.892839	0.309594	-0.014116	0.104427	-0.087833	0.004310	0.999699	-0.024462	0.001548	-0.000071	
15833	    0	10.599795	-5.883798	0.013830	-3.868919	0.337240	-0.143442	0.105957	-0.058899	0.001099	0.999811	-0.019343	0.001686	-0.000717	
15834	    0	11.199720	-2.068785	0.012036	-3.249696	0.392741	-0.302519	0.111966	-0.020854	0.000238	0.999865	-0.016248	0.001964	-0.001513	
15835	    0	12.532083	0.205519	1.513118	-2.652062	0.534265	-0.575275	0.125366	0.001892	0.014771	0.999904	-0.013260	0.002671	-0.002876	
15836	    0	10.360396	4.859472	-0.589112	-2.609532	0.519198	-1.017414	0.103832	0.047982	-0.006789	0.999898	-0.013047	0.002596	-0.005087	
15837	    0	10.150474	5.352164	-3.879653	-2.426227	0.704407	-1.207773	0.101685	0.052429	-0.039795	0.999902	-0.012131	0.003522	-0.006039	
15838	    0	8.904447	3.410669	-4.950344	-2.045695	0.885991	-1.582958	0.089087	0.032890	-0.050239	0.999907	-0.010228	0.004430	-0.007915	
15839	    0	8.001467	4.298000	-5.451696	-1.574569	0.968966	-2.146220	0.080200	0.041687	-0.055237	0.999899	-0.007873	0.004845	-0.010731	
15840	    0	7.525533	7.308009	-6.820845	-1.579349	0.956574	-2.511698	0.075831	0.071587	-0.069139	0.999878	-0.007896	0.004783	-0.012558	
15841	    0	8.139235	6.156538	-6.901382	-1.963904	1.130160	-2.611672	0.081787	0.059814	-0.070068	0.999850	-0.009819	0.005651	-0.013058	
15842	    0	9.757698	2.262638	-5.411868	-1.844880	1.367256	-2.608049	0.097483	0.020850	-0.054983	0.999848	-0.009224	0.006836	-0.013040	
15843	    0	10.760063	0.661459	-4.089869	-1.534154	1.503063	-2.631505	0.107361	0.004883	-0.041748	0.999855	-0.007670	0.007515	-0.013157	
15844	    0	11.805010	-0.627965	-2.745606	-1.503453	1.727960	-2.767902	0.117703	-0.008121	-0.028418	0.999838	-0.007517	0.008639	-0.013839	
15845	    0	12.857915	-4.976111	-2.021441	-1.075043	1.937404	-2.945876	0.127625	-0.051758	-0.021179	0.999829	-0.005375	0.009686	-0.014729	
15846	    0	12.718855	-7.723917	-1.660436	-0.220312	1.858440	-3.281788	0.125737	-0.079329	-0.017691	0.999821	-0.001101	0.009292	-0.016408	
15847	    0	12.302895	-7.338174	-1.610000	0.454934	1.743436	-3.635656	0.121521	-0.075562	-0.017334	0.999794	0.002275	0.008717	-0.018177	
15848	    0	12.605645	-6.893670	-1.171296	0.789133	1.746507	-3.913045	0.124566	-0.071334	-0.013083	0.999763	0.003945	0.008732	-0.019564	
15849	    0	13.300796	-4.452226	-1.016952	1.158436	1.751865	-4.114898	0.131958	-0.047180	-0.011597	0.999733	0.005792	0.008759	-0.020573	
15850	    0	13.641239	-2.054798	-1.172978	1.394400	1.662598	-4.159737	0.135842	-0.023290	-0.013017	0.999724	0.006971	0.008312	-0.020797	
15851	    0	13.983932	-1.743533	-1.117543	1.316189	1.559016	-4.167549	0.139343	-0.020264	-0.012390	0.999730	0.006580	0.007794	-0.020836	
15852	    0	13.689296	-2.189499	-3.167957	1.248277	1.352999	-4.159905	0.136182	-0.024530	-0.032750	0.999741	0.006241	0.006764	-0.020798	
15853	    0	13.326956	-2.878760	-4.523686	1.271160	1.166057	-4.059167	0.132385	-0.031189	-0.046204	0.999757	0.006355	0.005830	-0.020294	
15854	    0	14.203305	-4.063168	-4.847216	1.249598	1.151934	-3.883271	0.140929	-0.043068	-0.049550	0.999775	0.006248	0.005759	-0.019415	
15855	    0	17.485598	-6.058456	-3.714352	1.422411	1.344395	-3.637954	0.173462	-0.063477	-0.038757	0.999786	0.007112	0.006721	-0.018188	
15856	    0	21.162011	-5.423925	-4.647729	2.010111	1.277063	-3.439773	0.210346	-0.057384	-0.048389	0.999781	0.010050	0.006385	-0.017198	
15857	    0	20.896530	-5.750764	-8.140058	2.885667	0.786081	-3.184763	0.207703	-0.059631	-0.083069	0.999761	0.014427	0.003930	-0.015923	
15858	    0	14.515163	-5.992125	-9.245210	3.237600	0.324847	-2.911227	0.144122	-0.060514	-0.093663	0.999762	0.016187	0.001624	-0.014555	
15859	    0	9.943527	-3.719271	-7.320337	2.891906	0.098425	-2.472073	0.098938	-0.037354	-0.073792	0.999819	0.014459	0.000492	-0.012360	
15860	    0	7.939842	-0.540494	-3.899953	2.310076	-0.030900	-1.891969	0.079351	-0.005705	-0.039052	0.999888	0.011550	-0.000154	-0.009459	
15861	    0	7.297578	0.194149	-1.831043	1.843491	-0.122836	-1.265743	0.072998	0.001648	-0.018250	0.999937	0.009217	-0.000614	-0.006329	
15862	    0	6.482546	-0.588081	-1.805738	1.458946	-0.105096	-0.528722	0.064819	-0.005920	-0.018066	0.999969	0.007295	-0.000525	-0.002644	
15863	    0	5.649029	-1.766120	-2.787604	1.078802	-0.027657	0.256921	0.056517	-0.017438	-0.027963	0.999984	0.005394	-0.000138	0.001285	
15864	    0	4.785300	-2.305775	-4.234918	0.661854	0.049782	0.957876	0.047952	-0.022688	-0.042437	0.999983	0.003309	0.000249	0.004789	
15865	    0	3.505527	-2.064385	-5.483314	0.359539	0.004578	1.601428	0.035217	-0.020264	-0.054871	0.999966	0.001798	0.000023	0.008007	
15866	    0	3.472959	-1.804824	-5.803892	0.114062	-0.037385	2.287533	0.034944	-0.017616	-0.058043	0.999934	0.000570	-0.000187	0.011437	
15867	    0	3.894069	-1.605813	-4.725871	-0.096134	-0.050928	2.955735	0.039185	-0.015503	-0.047241	0.999890	-0.000481	-0.000255	0.014778	
15868	    0	3.939577	-1.370087	-3.486445	-0.277915	-0.119025	3.548619	0.039652	-0.013047	-0.034822	0.999841	-0.001390	-0.000595	0.017742	
15869	    0	3.725844	-1.597524	-2.521054	-0.408201	-0.173009	4.096512	0.037598	-0.015259	-0.025146	0.999787	-0.002041	-0.000865	0.020481	
15870	    0	3.699096	-1.819885	-2.116543	-0.509308	-0.273157	4.610476	0.037427	-0.017393	-0.021070	0.999730	-0.002546	-0.001366	0.023050	
15871	    0	4.188822	-2.242043	-2.345881	-0.630257	-0.353852	5.064181	0.042480	-0.021423	-0.023315	0.999673	-0.003151	-0.001769	0.025318	
15872	    0	5.113552	-2.829784	-2.621083	-0.729654	-0.491396	5.469831	0.051950	-0.026979	-0.025984	0.999616	-0.003648	-0.002457	0.027346	
15873	    0	6.123526	-2.909405	-2.631947	-0.837067	-0.651454	5.816735	0.062134	-0.027405	-0.026001	0.999562	-0.004185	-0.003257	0.029079	
15874	    0	7.160203	-2.925691	-2.327107	-0.955929	-0.812854	6.134081	0.072550	-0.027151	-0.022844	0.999510	-0.004779	-0.004064	0.030665	
15875	    0	8.402815	-2.984453	-1.905444	-1.027102	-0.983415	6.419766	0.085022	-0.027222	-0.018494	0.999459	-0.005135	-0.004916	0.032093	
15876	    0	9.579273	-2.882918	-0.939302	-1.088357	-1.137004	6.696114	0.096738	-0.025649	-0.008699	0.999408	-0.005441	-0.005684	0.033474	
15877	    0	10.616684	-3.156649	0.014465	-0.999474	-1.285065	6.983155	0.107178	-0.027832	0.000977	0.999357	-0.004996	-0.006424	0.034908	
15878	    0	12.498813	-2.507531	0.553213	-0.771510	-1.433131	7.266006	0.125744	-0.020492	0.006516	0.999307	-0.003857	-0.007164	0.036322	
15879	    0	13.995131	-1.970046	2.092459	-0.567002	-1.603136	7.464133	0.140381	-0.014404	0.022095	0.999267	-0.002834	-0.008014	0.037312	
15880	    0	16.023088	-1.482882	3.314524	-0.131830	-1.710930	7.483413	0.160344	-0.008807	0.034524	0.999263	-0.000659	-0.008553	0.037408	
15881	    0	18.059439	1.014107	3.272212	0.577689	-1.775610	7.487820	0.179749	0.016785	0.034363	0.999255	0.002888	-0.008876	0.037430	
15882	    0	20.166722	4.495532	2.305504	1.180757	-1.670306	7.520099	0.199588	0.052343	0.025023	0.999241	0.005902	-0.008349	0.037591	
15883	    0	22.434806	9.774247	1.251150	1.540188	-1.485815	7.451970	0.220398	0.105896	0.014954	0.999249	0.007699	-0.007427	0.037251	
15884	    0	23.750501	17.147911	-0.205455	1.571461	-1.295783	7.321403	0.231019	0.180017	0.000849	0.999278	0.007855	-0.006477	0.036598	
15885	    0	24.105504	21.938397	-0.629125	1.487297	-1.069686	7.044249	0.233154	0.227722	-0.003357	0.999337	0.007435	-0.005347	0.035213	
15886	    0	24.411934	22.764332	-1.235654	1.792288	-0.963963	6.367534	0.236756	0.235352	-0.009117	0.999441	0.008960	-0.004819	0.031832	
15887	    0	23.514730	25.965754	-2.339839	2.367931	-0.908791	5.281822	0.228271	0.265991	-0.019226	0.999571	0.011838	-0.004543	0.026405	
15888	    0	20.327739	32.095223	-4.058772	2.518697	-0.844080	3.899745	0.197120	0.325306	-0.035668	0.999722	0.012592	-0.004220	0.019497	
15889	    0	16.019787	36.549148	-5.529457	2.130421	-0.843089	2.536134	0.155762	0.368042	-0.050720	0.999853	0.010652	-0.004215	0.012680	
15890	    0	12.155339	38.093693	-4.543561	1.632915	-0.865764	1.253917	0.119347	0.382041	-0.041800	0.999937	0.008164	-0.004329	0.006269	
15891	    0	10.062494	38.838543	-1.706725	1.227581	-0.796325	0.019837	0.100647	0.388489	-0.014282	0.999972	0.006138	-0.003982	0.000099	
15892	    0	9.769454	37.376586	-0.139141	0.697143	-0.662238	-1.175320	0.099890	0.373184	0.000238	0.999970	0.003486	-0.003311	-0.005877	
15893	    0	14.047180	31.353907	-1.841088	0.184636	-0.676552	-2.246909	0.144043	0.311951	-0.017639	0.999930	0.000923	-0.003383	-0.011234	
15894	    0	12.630526	27.485676	-9.484448	-0.079350	-0.995304	-3.288622	0.131271	0.272688	-0.094308	0.999852	-0.000397	-0.004976	-0.016442	
15895	    0	16.004025	50.784767	-24.044631	1.646821	-1.307080	-5.075712	0.174438	0.505493	-0.235168	0.999622	0.008233	-0.006535	-0.025375	
15896	    0	50.374010	18.548137	16.711151	-0.303524	1.346494	-7.016532	0.510945	0.167888	0.163424	0.999360	-0.001517	0.006731	-0.035075	
15897	    0	49.904435	-23.163440	31.147344	1.853628	-0.608910	-5.427541	0.491516	-0.247925	0.310730	0.999584	0.009267	-0.003044	-0.027134	
15898	    0	10.293732	-15.922387	9.379392	3.100579	-1.209670	-5.716031	0.097745	-0.163502	0.091883	0.999453	0.015500	-0.006047	-0.028575	
15899	    0	1.795938	9.153779	13.283593	4.771979	-0.507475	-5.804289	0.020203	0.087769	0.135010	0.999290	0.023854	-0.002537	-0.029015	
15900	    0	12.439584	17.269221	1.612656	3.510523	-1.058956	-5.379482	0.128876	0.168940	0.019789	0.999470	0.017550	-0.005294	-0.026893	
15901	    0	-3.601054	16.355479	-8.159682	2.863072	-1.381081	-4.216493	-0.031982	0.165405	-0.079468	0.999651	0.014314	-0.006905	-0.021080	
15902	    0	-2.634299	17.421968	-10.574413	0.356116	-0.588440	-3.013922	-0.023401	0.174775	-0.105505	0.999880	0.001781	-0.002942	-0.015069	
15903	    0	7.963104	11.254501	-8.069244	-0.620856	-0.416575	-2.246146	0.081055	0.111389	-0.080872	0.999929	-0.003104	-0.002083	-0.011230	
15904	    0	15.135709	8.812231	-4.438545	-1.241134	-0.339514	-1.636153	0.152145	0.086603	-0.044668	0.999946	-0.006206	-0.001698	-0.008181	
15905	    0	16.976105	5.368948	-2.924993	-1.556230	-0.285344	-1.142138	0.170105	0.052490	-0.029419	0.999952	-0.007781	-0.001427	-0.005711	
15906	    0	17.720840	4.400956	-0.683396	-1.220525	-0.256922	-0.918970	0.177417	0.043153	-0.006871	0.999969	-0.006103	-0.001285	-0.004595	
15907	    0	19.958875	1.227342	-0.425604	-0.523951	-0.197602	-0.911717	0.199646	0.011353	-0.004089	0.999985	-0.002620	-0.000988	-0.004559	
15908	    0	20.231901	2.662372	-2.276718	-0.421526	0.031471	-0.857166	0.202427	0.025708	-0.022854	0.999989	-0.002108	0.000157	-0.004286	
15909	    0	19.602204	1.333775	-5.294450	-0.849728	0.290681	-0.611880	0.195984	0.012512	-0.053284	0.999985	-0.004249	0.001453	-0.003059	
15910	    0	20.735078	1.404396	-5.010311	-1.119623	0.431064	-0.683599	0.207288	0.013053	-0.050625	0.999976	-0.005598	0.002155	-0.003418	
15911	    0	21.429989	-1.004452	-4.278285	-1.526470	0.421148	-0.686654	0.214172	-0.011108	-0.043152	0.999962	-0.007632	0.002106	-0.003433	
15912	    0	20.783941	0.565779	-3.536956	-2.178626	0.498021	-0.872251	0.207771	0.004362	-0.035939	0.999928	-0.010893	0.002490	-0.004361	
15913	    0	18.639268	2.410306	-3.291450	-3.480717	0.464846	-0.743906	0.186401	0.022827	-0.033752	0.999839	-0.017403	0.002324	-0.003719	
15914	    0	17.089130	-1.596489	-2.103795	-4.470440	0.255988	-0.499958	0.170823	-0.016860	-0.020886	0.999745	-0.022350	0.001280	-0.002500	
15915	    0	15.274881	-5.455170	0.891788	-4.794584	0.204488	-0.402108	0.152649	-0.054626	0.010071	0.999710	-0.023971	0.001022	-0.002010	
15916	    0	13.269256	-6.862895	3.671879	-5.541751	0.256381	-0.314181	0.132634	-0.067788	0.038435	0.999614	-0.027705	0.001282	-0.001571	
15917	    0	11.943666	-7.199652	2.798330	-5.983866	0.255814	-0.079358	0.119446	-0.071167	0.029968	0.999551	-0.029915	0.001279	-0.000397	
15918	    0	11.074657	-8.098921	1.482379	-5.455313	0.202967	-0.076685	0.110732	-0.080589	0.016913	0.999627	-0.027273	0.001015	-0.000383	
15919	    0	10.990047	-5.859189	1.593408	-4.230817	0.257321	-0.200668	0.109863	-0.058350	0.017029	0.999774	-0.021152	0.001287	-0.001003	
15920	    0	11.794197	-2.337890	1.434372	-3.222799	0.338188	-0.332847	0.117928	-0.023342	0.014521	0.999866	-0.016113	0.001691	-0.001664	
15921	    0	12.421697	1.060846	2.892503	-2.385014	0.477041	-0.825523	0.124329	0.010437	0.028503	0.999917	-0.011925	0.002385	-0.004128	
15922	    0	10.226169	6.456332	-0.968243	-2.291558	0.665303	-1.232947	0.102622	0.063812	-0.010757	0.999909	-0.011457	0.003326	-0.006165	
15923	    0	10.382507	3.620226	-4.991342	-1.793717	0.824949	-1.496163	0.103882	0.034973	-0.050659	0.999923	-0.008968	0.004125	-0.007481	
15924	    0	8.844988	2.756681	-6.102008	-1.079396	1.044872	-1.974538	0.088393	0.026362	-0.061626	0.999923	-0.005397	0.005224	-0.009872	
15925	    0	8.358100	3.716840	-6.776852	-0.397314	1.094092	-2.590266	0.083679	0.035950	-0.068298	0.999899	-0.001987	0.005470	-0.012951	
15926	    0	8.029949	5.888058	-7.223564	-0.046160	1.070447	-2.915690	0.080758	0.057689	-0.072680	0.999879	-0.000231	0.005352	-0.014578	
15927	    0	7.634543	5.726729	-6.622665	-0.261700	1.231629	-3.000773	0.076782	0.056030	-0.066772	0.999867	-0.001308	0.006158	-0.015003	
15928	    0	9.320430	2.266082	-3.228064	-0.227748	1.575733	-2.923910	0.093264	0.021260	-0.033040	0.999861	-0.001139	0.007878	-0.014619	
15929	    0	10.048001	0.002332	-0.642615	0.314538	1.785369	-2.985534	0.100403	-0.001465	-0.007324	0.999847	0.001573	0.008926	-0.014927	
15930	    0	11.186836	-3.033086	-1.249971	1.012099	1.809037	-3.155896	0.111252	-0.032022	-0.013667	0.999822	0.005060	0.009045	-0.015779	
15931	    0	11.804444	-5.857461	-2.204205	1.733718	1.809064	-3.393806	0.116821	-0.060364	-0.023621	0.999777	0.008668	0.009045	-0.016968	
15932	    0	11.970929	-5.660414	-2.826426	2.302951	1.664885	-3.696013	0.118396	-0.058462	-0.029920	0.999728	0.011514	0.008324	-0.018478	
15933	    0	12.822954	-4.240597	-2.830674	2.424099	1.581158	-3.929528	0.127136	-0.044556	-0.029846	0.999701	0.012119	0.007905	-0.019646	
15934	    0	13.444046	-2.770390	-2.628513	2.240217	1.521837	-4.115902	0.133630	-0.030155	-0.027633	0.999696	0.011200	0.007608	-0.020577	
15935	    0	13.953007	-1.194885	-1.786667	2.025809	1.488836	-4.236268	0.139099	-0.014709	-0.019043	0.999696	0.010128	0.007443	-0.021179	
15936	    0	14.276106	-0.340239	-1.731182	1.618923	1.363886	-4.314647	0.142523	-0.006333	-0.018328	0.999711	0.008094	0.006819	-0.021571	
15937	    0	13.938903	-0.828227	-3.523242	1.225576	1.117801	-4.202628	0.138977	-0.010986	-0.036072	0.999744	0.006127	0.005589	-0.021011	
15938	    0	13.253641	-2.294635	-4.595395	0.897666	0.896903	-4.050177	0.131830	-0.025413	-0.046657	0.999774	0.004488	0.004484	-0.020249	
15939	    0	12.928721	-3.352467	-5.335602	0.602763	0.671623	-3.924826	0.128418	-0.035889	-0.053894	0.999797	0.003014	0.003358	-0.019623	
15940	    0	13.613157	-3.841231	-5.759658	0.519784	0.594748	-3.750268	0.135209	-0.040803	-0.058104	0.999816	0.002599	0.002974	-0.018750	
15941	    0	15.760370	-4.096786	-4.434766	0.377103	0.784345	-3.512002	0.156677	-0.043640	-0.045044	0.999836	0.001885	0.003922	-0.017559	
15942	    0	18.926578	-3.583041	-4.433742	0.673708	0.763358	-3.255620	0.188479	-0.038752	-0.045185	0.999854	0.003368	0.003817	-0.016277	
15943	    0	20.277557	-3.137022	-6.805043	1.172688	0.415247	-2.932100	0.202148	-0.033936	-0.068665	0.999873	0.005863	0.002076	-0.014660	
15944	    0	15.943195	-4.062491	-7.742650	1.515444	0.007248	-2.543733	0.158900	-0.042060	-0.077747	0.999890	0.007577	0.000036	-0.012718	
15945	    0	10.640460	-2.858568	-7.094512	1.244385	-0.266845	-2.054646	0.106201	-0.029236	-0.070984	0.999927	0.006222	-0.001334	-0.010273	
15946	    0	7.464199	-0.364946	-4.176857	0.644882	-0.359539	-1.430908	0.074689	-0.004049	-0.041647	0.999968	0.003224	-0.001798	-0.007154	
15947	    0	5.824765	0.099837	-1.715815	0.300027	-0.439455	-0.791171	0.058289	0.000793	-0.017029	0.999989	0.001500	-0.002197	-0.003956	
15948	    0	4.949956	-0.420704	-1.442555	0.167084	-0.504494	-0.135422	0.049533	-0.004229	-0.014304	0.999996	0.000835	-0.002522	-0.000677	
15949	    0	4.292502	-1.558404	-2.043779	0.041390	-0.540926	0.641634	0.043030	-0.015442	-0.020325	0.999990	0.000207	-0.002705	0.003208	
15950	    0	3.843660	-2.938175	-2.871084	-0.152208	-0.558859	1.406492	0.038722	-0.029132	-0.028581	0.999970	-0.000761	-0.002794	0.007032	
15951	    0	2.903826	-3.136971	-3.707262	-0.335509	-0.640882	2.071422	0.029480	-0.031128	-0.036926	0.999939	-0.001678	-0.003204	0.010357	
15952	    0	2.487130	-2.562823	-3.817992	-0.442329	-0.738169	2.721116	0.025358	-0.025370	-0.038031	0.999898	-0.002212	-0.003691	0.013605	
15953	    0	2.745547	-1.813860	-3.409419	-0.513293	-0.812572	3.348711	0.027893	-0.017761	-0.033936	0.999847	-0.002566	-0.004063	0.016743	
15954	    0	3.145484	-1.319286	-2.875672	-0.557175	-0.866949	3.924448	0.031831	-0.012650	-0.028584	0.999794	-0.002786	-0.004334	0.019621	
15955	    0	3.383623	-1.351580	-2.345512	-0.534105	-0.972643	4.460537	0.034241	-0.012817	-0.023254	0.999736	-0.002670	-0.004863	0.022301	
15956	    0	3.902984	-2.117374	-2.070619	-0.448085	-1.048011	4.968609	0.039648	-0.020240	-0.020453	0.999675	-0.002240	-0.005239	0.024840	
15957	    0	4.811106	-2.600860	-1.716499	-0.374461	-1.119376	5.432829	0.048889	-0.024719	-0.016846	0.999613	-0.001872	-0.005596	0.027161	
15958	    0	5.901830	-3.079022	-1.597013	-0.344900	-1.222031	5.869794	0.059984	-0.029066	-0.015554	0.999549	-0.001724	-0.006109	0.029345	
15959	    0	7.161389	-3.322916	-1.415201	-0.439337	-1.303322	6.230457	0.072693	-0.031006	-0.013611	0.999491	-0.002196	-0.006516	0.031147	
15960	    0	8.504836	-3.489912	-0.971341	-0.569450	-1.401400	6.516336	0.086190	-0.032129	-0.009018	0.999440	-0.002847	-0.007006	0.032576	
15961	    0	9.866107	-3.105087	-0.509150	-0.727801	-1.560527	6.758725	0.099670	-0.027710	-0.004211	0.999392	-0.003638	-0.007801	0.033787	
15962	    0	10.978147	-3.094545	1.043678	-0.911340	-1.616831	6.999782	0.110683	-0.027031	0.011458	0.999344	-0.004556	-0.008082	0.034991	
15963	    0	12.701960	-2.758342	1.785678	-0.847824	-1.697746	7.239696	0.127747	-0.022888	0.019043	0.999299	-0.004238	-0.008487	0.036190	
15964	    0	14.684535	-1.251919	2.874268	-0.701506	-1.788774	7.474656	0.146909	-0.006925	0.030087	0.999255	-0.003507	-0.008942	0.037364	
15965	    0	15.906756	-0.352883	5.204646	-0.668315	-1.791841	7.605403	0.158569	0.002686	0.053467	0.999231	-0.003341	-0.008957	0.038017	
15966	    0	17.151259	0.591037	5.855439	-0.161594	-1.795463	7.609399	0.170587	0.012462	0.060081	0.999235	-0.000808	-0.008975	0.038037	
15967	    0	18.786210	2.554894	4.928257	0.538200	-1.713237	7.619896	0.186279	0.032532	0.050964	0.999233	0.002690	-0.008564	0.038090	
15968	    0	21.732929	6.187292	3.894662	1.085556	-1.458919	7.584014	0.214488	0.069825	0.040883	0.999239	0.005426	-0.007293	0.037910	
15969	    0	24.645251	13.285401	2.523529	1.285107	-1.202499	7.494679	0.241089	0.141785	0.027588	0.999259	0.006424	-0.006011	0.037464	
15970	    0	25.760823	20.674876	0.733722	1.237584	-0.979269	7.291768	0.249803	0.215897	0.009891	0.999304	0.006186	-0.004895	0.036450	
15971	    0	24.453528	22.343601	-0.662907	1.528478	-0.813268	6.761779	0.236816	0.231567	-0.003906	0.999391	0.007641	-0.004066	0.033802	
15972	    0	24.235237	24.466838	-2.262433	2.477664	-0.762490	5.655819	0.235377	0.251638	-0.018629	0.999516	0.012386	-0.003812	0.028275	
15973	    0	22.080433	30.932985	-3.386898	3.166576	-0.777337	4.237871	0.214294	0.314392	-0.028076	0.999642	0.015831	-0.003886	0.021187	
15974	    0	17.460585	37.195841	-4.301139	2.935232	-0.756507	2.740669	0.169629	0.374877	-0.036876	0.999791	0.014675	-0.003782	0.013702	
15975	    0	13.249190	38.883823	-4.164372	2.385984	-0.756862	1.381730	0.129944	0.390198	-0.036499	0.999897	0.011930	-0.003784	0.006908	
15976	    0	10.092356	39.746432	-2.282247	1.986732	-0.751319	0.084688	0.100830	0.397705	-0.018494	0.999943	0.009933	-0.003757	0.000423	
15977	    0	8.869768	39.481966	-0.421968	1.440072	-0.657855	-1.176090	0.091024	0.394304	-0.001082	0.999949	0.007200	-0.003289	-0.005880	
15978	    0	9.746079	34.594355	-0.354968	0.834678	-0.505842	-2.313865	0.101460	0.344795	-0.001856	0.999921	0.004173	-0.002529	-0.011569	
15979	    0	12.695349	27.856604	-0.472342	0.353257	-0.410289	-3.208302	0.131409	0.276489	-0.003967	0.999867	0.001766	-0.002051	-0.016041	
15980	    0	14.652784	24.962960	-8.879398	0.118264	-0.874584	-4.126283	0.152022	0.246583	-0.087991	0.999777	0.000591	-0.004373	-0.020630	
15981	    0	12.339425	33.632115	-17.133120	1.339894	-1.252717	-5.247410	0.133240	0.334045	-0.168274	0.999614	0.006699	-0.006263	-0.026234	
15982	    0	23.952081	4.777077	2.795594	0.694939	-0.221854	-5.580494	0.240696	0.040967	0.028373	0.999603	0.003474	-0.001109	-0.027899	
15983	    0	38.516406	-29.793726	25.944623	3.409547	0.382294	-5.143794	0.377747	-0.312073	0.253479	0.999521	0.017045	0.001911	-0.025715	
15984	    0	21.672563	8.430548	9.767550	4.444698	-0.866314	-5.584012	0.218494	0.076010	0.100370	0.999353	0.022219	-0.004331	-0.027914	
15985	    0	13.459644	18.399690	10.613759	4.552618	-0.703382	-5.227192	0.138916	0.177917	0.110718	0.999393	0.022758	-0.003516	-0.026131	
15986	    0	10.729945	14.947539	3.349800	2.608054	-1.127766	-4.691712	0.110560	0.146448	0.036038	0.999623	0.013039	-0.005638	-0.023456	
15987	    0	5.522633	10.177896	-7.902601	1.759466	-1.102337	-3.618884	0.057495	0.101440	-0.077820	0.999782	0.008797	-0.005511	-0.018093	
15988	    0	4.049273	16.586784	-5.740550	0.358976	-0.495356	-2.830795	0.042977	0.165374	-0.057004	0.999895	0.001795	-0.002477	-0.014153	
15989	    0	12.313957	10.894039	-3.302419	-0.847454	-0.252539	-2.124833	0.124329	0.107483	-0.033325	0.999933	-0.004237	-0.001263	-0.010624	
15990	    0	15.133857	4.507952	-3.311753	-1.054208	-0.235561	-1.620509	0.151735	0.043676	-0.033172	0.999952	-0.005271	-0.001178	-0.008102	
15991	    0	13.550911	3.805484	-4.756148	-1.011669	-0.210383	-1.308456	0.135803	0.036926	-0.047607	0.999965	-0.005058	-0.001052	-0.006542	
15992	    0	15.602248	4.965800	-2.727693	-0.765806	-0.113297	-1.074990	0.156301	0.048714	-0.027376	0.999978	-0.003829	-0.000566	-0.005375	
15993	    0	19.682180	3.591694	-2.099524	-0.776676	0.047493	-0.813298	0.196960	0.035034	-0.021179	0.999984	-0.003883	0.000237	-0.004066	
15994	    0	21.259141	3.293620	-3.684882	-0.988203	0.232889	-0.660900	0.212655	0.032050	-0.037256	0.999981	-0.004941	0.001164	-0.003304	
15995	    0	23.921967	0.278221	-4.158083	-1.119242	0.436596	-0.752265	0.239136	0.001648	-0.042114	0.999974	-0.005596	0.002183	-0.003761	
15996	    0	21.350304	-2.458765	-3.863751	-1.351753	0.424580	-0.766762	0.213324	-0.025668	-0.038919	0.999967	-0.006759	0.002123	-0.003834	
15997	    0	20.695909	-2.025228	-2.861259	-1.482221	0.517280	-0.925458	0.206787	-0.021423	-0.028992	0.999958	-0.007411	0.002586	-0.004627	
15998	    0	19.516770	2.585053	-2.432855	-2.123311	0.486385	-0.960373	0.195228	0.024650	-0.025069	0.999928	-0.010616	0.002432	-0.004802	
15999	    0	17.362084	1.429809	-1.903333	-3.163862	0.374620	-0.803984	0.173639	0.013293	-0.019574	0.999865	-0.015819	0.001873	-0.004020	
16000	    0	15.007863	-3.333247	-0.284873	-3.890099	0.297756	-0.565947	0.149980	-0.033807	-0.002418	0.999805	-0.019449	0.001489	-0.002830	
16001	    0	12.465299	-5.069820	1.929064	-4.428277	0.334195	-0.448646	0.124573	-0.050537	0.020203	0.999750	-0.022140	0.001671	-0.002243	
16002	    0	11.073504	-3.128081	2.198222	-5.111494	0.368540	-0.383038	0.110717	-0.030921	0.022572	0.999669	-0.025555	0.001842	-0.001915	
16003	    0	10.541587	-6.244849	-0.083832	-5.290842	0.274118	-0.222041	0.105347	-0.062561	0.000671	0.999648	-0.026451	0.001370	-0.001110	
16004	    0	10.478381	-7.297361	-1.191126	-4.493140	0.233479	-0.251219	0.104679	-0.073350	-0.010388	0.999745	-0.022464	0.001167	-0.001256	
16005	    0	11.251981	-4.666607	-0.386824	-3.442556	0.307671	-0.374622	0.112427	-0.046936	-0.003235	0.999848	-0.017212	0.001538	-0.001873	
16006	    0	12.168575	-1.786582	2.592810	-2.563362	0.441946	-0.594729	0.121690	-0.017896	0.025888	0.999910	-0.012816	0.002210	-0.002974	
16007	    0	10.398399	4.108289	-0.509020	-2.546583	0.365460	-1.048313	0.104187	0.040466	-0.005798	0.999903	-0.012733	0.001827	-0.005241	
16008	    0	11.228409	2.203509	-2.961345	-2.246346	0.519958	-1.135285	0.112328	0.021061	-0.030146	0.999917	-0.011231	0.002600	-0.005676	
16009	    0	8.996635	0.780261	-3.222148	-1.880500	0.675218	-1.335176	0.089905	0.006897	-0.032593	0.999928	-0.009402	0.003376	-0.006676	
16010	    0	8.134826	0.547396	-3.983729	-1.302941	0.860807	-1.830717	0.081220	0.004469	-0.040218	0.999928	-0.006515	0.004304	-0.009153	
16011	    0	6.597365	2.286606	-5.436656	-0.712414	0.917842	-2.303378	0.065979	0.021912	-0.054749	0.999916	-0.003562	0.004589	-0.011517	
16012	    0	7.443686	5.911664	-6.165927	-0.601407	0.971254	-2.579393	0.074888	0.057966	-0.062198	0.999900	-0.003007	0.004856	-0.012897	
16013	    0	8.725959	6.442461	-6.342102	-0.997773	1.076550	-2.690230	0.087769	0.062927	-0.064209	0.999882	-0.004989	0.005383	-0.013451	
16014	    0	10.086461	3.021462	-4.621903	-1.302585	1.381553	-2.624817	0.100924	0.028585	-0.047106	0.999868	-0.006513	0.006907	-0.013124	
16015	    0	10.542505	-0.709073	-3.335199	-0.881805	1.641916	-2.597156	0.105042	-0.008606	-0.034180	0.999872	-0.004409	0.008209	-0.012985	
16016	    0	11.067317	-3.698481	-3.511472	-0.115018	1.607964	-2.771115	0.109859	-0.038531	-0.035978	0.999871	-0.000575	0.008039	-0.013855	
16017	    0	11.355172	-6.412856	-3.318325	0.476288	1.600725	-2.993158	0.112305	-0.065735	-0.034241	0.999853	0.002381	0.008003	-0.014965	
16018	    0	11.675399	-6.917060	-2.460033	1.102133	1.582432	-3.283699	0.115397	-0.070932	-0.025905	0.999818	0.005510	0.007912	-0.016418	
16019	    0	12.455541	-5.818593	-1.695633	1.646546	1.593327	-3.560904	0.123352	-0.060242	-0.018433	0.999776	0.008232	0.007966	-0.017803	
16020	    0	13.570826	-4.838501	-0.974896	1.723435	1.626342	-3.821123	0.134665	-0.050872	-0.011278	0.999747	0.008616	0.008131	-0.019104	
16021	    0	14.545287	-3.307392	-1.278489	1.718291	1.568169	-3.963056	0.144653	-0.035828	-0.014221	0.999736	0.008591	0.007840	-0.019814	
16022	    0	15.198025	-1.946291	-0.797146	1.700168	1.481948	-3.972208	0.151489	-0.022400	-0.009277	0.999739	0.008500	0.007409	-0.019859	
16023	    0	14.777293	-1.322020	-1.711665	1.403348	1.223089	-3.958636	0.147366	-0.016015	-0.018125	0.999760	0.007016	0.006115	-0.019792	
16024	    0	14.024334	-1.967127	-3.500539	1.281450	1.021460	-3.850264	0.139651	-0.022136	-0.035856	0.999781	0.006407	0.005107	-0.019250	
16025	    0	15.088556	-3.015036	-3.837904	1.082111	1.085735	-3.692110	0.150085	-0.032715	-0.039368	0.999800	0.005410	0.005428	-0.018459	
16026	    0	19.174996	-4.998782	-2.831406	1.119111	1.381960	-3.427146	0.190655	-0.053097	-0.029925	0.999813	0.005595	0.006909	-0.017135	
16027	    0	22.460416	-4.514687	-4.438544	1.579570	1.181101	-3.227426	0.223572	-0.048401	-0.046082	0.999821	0.007897	0.005905	-0.016136	
16028	    0	20.702441	-5.616181	-8.299887	2.372313	0.632515	-2.917466	0.205920	-0.058176	-0.084333	0.999818	0.011861	0.003162	-0.014586	
16029	    0	13.811421	-6.099048	-8.959797	2.600243	0.261894	-2.570487	0.137207	-0.061584	-0.090576	0.999831	0.013000	0.001309	-0.012852	
16030	    0	9.970887	-3.183212	-6.875210	2.198494	0.090412	-2.082714	0.099344	-0.032109	-0.069149	0.999885	0.010992	0.000452	-0.010413	
16031	    0	7.781140	0.119019	-3.437243	1.579317	-0.005150	-1.560243	0.077820	0.000854	-0.034363	0.999938	0.007896	-0.000026	-0.007801	
16032	    0	6.823430	0.619565	-1.821956	1.214421	-0.070191	-0.992976	0.068271	0.005967	-0.018159	0.999969	0.006072	-0.000351	-0.004965	
16033	    0	5.786297	-0.562121	-1.525037	1.062208	-0.074005	-0.259401	0.057861	-0.005615	-0.015259	0.999985	0.005311	-0.000370	-0.001297	
16034	    0	5.172220	-1.768927	-2.714390	0.851635	-0.076104	0.560763	0.051782	-0.017428	-0.027199	0.999987	0.004258	-0.000381	0.002804	
16035	    0	4.486367	-2.493031	-3.981545	0.495343	-0.091553	1.313793	0.045044	-0.024536	-0.039856	0.999975	0.002477	-0.000458	0.006569	
16036	    0	3.384302	-1.978777	-4.584490	0.173572	-0.155070	1.959642	0.034070	-0.019415	-0.045835	0.999950	0.000868	-0.000775	0.009798	
16037	    0	2.864708	-0.810129	-4.722026	-0.110629	-0.248535	2.614669	0.028809	-0.007751	-0.047180	0.999913	-0.000553	-0.001243	0.013073	
16038	    0	3.061046	-0.595117	-4.127956	-0.372713	-0.314727	3.283842	0.030768	-0.005524	-0.041221	0.999862	-0.001863	-0.001574	0.016418	
16039	    0	3.463582	-0.827550	-3.286346	-0.556219	-0.377489	3.888955	0.034851	-0.007690	-0.032776	0.999804	-0.002781	-0.001887	0.019444	
16040	    0	3.802353	-1.445087	-2.708253	-0.620322	-0.452271	4.438585	0.038394	-0.013685	-0.026953	0.999746	-0.003101	-0.002261	0.022191	
16041	    0	4.360351	-2.220000	-2.160074	-0.588287	-0.518662	4.927574	0.044189	-0.021179	-0.021423	0.999688	-0.002941	-0.002593	0.024635	
16042	    0	5.166773	-2.428435	-2.015644	-0.529926	-0.613097	5.358589	0.052356	-0.022941	-0.019935	0.999633	-0.002649	-0.003065	0.026790	
16043	    0	6.120255	-2.460807	-2.060922	-0.524786	-0.722606	5.748033	0.061951	-0.022888	-0.020325	0.999577	-0.002624	-0.003613	0.028736	
16044	    0	7.287310	-2.792961	-1.940713	-0.551121	-0.816095	6.125670	0.073762	-0.025732	-0.019034	0.999518	-0.002755	-0.004080	0.030623	
16045	    0	8.512907	-2.994018	-1.782541	-0.638695	-0.936104	6.467073	0.086121	-0.027222	-0.017334	0.999461	-0.003193	-0.004680	0.032330	
16046	    0	9.841964	-2.812790	-1.409552	-0.727416	-1.078819	6.760597	0.099370	-0.024829	-0.013467	0.999407	-0.003636	-0.005393	0.033796	
16047	    0	10.812521	-2.592341	-0.035586	-0.852196	-1.145419	7.044210	0.108948	-0.022095	0.000366	0.999353	-0.004260	-0.005726	0.035213	
16048	    0	12.527710	-1.676311	0.104807	-0.769986	-1.284137	7.351310	0.125770	-0.012139	0.001907	0.999296	-0.003849	-0.006419	0.036748	
16049	    0	14.298235	-0.264423	1.625804	-0.782974	-1.426104	7.622932	0.142822	0.002869	0.017273	0.999240	-0.003914	-0.007129	0.038105	
16050	    0	15.651455	-0.161799	3.914379	-0.725743	-1.470946	7.701956	0.156125	0.004545	0.040284	0.999225	-0.003628	-0.007353	0.038500	
16051	    0	17.253004	0.433460	3.872789	-0.125917	-1.600869	7.700044	0.171875	0.010986	0.040100	0.999227	-0.000629	-0.008002	0.038490	
16052	    0	19.259543	2.091000	2.685243	0.671751	-1.562522	7.685738	0.191387	0.028188	0.028438	0.999225	0.003358	-0.007811	0.038419	
16053	    0	23.014359	6.676054	1.558140	1.350744	-1.374210	7.543562	0.227295	0.075256	0.017639	0.999242	0.006752	-0.006869	0.037708	
16054	    0	26.290663	15.231287	0.228294	1.603705	-1.196578	7.351555	0.257050	0.161801	0.005105	0.999274	0.008017	-0.005981	0.036749	
16055	    0	26.250835	21.119425	-0.470962	1.589560	-1.084190	7.087011	0.254822	0.220337	-0.001587	0.999326	0.007946	-0.005420	0.035427	
16056	    0	24.328944	21.417812	-2.231120	2.108219	-1.026352	6.400585	0.236369	0.222028	-0.018773	0.999419	0.010539	-0.005131	0.031997	
16057	    0	23.238198	25.243150	-3.436915	2.970583	-0.997125	5.224654	0.225830	0.258850	-0.029419	0.999536	0.014851	-0.004985	0.026119	
16058	    0	20.068812	32.375274	-4.199647	3.287676	-0.951681	3.825417	0.194619	0.328135	-0.035690	0.999670	0.016437	-0.004758	0.019125	
16059	    0	15.710414	36.619116	-4.900166	2.872646	-0.891741	2.431640	0.152832	0.368713	-0.043030	0.999812	0.014362	-0.004458	0.012157	
16060	    0	11.792857	37.865513	-4.643890	2.274963	-0.857188	1.136242	0.115958	0.379809	-0.041623	0.999909	0.011374	-0.004286	0.005681	
16061	    0	9.143015	38.818260	-3.323707	1.681734	-0.807202	-0.030518	0.091614	0.388428	-0.029602	0.999956	0.008409	-0.004036	-0.000153	
16062	    0	8.552337	37.313172	-2.503973	0.947772	-0.691040	-1.145566	0.087741	0.372746	-0.022972	0.999966	0.004739	-0.003455	-0.005728	
16063	    0	8.998315	32.487584	-2.874888	0.247198	-0.588811	-2.159164	0.093567	0.323914	-0.028076	0.999936	0.001236	-0.002944	-0.010796	
16064	    0	10.511126	26.986105	-2.558682	-0.370803	-0.536557	-2.943913	0.109137	0.268227	-0.025796	0.999886	-0.001854	-0.002683	-0.014719	
16065	    0	12.026547	21.507420	-1.100720	-1.087824	-0.434901	-3.552453	0.124084	0.212830	-0.011902	0.999825	-0.005439	-0.002174	-0.017761	
16066	    0	12.952134	15.057523	-9.666155	-1.281093	-1.131925	-4.372617	0.133310	0.147068	-0.096864	0.999724	-0.006405	-0.005659	-0.021861	
16067	    0	9.357820	23.401828	-18.201379	0.521341	-1.632885	-5.067285	0.100952	0.231995	-0.180603	0.999641	0.002606	-0.008163	-0.025333	
16068	    0	21.757192	0.240507	-2.259740	2.113612	-0.724313	-5.063703	0.217624	-0.002872	-0.021821	0.999617	0.010567	-0.003621	-0.025315	
16069	    0	38.961028	-18.976586	22.885523	4.785492	-0.003625	-5.675284	0.383911	-0.206116	0.224060	0.999310	0.023922	-0.000018	-0.028370	
16070	    0	21.589759	14.686576	11.360453	5.190139	-1.088775	-5.217420	0.218942	0.138147	0.118452	0.999308	0.025945	-0.005443	-0.026081	
16071	    0	14.684079	24.791884	6.714311	4.103739	-1.109299	-4.470008	0.151917	0.243103	0.072998	0.999524	0.020515	-0.005546	-0.022346	
16072	    0	12.283076	13.577811	2.000119	1.068588	-1.275935	-4.216174	0.125521	0.133039	0.021512	0.999743	0.005342	-0.006379	-0.021079	
16073	    0	9.349524	5.031640	-6.685185	0.747720	-1.071032	-3.295308	0.094666	0.049011	-0.066162	0.999843	0.003738	-0.005355	-0.016476	
16074	    0	9.945234	10.590971	-1.683286	-0.124554	-0.512903	-2.737325	0.100932	0.104525	-0.016641	0.999903	-0.000623	-0.002564	-0.013686	
16075	    0	14.496721	7.192987	-2.768053	-0.713365	-0.558294	-2.171376	0.145813	0.070251	-0.027527	0.999930	-0.003567	-0.002791	-0.010857	
16076	    0	13.652798	4.117507	-3.323035	-0.776114	-0.524530	-1.853213	0.136988	0.039779	-0.033028	0.999946	-0.003881	-0.002623	-0.009266	
16077	    0	11.869806	4.261487	-3.368521	-0.710877	-0.445562	-1.461809	0.119080	0.041626	-0.033569	0.999964	-0.003554	-0.002228	-0.007309	
16078	    0	16.230860	6.540450	-3.870966	-0.847824	-0.234034	-1.148806	0.162725	0.064306	-0.038794	0.999973	-0.004239	-0.001170	-0.005744	
16079	    0	20.602876	5.736710	-4.771180	-1.179324	-0.128938	-0.845344	0.206299	0.056213	-0.047913	0.999973	-0.005897	-0.000645	-0.004227	
16080	    0	21.126851	1.418343	-5.953213	-1.408210	0.015259	-0.677306	0.211309	0.013048	-0.059643	0.999969	-0.007041	0.000076	-0.003386	
16081	    0	23.375711	-1.322501	-4.810410	-1.404397	0.234225	-0.823984	0.233643	-0.014526	-0.048279	0.999966	-0.007022	0.001171	-0.004120	
16082	    0	21.266826	-1.080001	-4.185536	-1.721791	0.332456	-0.845160	0.212549	-0.012060	-0.042109	0.999952	-0.008609	0.001662	-0.004226	
16083	    0	19.462889	-0.996618	-3.264150	-2.063796	0.377854	-0.888844	0.194519	-0.011169	-0.032898	0.999934	-0.010319	0.001889	-0.004444	
16084	    0	17.429647	0.466339	-2.441474	-2.643672	0.384725	-0.853566	0.174266	0.003593	-0.024802	0.999901	-0.013218	0.001924	-0.004268	
16085	    0	16.269831	-0.557754	-1.187749	-3.388384	0.306908	-0.697362	0.162659	-0.006348	-0.012024	0.999848	-0.016941	0.001534	-0.003487	
16086	    0	14.151597	-2.525536	0.450882	-3.959156	0.206770	-0.468285	0.141461	-0.025493	0.004866	0.999801	-0.019794	0.001034	-0.002341	
16087	    0	12.064738	-3.388370	1.729299	-4.718459	0.240539	-0.374638	0.120605	-0.033691	0.017944	0.999719	-0.023590	0.001203	-0.001873	
16088	    0	10.912436	-5.096933	1.565970	-5.059593	0.260762	-0.205253	0.109094	-0.050666	0.016802	0.999678	-0.025295	0.001304	-0.001026	
16089	    0	9.946536	-6.092117	-0.579266	-4.859640	0.171106	-0.114452	0.099426	-0.061096	-0.004395	0.999703	-0.024296	0.000855	-0.000572	
16090	    0	10.640082	-4.584736	-1.577880	-3.887422	0.155649	-0.218787	0.106339	-0.046260	-0.014965	0.999810	-0.019436	0.000778	-0.001094	
16091	    0	12.614818	-3.138602	0.294147	-3.018306	0.288593	-0.343336	0.126099	-0.031555	0.003235	0.999883	-0.015091	0.001443	-0.001717	
16092	    0	11.094612	1.813883	0.498475	-2.593881	0.204474	-0.664349	0.111011	0.017832	0.004639	0.999907	-0.012969	0.001022	-0.003322	
16093	    0	10.957291	4.657085	-3.651699	-2.577290	0.223739	-0.913267	0.109741	0.045593	-0.037231	0.999906	-0.012886	0.001119	-0.004566	
16094	    0	10.730742	2.631703	-4.423240	-2.231848	0.397311	-1.124603	0.107363	0.025216	-0.044731	0.999920	-0.011159	0.001987	-0.005623	
16095	    0	8.720328	1.948361	-4.282290	-1.882986	0.629633	-1.619002	0.087219	0.018372	-0.043274	0.999917	-0.009415	0.003148	-0.008095	
16096	    0	6.831024	3.193913	-5.314409	-1.209293	0.703640	-2.165854	0.068460	0.030875	-0.053574	0.999916	-0.006046	0.003518	-0.010829	
16097	    0	6.272312	5.532705	-5.463003	-1.039730	0.830868	-2.478109	0.063171	0.054260	-0.055176	0.999901	-0.005198	0.004154	-0.012390	
16098	    0	7.759314	4.921720	-5.172791	-1.299530	1.059194	-2.664104	0.077960	0.047841	-0.052454	0.999876	-0.006497	0.005296	-0.013320	
16099	    0	9.657689	1.627487	-3.668464	-1.082656	1.214078	-2.699392	0.096558	0.014771	-0.037354	0.999875	-0.005413	0.006070	-0.013496	
16100	    0	10.915177	-0.280594	-2.083147	-0.859488	1.389181	-2.744410	0.108951	-0.004394	-0.021572	0.999872	-0.004297	0.006946	-0.013721	
16101	    0	12.198894	-2.661962	-1.518910	-0.624114	1.562002	-2.916092	0.121460	-0.028442	-0.016052	0.999858	-0.003120	0.007810	-0.014580	
16102	    0	12.817411	-5.733085	-1.015148	-0.100904	1.641742	-3.169228	0.127155	-0.059357	-0.011168	0.999840	-0.000504	0.008208	-0.015845	
16103	    0	12.490441	-6.913192	-1.105218	0.664561	1.582625	-3.443358	0.123596	-0.071228	-0.012268	0.999814	0.003323	0.007913	-0.017216	
16104	    0	12.440249	-6.691535	-1.138783	1.169863	1.538962	-3.726088	0.123034	-0.069144	-0.012738	0.999780	0.005849	0.007694	-0.018629	
16105	    0	12.920609	-5.802069	-1.064135	1.468974	1.566448	-3.973726	0.127930	-0.060486	-0.012085	0.999744	0.007344	0.007832	-0.019867	
16106	    0	13.971946	-4.915599	-0.611489	1.635513	1.541662	-4.151539	0.138605	-0.051983	-0.007604	0.999721	0.008177	0.007708	-0.020756	
16107	    0	14.253018	-3.604632	-0.721020	1.719259	1.419967	-4.261428	0.141663	-0.039001	-0.008545	0.999710	0.008595	0.007099	-0.021305	
16108	    0	14.267104	-2.622335	-1.057600	1.838101	1.251915	-4.302255	0.141994	-0.029179	-0.011725	0.999706	0.009190	0.006259	-0.021509	
16109	    0	14.173688	-2.446602	-2.259030	1.853357	1.026442	-4.291944	0.141052	-0.027283	-0.023560	0.999713	0.009266	0.005132	-0.021458	
16110	    0	13.549100	-2.555923	-3.719149	1.699215	0.819850	-4.171927	0.134768	-0.028055	-0.037976	0.999738	0.008495	0.004099	-0.020858	
16111	    0	12.885954	-2.547102	-4.673958	1.539921	0.648548	-3.957671	0.128174	-0.027649	-0.047363	0.999769	0.007699	0.003242	-0.019787	
16112	    0	13.393459	-2.382353	-5.295732	1.193887	0.611536	-3.711369	0.133303	-0.025983	-0.053516	0.999804	0.005969	0.003057	-0.018556	
16113	    0	16.056317	-3.000454	-4.730173	0.965168	0.801319	-3.293017	0.159851	-0.032410	-0.048096	0.999845	0.004826	0.004006	-0.016464	
16114	    0	17.906083	-3.142147	-5.433412	1.091812	0.669507	-2.880025	0.178403	-0.033694	-0.055112	0.999875	0.005459	0.003347	-0.014400	
16115	    0	15.703543	-2.578822	-6.954144	1.086459	0.252731	-2.468185	0.156616	-0.027344	-0.069885	0.999907	0.005432	0.001264	-0.012341	
16116	    0	11.418291	-3.342093	-6.801874	0.796333	0.042344	-1.955069	0.113836	-0.034264	-0.068178	0.999944	0.003982	0.000212	-0.009775	
16117	    0	8.013298	-1.719357	-4.708763	0.451092	-0.019837	-1.378644	0.080017	-0.017639	-0.047119	0.999973	0.002255	-0.000099	-0.006893	
16118	    0	6.994406	-0.042661	-3.244438	0.245286	-0.074005	-0.745394	0.069954	-0.000648	-0.032419	0.999991	0.001226	-0.000370	-0.003727	
16119	    0	7.043190	-0.260597	-2.125138	0.128937	-0.036430	-0.091553	0.070435	-0.002625	-0.021240	0.999999	0.000645	-0.000182	-0.000458	
16120	    0	6.771391	-1.267710	-2.052349	0.077248	-0.032425	0.567628	0.067753	-0.012477	-0.020517	0.999995	0.000386	-0.000162	0.002838	
16121	    0	5.924414	-2.325161	-2.875198	0.049591	-0.034142	1.200874	0.059387	-0.022888	-0.028748	0.999982	0.000248	-0.000171	0.006004	
16122	    0	4.864735	-2.583005	-3.327153	0.053597	-0.038720	1.783776	0.048882	-0.025386	-0.033269	0.999960	0.000268	-0.000194	0.008919	
16123	    0	4.436185	-2.131363	-3.416763	0.186162	-0.033379	2.379665	0.044617	-0.020752	-0.034180	0.999928	0.000931	-0.000167	0.011898	
16124	    0	4.456557	-1.604604	-2.897062	0.218209	-0.037195	2.986638	0.044804	-0.015347	-0.028979	0.999887	0.001091	-0.000186	0.014933	
16125	    0	4.558404	-1.439908	-2.111078	0.237287	-0.039484	3.602796	0.045837	-0.013550	-0.021118	0.999837	0.001186	-0.000197	0.018013	
16126	    0	4.736244	-1.193933	-1.659739	0.245494	-0.056652	4.217652	0.047605	-0.010917	-0.016598	0.999777	0.001227	-0.000283	0.021087	
16127	    0	4.943262	-1.341778	-1.880794	0.215170	-0.091371	4.796298	0.049744	-0.012207	-0.018799	0.999711	0.001076	-0.000457	0.023979	
16128	    0	5.348899	-2.011014	-2.329402	0.149363	-0.150699	5.344456	0.054018	-0.018654	-0.023268	0.999642	0.000747	-0.000753	0.026719	
16129	    0	6.153997	-2.690292	-2.660755	0.084698	-0.219567	5.820525	0.062317	-0.025085	-0.026550	0.999576	0.000423	-0.001098	0.029099	
16130	    0	7.096712	-2.912332	-2.551432	0.008203	-0.300838	6.227548	0.071866	-0.026894	-0.025408	0.999514	0.000041	-0.001504	0.031133	
16131	    0	8.407126	-3.110768	-2.270851	-0.081459	-0.412062	6.599103	0.085083	-0.028320	-0.022522	0.999453	-0.000407	-0.002060	0.032990	
16132	    0	9.792138	-2.913376	-1.909322	-0.218436	-0.531876	6.944535	0.098905	-0.025731	-0.018802	0.999393	-0.001092	-0.002659	0.034716	
16133	    0	11.017267	-1.948968	-1.658490	-0.489726	-0.667721	7.279307	0.110840	-0.015503	-0.016174	0.999329	-0.002448	-0.003338	0.036388	
16134	    0	11.853163	-1.211139	-0.840959	-0.774767	-0.812542	7.652282	0.118913	-0.007597	-0.007892	0.999252	-0.003873	-0.004062	0.038252	
16135	    0	13.395439	-0.508905	-0.387334	-1.050665	-1.031778	7.984829	0.134033	0.000244	-0.003174	0.999176	-0.005252	-0.005157	0.039913	
16136	    0	14.876103	-0.788681	1.088641	-1.046673	-1.222391	8.162373	0.148846	-0.001752	0.011816	0.999134	-0.005232	-0.006110	0.040800	
16137	    0	17.313321	-0.030072	1.306435	-0.677496	-1.425585	8.197112	0.172852	0.006836	0.014282	0.999128	-0.003386	-0.007126	0.040974	
16138	    0	19.717859	1.711075	1.182954	-0.123441	-1.526889	8.152629	0.196165	0.025130	0.013316	0.999140	-0.000617	-0.007632	0.040751	
16139	    0	22.637529	5.268879	0.870453	0.497004	-1.520202	8.045163	0.223938	0.061707	0.010559	0.999159	0.002484	-0.007599	0.040215	
16140	    0	25.921772	12.825865	0.114224	0.888872	-1.460658	7.845125	0.253903	0.138277	0.003610	0.999194	0.004443	-0.007301	0.039215	
16141	    0	28.374460	22.230768	-0.483832	0.863293	-1.319455	7.619109	0.275024	0.232910	-0.002014	0.999243	0.004315	-0.006596	0.038086	
16142	    0	27.687195	25.529884	0.369406	0.862884	-1.150957	7.121699	0.267520	0.264914	0.006381	0.999340	0.004313	-0.005754	0.035601	
16143	    0	26.765783	25.978581	0.337820	1.635447	-1.030142	6.070210	0.259583	0.267700	0.006897	0.999493	0.008176	-0.005150	0.030346	
16144	    0	24.384779	30.900160	-1.041033	2.464390	-0.916015	4.574925	0.236727	0.314559	-0.005462	0.999652	0.012321	-0.004580	0.022872	
16145	    0	18.900934	37.188923	-3.642104	2.601994	-0.789697	3.029842	0.183472	0.375122	-0.030823	0.999792	0.013009	-0.003948	0.015148	
16146	    0	14.272981	39.623785	-5.347848	2.235869	-0.722528	1.572089	0.139788	0.397905	-0.048528	0.999900	0.011179	-0.003613	0.007860	
16147	    0	10.403534	40.915552	-4.328502	1.847870	-0.728429	0.266270	0.103638	0.409668	-0.039124	0.999949	0.009239	-0.003642	0.001331	
16148	    0	8.761548	40.056488	-2.135256	1.262108	-0.622948	-0.983250	0.089644	0.400250	-0.018549	0.999963	0.006310	-0.003115	-0.004916	
16149	    0	9.477825	35.531733	-1.063464	0.534260	-0.466166	-2.126357	0.098572	0.354309	-0.009460	0.999937	0.002671	-0.002331	-0.010632	
16150	    0	11.045372	29.534993	-0.811891	-0.121694	-0.359740	-3.057219	0.114965	0.293611	-0.008094	0.999881	-0.000608	-0.001799	-0.015285	
16151	    0	15.149742	23.209311	-0.795855	-0.792553	-0.342581	-3.799679	0.155884	0.229126	-0.008606	0.999809	-0.003963	-0.001713	-0.018997	
16152	    0	12.275477	19.292176	-11.487812	-1.097023	-0.979710	-4.609558	0.127711	0.189384	-0.115306	0.999707	-0.005485	-0.004898	-0.023046	
16153	    0	10.278491	16.288838	-18.871035	0.305975	-1.466352	-5.100088	0.108276	0.160461	-0.187683	0.999646	0.001530	-0.007331	-0.025497	
16154	    0	23.362007	-9.172401	-2.421405	0.931069	-0.112354	-4.780288	0.231355	-0.097158	-0.024528	0.999702	0.004655	-0.000562	-0.023899	
16155	    0	41.017762	-26.118323	25.572551	4.316320	0.312874	-5.810292	0.402649	-0.278381	0.249207	0.999344	0.021577	0.001564	-0.029045	
16156	    0	16.350978	14.425883	5.883141	5.201135	-1.188008	-5.702514	0.167135	0.137917	0.063459	0.999237	0.025999	-0.005939	-0.028505	
16157	    0	11.466720	18.223475	8.265349	4.605952	-0.856748	-4.724229	0.118530	0.177490	0.087280	0.999446	0.023026	-0.004283	-0.023617	
16158	    0	11.061472	14.733919	1.319767	2.219070	-1.202719	-4.559651	0.113844	0.144605	0.015491	0.999660	0.011094	-0.006013	-0.022796	
16159	    0	5.389790	8.778134	-7.272255	1.306427	-1.133801	-3.522718	0.055847	0.087280	-0.071838	0.999807	0.006532	-0.005669	-0.017612	
16160	    0	5.528891	14.010241	-5.035196	0.166326	-0.444618	-2.826024	0.057373	0.139343	-0.050110	0.999897	0.000832	-0.002223	-0.014130	
16161	    0	13.090885	8.850573	-3.165724	-0.908112	-0.345239	-2.270566	0.131956	0.086867	-0.031827	0.999922	-0.004540	-0.001726	-0.011353	
16162	    0	14.185806	3.320285	-2.722853	-0.909440	-0.362403	-1.829943	0.142202	0.031779	-0.027118	0.999946	-0.004547	-0.001812	-0.009150	
16163	    0	13.032453	4.679123	-2.770572	-0.774394	-0.359922	-1.577017	0.130737	0.045654	-0.027649	0.999959	-0.003872	-0.001800	-0.007885	
16164	    0	15.702687	5.749332	-2.301329	-0.568204	-0.259783	-1.334584	0.157435	0.056378	-0.022970	0.999972	-0.002841	-0.001299	-0.006673	
16165	    0	19.055783	4.087873	-3.343163	-0.755316	-0.142480	-1.068123	0.190796	0.039734	-0.033447	0.999978	-0.003777	-0.000712	-0.005341	
16166	    0	19.594403	2.862639	-5.016223	-0.998313	0.010681	-0.830847	0.196057	0.027561	-0.050312	0.999978	-0.004992	0.000053	-0.004154	
16167	    0	22.322508	0.785399	-4.327535	-1.152812	0.235941	-0.906380	0.223206	0.006592	-0.043579	0.999972	-0.005764	0.001180	-0.004532	
16168	    0	21.253998	-0.665407	-3.693780	-1.423090	0.298694	-0.922596	0.212450	-0.007898	-0.037202	0.999963	-0.007115	0.001493	-0.004613	
16169	    0	19.904687	-1.463355	-3.273331	-1.744681	0.362402	-0.953691	0.198914	-0.015869	-0.032959	0.999949	-0.008723	0.001812	-0.004768	
16170	    0	18.450534	1.452524	-3.169819	-2.248059	0.379191	-0.987460	0.184512	0.013254	-0.032202	0.999923	-0.011240	0.001896	-0.004937	
16171	    0	17.160660	0.139766	-2.572948	-3.073061	0.305189	-0.880470	0.171570	0.000244	-0.026001	0.999870	-0.015365	0.001526	-0.004402	
16172	    0	16.031235	-2.425938	-0.711367	-3.667282	0.216497	-0.685541	0.160220	-0.024936	-0.006834	0.999825	-0.018335	0.001082	-0.003428	
16173	    0	13.493726	-4.790092	1.216604	-4.214031	0.170339	-0.506630	0.134827	-0.047974	0.013062	0.999774	-0.021069	0.000852	-0.002533	
16174	    0	11.555755	-3.494174	1.636558	-4.813472	0.170915	-0.405160	0.115501	-0.034770	0.017105	0.999707	-0.024065	0.000854	-0.002026	
16175	    0	10.687567	-4.694792	0.846713	-5.026013	0.118459	-0.296815	0.106812	-0.046875	0.009583	0.999682	-0.025127	0.000592	-0.001484	
16176	    0	10.243237	-5.751957	-0.651848	-4.538736	0.057798	-0.282312	0.102349	-0.057793	-0.005239	0.999741	-0.022692	0.000289	-0.001411	
16177	    0	11.325504	-4.497819	-0.871504	-3.523248	0.136573	-0.399038	0.113159	-0.045349	-0.007996	0.999842	-0.017615	0.000683	-0.001995	
16178	    0	12.053817	-2.188158	1.579463	-2.568511	0.247200	-0.641651	0.120487	-0.022064	0.015928	0.999911	-0.012842	0.001236	-0.003208	
16179	    0	10.677012	3.519313	-1.371452	-2.455211	0.150494	-1.002532	0.106934	0.034485	-0.014221	0.999911	-0.012276	0.000752	-0.005013	
16180	    0	11.870788	1.572919	-3.439614	-2.164323	0.244910	-1.131849	0.118751	0.014683	-0.034704	0.999925	-0.010821	0.001225	-0.005659	
16181	    0	9.632770	-0.021313	-3.386798	-1.798096	0.409707	-1.331358	0.096252	-0.001160	-0.034058	0.999935	-0.008990	0.002048	-0.006657	
16182	    0	8.245862	-0.094720	-3.505406	-1.419100	0.618377	-1.779979	0.082335	-0.001930	-0.035297	0.999930	-0.007095	0.003092	-0.008900	
16183	    0	6.173917	1.228465	-4.612303	-0.748272	0.712604	-2.261411	0.061707	0.011414	-0.046387	0.999922	-0.003741	0.003563	-0.011307	
16184	    0	6.135006	4.515811	-5.114760	-0.585194	0.855474	-2.588928	0.061707	0.044210	-0.051541	0.999903	-0.002926	0.004277	-0.012944	
16185	    0	8.084669	5.434851	-5.346087	-0.874364	1.093528	-2.795524	0.081299	0.052979	-0.054138	0.999877	-0.004372	0.005467	-0.013977	
16186	    0	10.177620	1.274986	-3.916220	-0.642994	1.342640	-2.817655	0.101675	0.011189	-0.039883	0.999872	-0.003215	0.006713	-0.014088	
16187	    0	10.563982	-1.994636	-3.389962	0.004006	1.342831	-2.922947	0.105103	-0.021484	-0.034607	0.999870	0.000020	0.006714	-0.014614	
16188	    0	11.216062	-4.004530	-3.030290	0.638803	1.316518	-3.132595	0.111313	-0.041695	-0.031169	0.999850	0.003194	0.006582	-0.015662	
16189	    0	11.807479	-5.853257	-1.741305	1.028503	1.317865	-3.384600	0.116943	-0.060425	-0.018494	0.999822	0.005142	0.006589	-0.016922	
16190	    0	12.409670	-5.532577	-0.515067	1.338480	1.288504	-3.642527	0.123024	-0.057533	-0.006326	0.999790	0.006692	0.006442	-0.018211	
16191	    0	13.303960	-4.860109	0.166692	1.377973	1.256847	-3.837114	0.132080	-0.051147	0.000488	0.999772	0.006889	0.006284	-0.019184	
16192	    0	13.768917	-4.267367	-0.226949	1.265435	1.193904	-3.986482	0.136785	-0.045387	-0.003369	0.999763	0.006327	0.005969	-0.019931	
16193	    0	13.958225	-3.262143	-0.489136	1.120083	1.114170	-4.040081	0.138855	-0.035400	-0.005859	0.999764	0.005600	0.005570	-0.020199	
16194	    0	14.260463	-2.280002	-0.771364	0.911019	1.007920	-4.047892	0.142063	-0.025641	-0.008543	0.999772	0.004555	0.005039	-0.020238	
16195	    0	14.024075	-1.763543	-2.191479	0.776918	0.759941	-3.967565	0.139771	-0.020325	-0.022522	0.999788	0.003884	0.003799	-0.019836	
16196	    0	13.315723	-2.490670	-3.413234	0.610390	0.574339	-3.809598	0.132553	-0.027330	-0.034595	0.999809	0.003052	0.002872	-0.019047	
16197	    0	13.806073	-2.891209	-3.931334	0.444056	0.601421	-3.614249	0.137390	-0.031311	-0.039795	0.999829	0.002220	0.003007	-0.018070	
16198	    0	16.219832	-3.149188	-3.841672	0.434516	0.821345	-3.332877	0.161485	-0.034102	-0.039153	0.999850	0.002172	0.004107	-0.016664	
16199	    0	19.307605	-3.989018	-4.593275	0.615908	0.845372	-2.966431	0.192261	-0.042603	-0.046875	0.999876	0.003079	0.004227	-0.014832	
16200	    0	19.366036	-3.615656	-7.257243	1.142731	0.489061	-2.563182	0.193001	-0.038216	-0.073259	0.999898	0.005713	0.002445	-0.012815	
16201	    0	13.937531	-3.674921	-8.135539	1.226267	0.115207	-2.202665	0.138916	-0.037781	-0.081665	0.999920	0.006131	0.000576	-0.011013	
16202	    0	9.282168	-2.658021	-6.695095	0.885404	-0.020600	-1.658273	0.092606	-0.027052	-0.067060	0.999955	0.004427	-0.000103	-0.008291	
16203	    0	6.922551	-0.310479	-3.613336	0.592045	-0.029564	-1.037604	0.069214	-0.003357	-0.036133	0.999982	0.002960	-0.000148	-0.005188	
16204	    0	6.563317	0.276997	-2.111001	0.614168	-0.031090	-0.434304	0.065642	0.002692	-0.021091	0.999992	0.003071	-0.000155	-0.002172	
16205	    0	6.492820	-0.711250	-1.768745	0.724222	-0.038910	0.278474	0.064941	-0.006958	-0.017700	0.999992	0.003621	-0.000195	0.001392	
16206	    0	6.190880	-1.871117	-2.535995	0.707249	-0.062180	1.030738	0.062012	-0.018302	-0.025406	0.999980	0.003536	-0.000311	0.005154	
16207	    0	4.935066	-2.296967	-3.744555	0.535781	-0.123598	1.650259	0.049561	-0.022461	-0.037476	0.999962	0.002679	-0.000618	0.008251	
16208	    0	3.676227	-1.901120	-3.980321	0.361641	-0.171093	2.227449	0.037004	-0.018528	-0.039805	0.999935	0.001808	-0.000855	0.011137	
16209	    0	3.387060	-1.457089	-3.572989	0.269327	-0.255403	2.848151	0.034119	-0.014038	-0.035706	0.999896	0.001347	-0.001277	0.014240	
16210	    0	3.469675	-1.238645	-2.884827	0.181779	-0.295463	3.444844	0.034945	-0.011760	-0.028808	0.999849	0.000909	-0.001477	0.017223	
16211	    0	3.622017	-0.928983	-2.373948	0.128945	-0.349259	4.012570	0.036438	-0.008545	-0.023682	0.999797	0.000645	-0.001746	0.020061	
16212	    0	3.720239	-0.648035	-2.254296	0.039867	-0.425376	4.560297	0.037385	-0.005625	-0.022465	0.999738	0.000199	-0.002127	0.022799	
16213	    0	3.901076	-0.744763	-2.451848	-0.161570	-0.505121	5.093940	0.039246	-0.006470	-0.024414	0.999672	-0.000808	-0.002525	0.025467	
16214	    0	4.603944	-1.464053	-2.410788	-0.396971	-0.609860	5.570572	0.046497	-0.013397	-0.023939	0.999605	-0.001985	-0.003049	0.027849	
16215	    0	5.698113	-2.375220	-2.254809	-0.566188	-0.717082	5.986175	0.057739	-0.022095	-0.022278	0.999541	-0.002831	-0.003585	0.029926	
16216	    0	7.158507	-2.986644	-2.030976	-0.739225	-0.850825	6.343413	0.072571	-0.027649	-0.019897	0.999480	-0.003695	-0.004253	0.031712	
16217	    0	8.684883	-3.143512	-1.802903	-0.867246	-1.009371	6.641513	0.087919	-0.028604	-0.017459	0.999425	-0.004335	-0.005046	0.033201	
16218	    0	10.260003	-2.837220	-1.435759	-1.025223	-1.172883	6.903945	0.103580	-0.024879	-0.013618	0.999373	-0.005125	-0.005863	0.034513	
16219	    0	11.757478	-2.928095	-0.104215	-1.134560	-1.302636	7.204559	0.118530	-0.025024	-0.000122	0.999313	-0.005672	-0.006512	0.036015	
16220	    0	14.199976	-2.157234	0.601416	-1.083834	-1.481615	7.496978	0.142624	-0.016196	0.007167	0.999255	-0.005418	-0.007406	0.037476	
16221	    0	16.277021	-1.658518	2.550702	-1.065914	-1.649143	7.671835	0.163025	-0.010193	0.026917	0.999216	-0.005328	-0.008244	0.038349	
16222	    0	18.603114	-1.364109	4.381231	-0.792138	-1.747206	7.678701	0.185975	-0.006321	0.045472	0.999217	-0.003960	-0.008734	0.038383	
16223	    0	20.785165	0.909592	5.057969	-0.238861	-1.742811	7.655777	0.206848	0.017090	0.052368	0.999228	-0.001194	-0.008712	0.038269	
16224	    0	23.076610	4.766308	5.823857	0.140988	-1.564795	7.545813	0.228286	0.056267	0.060069	0.999257	0.000705	-0.007822	0.037720	
16225	    0	25.247394	10.694085	6.434876	0.329095	-1.353772	7.372487	0.247864	0.116028	0.066223	0.999296	0.001645	-0.006767	0.036854	
16226	    0	25.662869	17.274857	5.667783	0.428486	-1.115284	7.213292	0.249859	0.181719	0.058467	0.999331	0.002142	-0.005575	0.036058	
16227	    0	24.568505	19.153055	3.360742	0.854662	-0.890337	6.803724	0.238831	0.199585	0.035522	0.999402	0.004272	-0.004451	0.034012	
16228	    0	24.189786	20.360859	-0.048666	1.965841	-0.744749	5.865283	0.235785	0.210569	0.002446	0.999515	0.009828	-0.003723	0.029322	
16229	    0	21.510256	26.056673	-1.993293	3.140665	-0.732326	4.543129	0.209167	0.265625	-0.015015	0.999612	0.015701	-0.003661	0.022713	
16230	    0	17.172982	33.095115	-2.542102	3.509464	-0.640928	3.074549	0.166679	0.333911	-0.019039	0.999722	0.017546	-0.003204	0.015371	
16231	    0	13.077217	36.158165	-2.343495	3.354846	-0.599516	1.667123	0.127808	0.362976	-0.016968	0.999820	0.016773	-0.002997	0.008335	
16232	    0	10.659906	37.377690	-1.359747	3.104530	-0.507185	0.345054	0.105978	0.374108	-0.007523	0.999874	0.015522	-0.002536	0.001725	
16233	    0	9.360003	38.324841	-0.969684	2.661984	-0.430884	-0.836209	0.095215	0.382935	-0.004395	0.999900	0.013309	-0.002154	-0.004181	
16234	    0	8.762295	35.742449	-1.072217	1.993623	-0.329600	-1.853429	0.090944	0.356674	-0.007016	0.999906	0.009968	-0.001648	-0.009267	
16235	    0	8.874824	30.474180	-1.690954	1.410732	-0.255404	-2.755848	0.092957	0.303589	-0.014648	0.999879	0.007053	-0.001277	-0.013779	
16236	    0	9.991304	25.239048	-2.147995	0.814672	-0.237668	-3.461258	0.104286	0.250695	-0.020334	0.999841	0.004073	-0.001188	-0.017305	
16237	    0	11.977776	26.788453	-12.825786	0.547261	-0.929333	-4.209468	0.125977	0.265625	-0.126953	0.999763	0.002736	-0.004646	-0.021046	
16238	    0	11.185035	46.607997	-25.450119	0.649540	-1.383205	-5.477881	0.126321	0.463573	-0.252152	0.999596	0.003247	-0.006915	-0.027386	
16239	    0	25.410367	2.180763	-9.941395	-0.712471	-0.326573	-5.012287	0.254700	0.015076	-0.099060	0.999678	-0.003562	-0.001633	-0.025059	
16240	    0	43.110371	-42.436337	16.757477	2.128875	-0.026134	-5.137152	0.419965	-0.436998	0.163023	0.999613	0.010643	-0.000131	-0.025682	
16241	    0	19.216428	-0.474682	3.026558	4.014581	-1.077283	-5.284351	0.191772	-0.010437	0.031128	0.999434	0.020069	-0.005385	-0.026417	
16242	    0	9.387378	19.953818	9.640621	4.119281	-0.731219	-5.077133	0.098500	0.195030	0.100809	0.999458	0.020593	-0.003655	-0.025381	
16243	    0	14.011666	13.533820	5.890062	2.014389	-1.123747	-4.679638	0.142883	0.131409	0.061035	0.999660	0.010071	-0.005618	-0.023396	
16244	    0	9.403654	6.851808	-3.856488	1.577308	-1.119700	-3.837881	0.095544	0.066993	-0.037500	0.999768	0.007886	-0.005598	-0.019188	
16245	    0	5.738550	12.679601	-3.844136	0.703655	-0.735509	-3.239597	0.059570	0.125977	-0.037781	0.999855	0.003518	-0.003677	-0.016197	
16246	    0	11.558149	9.878437	-3.921784	-0.076105	-0.402653	-2.587774	0.116925	0.097262	-0.039021	0.999914	-0.000381	-0.002013	-0.012938	
16247	    0	14.429276	5.176218	-4.975888	-0.602734	-0.316435	-2.076763	0.144897	0.050110	-0.049683	0.999940	-0.003014	-0.001582	-0.010384	
16248	    0	14.384675	4.107714	-6.325019	-0.729572	-0.246052	-1.756886	0.144277	0.039580	-0.063219	0.999953	-0.003648	-0.001230	-0.008784	
16249	    0	15.558835	4.283322	-5.506544	-0.765810	-0.142671	-1.513690	0.155945	0.041443	-0.055115	0.999964	-0.003829	-0.000713	-0.007568	
16250	    0	21.110930	3.194624	-3.144023	-0.863275	0.002289	-1.314940	0.211312	0.030421	-0.031576	0.999969	-0.004316	0.000011	-0.006575	
16251	    0	22.935272	1.455026	-2.708501	-1.028263	0.058747	-1.282516	0.229431	0.012939	-0.027222	0.999966	-0.005141	0.000294	-0.006413	
16252	    0	22.046051	-0.238900	-2.328134	-1.208512	0.150110	-1.289957	0.220421	-0.003952	-0.023426	0.999960	-0.006042	0.000751	-0.006450	
16253	    0	20.556578	-2.437863	-0.618542	-1.305219	0.318914	-1.361105	0.205383	-0.025818	-0.006348	0.999954	-0.006526	0.001595	-0.006805	
16254	    0	19.178048	0.058420	-0.690570	-1.647028	0.403412	-1.351383	0.191764	-0.000771	-0.007290	0.999941	-0.008235	0.002017	-0.006757	
16255	    0	17.951684	1.129289	-1.017424	-2.332376	0.361072	-1.293221	0.179565	0.010010	-0.010620	0.999909	-0.011662	0.001805	-0.006466	
16256	    0	16.137460	-1.250284	-0.825219	-2.986463	0.234614	-1.119280	0.161291	-0.013529	-0.008245	0.999871	-0.014932	0.001173	-0.005596	
16257	    0	13.600833	-3.362540	0.569302	-3.464502	0.171671	-0.878953	0.135864	-0.034119	0.006165	0.999840	-0.017322	0.000858	-0.004395	
16258	    0	10.830320	-2.563805	1.781351	-4.250093	0.156987	-0.707109	0.108227	-0.025636	0.018273	0.999767	-0.021249	0.000785	-0.003535	
16259	    0	10.174204	-2.662877	1.365603	-4.690796	0.114452	-0.492905	0.101685	-0.026550	0.014221	0.999722	-0.023452	0.000572	-0.002464	
16260	    0	9.531018	-5.005495	0.159610	-4.392408	0.014879	-0.384743	0.095214	-0.050187	0.002690	0.999757	-0.021960	0.000074	-0.001924	
16261	    0	10.293165	-4.519127	-0.173464	-3.367013	0.010109	-0.385303	0.102844	-0.045410	-0.000977	0.999856	-0.016834	0.000051	-0.001926	
16262	    0	11.436180	-2.049155	2.210316	-2.434220	0.131992	-0.423061	0.114333	-0.020463	0.022277	0.999923	-0.012171	0.000660	-0.002115	
16263	    0	10.185521	5.188454	1.621202	-2.329312	0.088694	-0.728625	0.102051	0.051697	0.015564	0.999925	-0.011646	0.000443	-0.003643	
16264	    0	11.742270	4.588456	-1.068040	-2.530173	0.086978	-0.819803	0.117604	0.045262	-0.011307	0.999911	-0.012650	0.000435	-0.004099	
16265	    0	9.874956	2.120833	-1.040599	-2.520826	0.271805	-0.775169	0.098816	0.020691	-0.010803	0.999911	-0.012604	0.001359	-0.003876	
16266	    0	9.605045	1.022423	-0.720919	-2.388451	0.494780	-0.970105	0.096080	0.009669	-0.007565	0.999913	-0.011942	0.002474	-0.004850	
16267	    0	7.292213	1.164627	-1.926841	-1.856275	0.602927	-1.313812	0.072937	0.010986	-0.019592	0.999930	-0.009281	0.003015	-0.006569	
16268	    0	6.719265	4.132199	-3.903525	-1.465260	0.695626	-1.732485	0.067409	0.040450	-0.039568	0.999929	-0.007326	0.003478	-0.008662	
16269	    0	8.467143	8.794882	-5.034323	-1.577043	0.705931	-2.059236	0.085388	0.086670	-0.051331	0.999909	-0.007885	0.003530	-0.010296	
16270	    0	7.873913	6.233250	-5.959181	-1.827303	0.748470	-2.099873	0.079159	0.060953	-0.060449	0.999896	-0.009136	0.003742	-0.010499	
16271	    0	8.491991	1.660669	-5.007790	-1.659443	0.917272	-1.902828	0.084839	0.015381	-0.050598	0.999909	-0.008297	0.004586	-0.009514	
16272	    0	9.415812	-1.279116	-3.831899	-1.361886	1.270140	-1.865441	0.093786	-0.013930	-0.038823	0.999912	-0.006809	0.006351	-0.009327	
16273	    0	10.353275	-4.297879	-2.939786	-0.512710	1.561211	-2.082123	0.102844	-0.044128	-0.030090	0.999911	-0.002563	0.007806	-0.010410	
16274	    0	10.503651	-6.398169	-2.773195	0.293170	1.672997	-2.430814	0.104012	-0.065208	-0.028700	0.999889	0.001466	0.008365	-0.012154	
16275	    0	10.616083	-6.354485	-3.317976	1.129206	1.671110	-2.783340	0.104980	-0.064819	-0.034424	0.999852	0.005646	0.008355	-0.013916	
16276	    0	11.762007	-6.852561	-2.811672	1.532460	1.660451	-3.159531	0.116279	-0.070147	-0.029619	0.999811	0.007662	0.008302	-0.015797	
16277	    0	13.194681	-6.356278	-1.218751	1.571201	1.670963	-3.565483	0.130676	-0.065796	-0.013794	0.999775	0.007855	0.008354	-0.017826	
16278	    0	14.080790	-4.328170	-1.656919	1.317892	1.503683	-3.893209	0.139800	-0.045895	-0.017920	0.999760	0.006589	0.007518	-0.019464	
16279	    0	14.812863	-1.953333	-1.735782	1.210308	1.361954	-3.945470	0.147583	-0.022339	-0.018494	0.999763	0.006051	0.006809	-0.019726	
16280	    0	14.580682	-1.874501	-0.586372	0.911972	1.193708	-3.969681	0.145358	-0.021604	-0.006826	0.999774	0.004560	0.005968	-0.019847	
16281	    0	14.019628	-1.802354	-3.391498	0.462373	0.924174	-3.928645	0.139648	-0.020691	-0.034607	0.999793	0.002312	0.004621	-0.019642	
16282	    0	14.720532	-3.040004	-4.666620	0.375580	0.974906	-3.694952	0.146381	-0.033021	-0.047441	0.999815	0.001878	0.004874	-0.018474	
16283	    0	17.672400	-3.699931	-3.823672	0.396750	1.127113	-3.400605	0.175842	-0.039917	-0.039307	0.999837	0.001984	0.005635	-0.017002	
16284	    0	21.151143	-4.361071	-4.359357	0.668747	0.944752	-3.077836	0.210599	-0.046708	-0.044743	0.999865	0.003344	0.004724	-0.015388	
16285	    0	19.277481	-2.676545	-8.693571	1.528230	0.452632	-2.690997	0.192200	-0.028687	-0.087585	0.999877	0.007641	0.002263	-0.013454	
16286	    0	13.282125	-3.481678	-8.786739	1.720295	0.136761	-2.226331	0.132368	-0.035534	-0.088262	0.999901	0.008601	0.000684	-0.011131	
16287	    0	9.038534	-1.969935	-5.661768	1.408606	0.009918	-1.729620	0.090210	-0.020081	-0.056763	0.999937	0.007043	0.000050	-0.008648	
16288	    0	7.051994	0.418948	-2.726818	1.266877	-0.110818	-1.167503	0.070559	0.003950	-0.027204	0.999962	0.006334	-0.000554	-0.005837	
16289	    0	6.230803	-0.256113	-1.463654	1.375020	-0.215151	-0.525670	0.062317	-0.002625	-0.014587	0.999971	0.006875	-0.001076	-0.002628	
16290	    0	6.029922	-1.027645	-1.330517	1.501670	-0.283244	0.186350	0.060328	-0.010120	-0.013296	0.999969	0.007508	-0.001416	0.000932	
16291	    0	5.774961	-1.629354	-2.617129	1.366631	-0.334171	0.849161	0.057861	-0.015869	-0.026184	0.999966	0.006833	-0.001671	0.004246	
16292	    0	5.001011	-1.797285	-3.649869	1.079575	-0.385099	1.473257	0.050210	-0.017406	-0.036497	0.999956	0.005398	-0.001925	0.007366	
16293	    0	4.109948	-1.273583	-3.959751	0.795000	-0.464450	2.097366	0.041321	-0.012146	-0.039551	0.999934	0.003975	-0.002322	0.010487	
16294	    0	3.837300	-0.616501	-3.623735	0.502031	-0.524156	2.702038	0.038546	-0.005554	-0.036151	0.999902	0.002510	-0.002621	0.013510	
16295	    0	3.859601	-0.158679	-2.928135	0.243389	-0.558307	3.288422	0.038696	-0.000916	-0.029175	0.999860	0.001217	-0.002791	0.016441	
16296	    0	3.965572	-0.451806	-2.413834	0.011636	-0.595512	3.847937	0.039804	-0.003752	-0.024020	0.999810	0.000058	-0.002977	0.019238	
16297	    0	4.295211	-1.222826	-2.168537	-0.105294	-0.620130	4.392603	0.043274	-0.011292	-0.021545	0.999753	-0.000526	-0.003100	0.021961	
16298	    0	4.976048	-1.854619	-1.936946	-0.197431	-0.639599	4.877583	0.050255	-0.017344	-0.019192	0.999697	-0.000987	-0.003198	0.024385	
16299	    0	5.889553	-2.401331	-1.866893	-0.291478	-0.683485	5.322143	0.059570	-0.022461	-0.018433	0.999639	-0.001457	-0.003417	0.026608	
16300	    0	6.939542	-2.680611	-1.789428	-0.414334	-0.744924	5.726660	0.070191	-0.024840	-0.017581	0.999580	-0.002071	-0.003724	0.028629	
16301	    0	8.020938	-2.731696	-1.607832	-0.520407	-0.805600	6.080061	0.081055	-0.024902	-0.015686	0.999526	-0.002602	-0.004027	0.030396	
16302	    0	9.288946	-2.626150	-1.502766	-0.596151	-0.889172	6.412300	0.093734	-0.023309	-0.014540	0.999472	-0.002980	-0.004445	0.032056	
16303	    0	10.659711	-2.200438	-0.907658	-0.786744	-0.962827	6.735020	0.107300	-0.018433	-0.008484	0.999413	-0.003933	-0.004813	0.033669	
16304	    0	11.593989	-2.172355	0.970492	-0.982116	-0.970479	7.086385	0.116562	-0.017550	0.010363	0.999348	-0.004910	-0.004851	0.035424	
16305	    0	13.119763	-1.844895	1.905753	-0.989767	-1.070467	7.395397	0.131653	-0.013489	0.019836	0.999290	-0.004948	-0.005351	0.036968	
16306	    0	14.390990	-1.335002	2.993967	-0.929684	-1.194490	7.600779	0.144093	-0.007733	0.030845	0.999249	-0.004647	-0.005971	0.037994	
16307	    0	15.975742	-1.823399	4.056320	-0.617947	-1.274433	7.680938	0.160034	-0.011963	0.041626	0.999237	-0.003089	-0.006371	0.038395	
16308	    0	18.068636	-0.949318	3.833145	0.094056	-1.339680	7.691620	0.180612	-0.002563	0.039539	0.999238	0.000470	-0.006697	0.038448	
16309	    0	21.035429	2.108812	2.654762	0.903741	-1.286644	7.660338	0.209167	0.028992	0.028015	0.999235	0.004518	-0.006432	0.038292	
16310	    0	24.804821	8.458151	0.823522	1.457392	-1.204795	7.557300	0.244561	0.093798	0.010377	0.999241	0.007285	-0.006022	0.037777	
16311	    0	26.946219	15.036876	-0.809495	1.684986	-1.146790	7.421418	0.263672	0.160278	-0.005249	0.999259	0.008423	-0.005733	0.037098	
16312	    0	26.214899	16.380791	-2.352785	2.224097	-1.141810	6.985741	0.256332	0.173067	-0.020163	0.999311	0.011118	-0.005708	0.034921	
16313	    0	25.721871	19.228462	-2.979009	3.320989	-1.170397	6.039896	0.251404	0.200378	-0.025024	0.999389	0.016602	-0.005851	0.030193	
16314	    0	23.535769	27.303627	-2.357743	4.054554	-1.135062	4.718995	0.228930	0.278873	-0.016651	0.999499	0.020269	-0.005674	0.023591	
16315	    0	18.933508	34.106840	-2.831551	4.038717	-1.071103	3.308497	0.183777	0.344604	-0.020386	0.999644	0.020191	-0.005355	0.016541	
16316	    0	13.768369	37.737261	-3.777086	3.556887	-1.020886	1.851595	0.134346	0.379210	-0.030346	0.999785	0.017783	-0.005104	0.009257	
16317	    0	10.468628	42.407576	-3.065940	2.781017	-0.893244	0.578329	0.103577	0.424744	-0.024292	0.999888	0.013905	-0.004466	0.002892	
16318	    0	7.949656	43.618248	-1.935570	1.523801	-0.627717	-0.661286	0.080992	0.436046	-0.015780	0.999960	0.007619	-0.003139	-0.003306	
16319	    0	7.036012	35.572618	-4.495239	0.724806	-0.402649	-1.984444	0.073975	0.355164	-0.043518	0.999942	0.003624	-0.002013	-0.009922	
16320	    0	10.050920	26.529601	-5.255331	0.552202	-0.324645	-3.189037	0.104808	0.263791	-0.051656	0.999867	0.002761	-0.001623	-0.015944	
16321	    0	11.481614	23.187376	-4.092802	0.216880	-0.359369	-4.009518	0.119507	0.229553	-0.040466	0.999796	0.001084	-0.001797	-0.020046	
16322	    0	12.810416	22.022809	-5.317587	-0.698342	-0.556423	-4.517191	0.133180	0.217072	-0.053572	0.999735	-0.003491	-0.002782	-0.022584	
16323	    0	12.837333	39.307862	-16.974574	-0.953608	-1.219336	-5.372556	0.139893	0.388611	-0.170776	0.999609	-0.004767	-0.006096	-0.026859	
16324	    0	20.827516	4.875144	-14.206072	-0.371785	-1.352847	-5.052382	0.210368	0.043192	-0.140726	0.999656	-0.001859	-0.006763	-0.025259	
16325	    0	42.767534	-33.916163	16.041340	2.461808	0.260202	-5.516893	0.418274	-0.352722	0.155579	0.999542	0.012307	0.001301	-0.027580	
16326	    0	23.216781	-2.416313	7.980326	4.319284	-1.486948	-6.107857	0.230652	-0.032963	0.080873	0.999272	0.021591	-0.007433	-0.030532	
16327	    0	7.570869	15.903584	4.555530	4.994730	-1.314071	-5.119689	0.079407	0.155823	0.049988	0.999338	0.024968	-0.006569	-0.025593	
16328	    0	11.636366	21.247277	7.133047	2.748487	-1.282487	-4.889400	0.121021	0.208538	0.074981	0.999586	0.013741	-0.006412	-0.024444	
16329	    0	9.852473	8.577208	-2.514501	1.264486	-1.494723	-4.013395	0.100403	0.083923	-0.023865	0.999750	0.006322	-0.007473	-0.020065	
16330	    0	5.808032	11.448156	-7.348351	0.685345	-0.961925	-3.301217	0.060313	0.113749	-0.072806	0.999846	0.003427	-0.004809	-0.016505	
16331	    0	9.413652	9.894526	-8.167625	-0.300416	-0.589770	-2.580338	0.095642	0.097595	-0.081543	0.999910	-0.001502	-0.002949	-0.012901	
