// Start Time: Unknown
// Update Rate: 100.0Hz
// Filter Profile: human (34.3)
// Firmware Version: 2.1.4
PacketCounter	SampleTimeFine	Acc_X	Acc_Y	Acc_Z	Gyr_X	Gyr_Y	Gyr_Z	VelInc_X	VelInc_Y	VelInc_Z	OriInc_q0	OriInc_q1	OriInc_q2	OriInc_q3	
37171	    0	28.389514	-38.569842	-13.129284	-3.862336	-1.071833	2.207376	0.288818	-0.384949	-0.122314	0.999738	-0.019310	-0.005359	0.011036	
37172	    0	14.367397	-14.660249	-1.905086	1.195926	-0.461776	1.453041	0.144778	-0.145437	-0.019589	0.999952	0.005980	-0.002309	0.007265	
37173	    0	19.820127	11.403430	12.824439	1.319134	-0.280573	0.468449	0.197754	0.113647	0.129272	0.999974	0.006596	-0.001403	0.002342	
37174	    0	15.560045	29.020056	3.848248	0.376131	-0.843816	-0.653461	0.156382	0.289617	0.039686	0.999984	0.001881	-0.004219	-0.003267	
37175	    0	8.237696	30.672442	-6.352755	-0.492673	-0.611120	-1.280987	0.084534	0.306030	-0.064026	0.999971	-0.002463	-0.003056	-0.006405	
37176	    0	3.130481	16.827365	-10.133078	-2.479257	0.295840	-1.408053	0.032331	0.166775	-0.103452	0.999897	-0.012396	0.001479	-0.007040	
37177	    0	4.966317	9.130862	-7.847071	-3.522536	0.815637	-1.712913	0.050110	0.089478	-0.080261	0.999800	-0.017612	0.004078	-0.008564	
37178	    0	7.373853	8.535585	-9.051165	-3.000809	0.779768	-1.964679	0.074206	0.083255	-0.092060	0.999831	-0.015003	0.003899	-0.009823	
37179	    0	12.478760	6.917494	-11.785881	-1.496937	0.557155	-2.326280	0.125244	0.066833	-0.118713	0.999900	-0.007484	0.002786	-0.011631	
37180	    0	18.977112	0.293143	-14.043767	-0.747517	0.362409	-2.813059	0.189528	-0.000261	-0.140784	0.999892	-0.003737	0.001812	-0.014065	
37181	    0	21.927628	-3.703480	-13.492572	-0.227172	0.173193	-2.716912	0.218628	-0.040161	-0.135071	0.999907	-0.001136	0.000866	-0.013584	
37182	    0	17.277254	-4.299000	-13.003517	0.551623	-0.183493	-2.712718	0.172291	-0.044971	-0.129999	0.999904	0.002758	-0.000917	-0.013563	
37183	    0	13.088095	-2.073455	-11.182444	0.815051	-0.614960	-3.333451	0.130859	-0.022461	-0.111511	0.999847	0.004075	-0.003075	-0.016666	
37184	    0	14.349317	1.154582	-9.781234	1.058835	-0.773287	-3.617128	0.144053	0.009459	-0.097202	0.999814	0.005294	-0.003866	-0.018085	
37185	    0	16.029282	3.264399	-6.833257	1.138378	-0.810103	-3.654713	0.161133	0.030090	-0.067505	0.999808	0.005692	-0.004050	-0.018272	
37186	    0	19.002399	0.320516	-2.538243	0.548587	-0.658076	-3.740159	0.190123	-0.000281	-0.024755	0.999816	0.002743	-0.003290	-0.018700	
37187	    0	18.766519	-0.978830	-0.248931	-0.205816	-0.558506	-3.814171	0.187439	-0.013367	-0.001953	0.999813	-0.001029	-0.002792	-0.019070	
37188	    0	17.766727	0.294257	1.337042	-0.826318	-0.384356	-3.893158	0.177654	-0.000460	0.013709	0.999800	-0.004131	-0.001922	-0.019464	
37189	    0	18.189396	-0.069679	3.256029	-1.369384	-0.080877	-3.909581	0.181824	-0.004028	0.032654	0.999784	-0.006846	-0.000404	-0.019547	
37190	    0	18.111297	-2.554391	3.692262	-1.766337	0.101479	-3.845883	0.180600	-0.028693	0.037075	0.999776	-0.008831	0.000507	-0.019228	
37191	    0	16.704643	-4.786704	3.033677	-2.003633	0.235194	-3.795916	0.166138	-0.050720	0.030640	0.999768	-0.010017	0.001176	-0.018978	
37192	    0	15.071775	-7.530760	2.034590	-2.311502	0.295089	-3.604403	0.149362	-0.077767	0.021014	0.999769	-0.011557	0.001475	-0.018021	
37193	    0	13.679148	-11.426074	2.547060	-2.493272	0.351740	-3.270191	0.134949	-0.116150	0.026672	0.999786	-0.012465	0.001759	-0.016350	
37194	    0	11.443943	-14.664186	2.923458	-2.421715	0.422312	-2.888280	0.112373	-0.147908	0.030782	0.999820	-0.012108	0.002111	-0.014441	
37195	    0	8.259512	-17.733106	1.516377	-2.333948	0.369472	-2.520877	0.080383	-0.178162	0.017090	0.999850	-0.011669	0.001847	-0.012604	
37196	    0	4.521871	-21.554507	-2.092999	-2.119904	0.029946	-2.048948	0.043003	-0.216199	-0.018647	0.999891	-0.010599	0.000150	-0.010244	
37197	    0	0.886443	-25.372817	-4.634073	-1.636538	-0.304228	-1.410703	0.007141	-0.254150	-0.044250	0.999940	-0.008183	-0.001521	-0.007053	
37198	    0	-1.950057	-26.810558	-2.372730	-0.611689	-0.283624	-0.733951	-0.020452	-0.268103	-0.022936	0.999987	-0.003058	-0.001418	-0.003670	
37199	    0	-3.731271	-24.761400	0.868037	0.720407	-0.197602	-0.125122	-0.037476	-0.247620	0.007751	0.999992	0.003602	-0.000988	-0.000626	
37200	    0	-4.329038	-21.778638	2.306695	1.543062	-0.071526	0.421338	-0.042839	-0.218046	0.021370	0.999968	0.007715	-0.000358	0.002107	
37201	    0	-4.030175	-18.153926	1.804758	1.977769	-0.074007	0.900286	-0.039490	-0.181885	0.016235	0.999941	0.009889	-0.000370	0.004501	
37202	    0	-2.625174	-14.401398	1.227953	2.217164	0.054933	1.340713	-0.025282	-0.144310	0.010688	0.999915	0.011086	0.000275	0.006703	
37203	    0	-0.767444	-10.992676	2.189268	2.318844	0.400557	1.667843	-0.006714	-0.110229	0.020630	0.999895	0.011594	0.002003	0.008339	
37204	    0	1.096734	-8.692562	2.848654	2.255910	0.667217	1.988490	0.011926	-0.087124	0.027466	0.999881	0.011279	0.003336	0.009942	
37205	    0	3.156874	-6.954440	2.369903	1.948818	0.833927	2.319431	0.032471	-0.069397	0.022888	0.999876	0.009744	0.004169	0.011597	
37206	    0	5.658860	-4.317818	2.703689	1.048126	1.056901	2.561854	0.057278	-0.042587	0.026511	0.999889	0.005240	0.005284	0.012809	
37207	    0	7.976047	-0.475941	2.481854	0.002289	1.165239	2.594845	0.079956	-0.003723	0.024353	0.999898	0.000011	0.005826	0.012974	
37208	    0	9.932171	2.046230	-0.018005	-0.946648	0.932342	2.436335	0.099060	0.021667	-0.000743	0.999904	-0.004733	0.004662	0.012181	
37209	    0	11.845677	3.453711	-4.758496	-1.243625	0.390826	2.172147	0.117981	0.035522	-0.048035	0.999919	-0.006218	0.001954	0.010860	
37210	    0	24.023383	4.119977	-8.928291	-0.363549	0.063707	2.388822	0.239692	0.043902	-0.089437	0.999927	-0.001818	0.000319	0.011944	
37211	    0	42.830924	0.493973	-16.905098	0.751724	-0.173959	3.382280	0.428284	0.012817	-0.168640	0.999849	0.003758	-0.000870	0.016911	
37212	    0	27.453230	-11.016001	-14.420811	1.352778	0.853593	3.584329	0.275815	-0.104240	-0.146102	0.999807	0.006763	0.004268	0.017920	
37213	    0	21.160461	-8.913912	-5.570413	1.726122	0.930874	4.328563	0.213196	-0.084045	-0.057434	0.999718	0.008630	0.004654	0.021641	
37214	    0	26.869857	-4.501146	-5.150765	2.076760	0.727352	4.656734	0.269450	-0.038198	-0.052907	0.999668	0.010383	0.003636	0.023281	
37215	    0	31.606262	-2.161347	-8.302965	1.935957	0.194569	4.434637	0.316345	-0.013794	-0.083496	0.999706	0.009679	0.000973	0.022171	
37216	    0	31.254644	0.288539	-9.422976	1.460584	-0.159850	4.333111	0.312451	0.010343	-0.093923	0.999738	0.007302	-0.000799	0.021664	
37217	    0	29.120884	6.135480	-9.120594	1.391164	-0.242638	4.601732	0.289795	0.068665	-0.090393	0.999710	0.006955	-0.001213	0.023006	
37218	    0	27.589589	9.216246	-10.482175	1.081391	-0.121893	4.926059	0.273569	0.099484	-0.104130	0.999681	0.005406	-0.000609	0.024628	
37219	    0	25.273826	9.091514	-8.828254	0.599925	-0.035862	5.011518	0.250366	0.097473	-0.087952	0.999681	0.002999	-0.000179	0.025055	
37220	    0	22.412984	6.618966	-6.473329	0.446936	-0.170152	4.856210	0.222487	0.071750	-0.064387	0.999701	0.002234	-0.000851	0.024279	
37221	    0	19.772790	4.210358	-6.002465	0.736299	-0.168433	4.432289	0.196777	0.046692	-0.059692	0.999747	0.003681	-0.000842	0.022160	
37222	    0	17.762909	3.744418	-5.059286	1.233375	-0.175869	3.832313	0.176908	0.041149	-0.050191	0.999797	0.006166	-0.000879	0.019160	
37223	    0	16.167613	4.558557	-2.943294	1.654903	-0.514821	3.119825	0.161011	0.048340	-0.028625	0.999841	0.008274	-0.002574	0.015598	
37224	    0	14.102660	6.513572	-1.964924	1.970761	-1.011894	2.420343	0.140318	0.067021	-0.018284	0.999865	0.009853	-0.005059	0.012101	
37225	    0	12.523759	9.715565	-1.583258	2.326495	-1.342832	1.804431	0.124451	0.098450	-0.013855	0.999868	0.011632	-0.006714	0.009022	
37226	    0	11.304713	12.424921	-1.412531	2.629781	-1.509735	1.315558	0.112320	0.125154	-0.011634	0.999863	0.013148	-0.007548	0.006577	
37227	    0	9.036905	14.278871	-1.300211	2.870316	-1.541021	0.939223	0.089783	0.143372	-0.010254	0.999856	0.014351	-0.007705	0.004696	
37228	    0	6.942336	14.038854	-1.246434	2.603816	-1.326037	0.420204	0.069201	0.140676	-0.010175	0.999890	0.013019	-0.006630	0.002101	
37229	    0	4.018949	13.716215	-1.686238	1.670098	-0.756656	-0.137331	0.040344	0.137268	-0.015564	0.999957	0.008350	-0.003783	-0.000687	
37230	    0	0.356274	14.755069	-1.669275	0.456429	-0.175667	-0.429154	0.003894	0.147580	-0.016353	0.999994	0.002282	-0.000878	-0.002146	
37231	    0	-2.092491	15.798926	-1.858983	-0.457002	0.291635	-0.717166	-0.020386	0.158020	-0.018921	0.999990	-0.002285	0.001458	-0.003586	
37232	    0	-3.002441	14.658361	-1.353256	-1.198020	0.702676	-1.014150	-0.029330	0.146649	-0.014307	0.999963	-0.005990	0.003513	-0.005071	
37233	    0	-3.838269	11.439462	1.777260	-1.546506	0.752462	-1.149770	-0.037659	0.114746	0.017029	0.999946	-0.007732	0.003762	-0.005749	
37234	    0	-3.405354	5.612997	5.610350	-1.241891	0.356488	-1.222817	-0.033608	0.056684	0.055813	0.999960	-0.006209	0.001782	-0.006114	
37235	    0	-1.924489	-2.054517	8.920438	-0.464634	-0.187494	-1.394666	-0.019470	-0.020203	0.089233	0.999972	-0.002323	-0.000937	-0.006973	
37236	    0	-1.923715	-7.693858	7.958804	-0.364690	-0.892460	-1.448459	-0.020148	-0.076650	0.079639	0.999962	-0.001823	-0.004462	-0.007242	
37237	    0	-1.348859	-13.083510	4.175727	-1.121553	-1.825575	-1.467174	-0.014832	-0.130493	0.042358	0.999915	-0.005608	-0.009128	-0.007336	
37238	    0	-0.091827	-15.629454	-1.672181	-1.983941	-2.592037	-1.558007	-0.001933	-0.156438	-0.015191	0.999836	-0.009919	-0.012959	-0.007790	
37239	    0	-0.422256	-13.584053	-7.681134	-1.909539	-2.425501	-1.425240	-0.004272	-0.136536	-0.075562	0.999855	-0.009547	-0.012127	-0.007126	
37240	    0	1.817143	-7.511188	-6.848136	-0.592238	-0.834664	-1.187527	0.018009	-0.075421	-0.068183	0.999969	-0.002961	-0.004173	-0.005938	
37241	    0	4.129094	-5.394687	-2.224475	0.166512	0.536349	-1.022345	0.040955	-0.054138	-0.022400	0.999983	0.000833	0.002682	-0.005112	
37242	    0	4.565322	-7.239436	-0.834090	-0.332453	0.913055	-0.908858	0.045285	-0.072615	-0.008428	0.999977	-0.001662	0.004565	-0.004544	
37243	    0	4.719372	-6.434221	-0.751442	-0.672918	0.893600	-0.884254	0.046875	-0.064575	-0.007507	0.999974	-0.003365	0.004468	-0.004421	
37244	    0	3.710178	-2.140417	-0.931278	-0.062943	0.839811	-0.953490	0.036960	-0.021584	-0.009461	0.999979	-0.000315	0.004199	-0.004767	
37245	    0	3.417722	2.380359	-2.576022	1.413179	0.964372	-1.064319	0.034180	0.023804	-0.025757	0.999949	0.007066	0.004822	-0.005322	
37246	    0	5.500335	7.946185	4.220206	1.622062	1.774655	-1.440095	0.055947	0.078718	0.042349	0.999902	0.008110	0.008873	-0.007200	
37247	    0	26.014061	6.188929	6.565347	-0.865754	0.390629	-1.153575	0.260620	0.060669	0.064880	0.999971	-0.004329	0.001953	-0.005768	
37248	    0	45.166069	-25.664009	-19.938817	-5.122452	-1.750405	1.044787	0.454694	-0.259196	-0.188800	0.999619	-0.025609	-0.008751	0.005223	
37249	    0	19.056576	-42.918141	-9.157985	-3.950893	-1.486163	2.460725	0.196472	-0.428467	-0.081665	0.999701	-0.019753	-0.007430	0.012302	
37250	    0	19.930153	-8.195502	4.746363	2.323426	-0.117306	1.810712	0.200008	-0.080691	0.046638	0.999891	0.011617	-0.000587	0.009053	
37251	    0	20.395611	18.797335	17.484566	2.121980	-0.888085	0.961329	0.202271	0.187073	0.177734	0.999922	0.010610	-0.004440	0.004807	
37252	    0	13.373661	37.884593	-1.621413	0.747879	-1.386657	-0.181009	0.134181	0.378779	-0.013868	0.999969	0.003739	-0.006933	-0.000905	
37253	    0	4.097310	34.151811	-7.597843	-1.553370	-0.640689	-1.024644	0.042969	0.340698	-0.078491	0.999951	-0.007767	-0.003203	-0.005123	
37254	    0	-0.689183	18.875119	-11.176751	-3.669404	0.599518	-1.307000	-0.006009	0.186700	-0.115187	0.999805	-0.018346	0.002997	-0.006535	
37255	    0	5.032517	7.058873	-5.005590	-4.817551	0.836276	-1.754958	0.050720	0.068909	-0.051941	0.999662	-0.024085	0.004181	-0.008774	
37256	    0	8.225260	8.311924	-4.851223	-3.526171	0.789507	-1.924840	0.082846	0.081448	-0.050284	0.999790	-0.017630	0.003947	-0.009624	
37257	    0	17.319211	5.183182	-10.139733	-1.835498	0.434889	-1.963104	0.173462	0.049194	-0.102234	0.999907	-0.009177	0.002174	-0.009815	
37258	    0	24.159543	-2.945406	-15.653446	-1.196893	0.274856	-2.206289	0.241029	-0.033052	-0.156675	0.999920	-0.005984	0.001374	-0.011031	
37259	    0	20.532770	-7.767141	-12.559298	-0.450716	0.370797	-2.195024	0.204224	-0.080200	-0.125793	0.999935	-0.002254	0.001854	-0.010975	
37260	    0	15.187095	-5.362396	-11.635836	0.312622	-0.219350	-2.391492	0.151344	-0.055254	-0.116278	0.999927	0.001563	-0.001097	-0.011957	
37261	    0	14.273664	-1.377729	-13.537377	1.179747	-0.715669	-2.932105	0.143005	-0.015076	-0.134949	0.999868	0.005898	-0.003578	-0.014660	
37262	    0	13.973028	0.466747	-12.799945	1.177279	-0.950674	-3.274332	0.140396	0.003123	-0.127312	0.999837	0.005886	-0.004753	-0.016371	
37263	    0	14.903352	3.083909	-10.875194	1.168896	-0.975670	-3.556283	0.150085	0.028809	-0.107849	0.999812	0.005844	-0.004878	-0.017780	
37264	    0	18.531022	2.745615	-8.647402	0.220313	-0.877817	-3.786326	0.186164	0.024032	-0.085630	0.999810	0.001101	-0.004389	-0.018930	
37265	    0	19.941746	2.397223	-5.614037	-1.107866	-0.655220	-3.891264	0.200012	0.019775	-0.055603	0.999789	-0.005539	-0.003276	-0.019455	
37266	    0	20.035503	2.101420	-2.633495	-2.051135	-0.321032	-3.834838	0.200747	0.016898	-0.026200	0.999762	-0.010255	-0.001605	-0.019173	
37267	    0	19.853159	-0.013674	1.108205	-2.311707	0.064855	-3.803567	0.198486	-0.003784	0.011047	0.999752	-0.011558	0.000324	-0.019016	
37268	    0	19.593995	-3.042874	3.413600	-2.348719	0.285364	-3.858705	0.195358	-0.033800	0.034241	0.999743	-0.011743	0.001427	-0.019292	
37269	    0	18.504796	-5.433402	4.613512	-2.220915	0.340300	-3.921080	0.184021	-0.057434	0.046448	0.999744	-0.011104	0.001701	-0.019604	
37270	    0	16.951072	-6.728074	4.527491	-1.880223	0.339726	-3.927161	0.168229	-0.070165	0.045639	0.999762	-0.009400	0.001698	-0.019634	
37271	    0	15.226544	-8.008787	2.667252	-1.607633	0.225275	-3.906541	0.150696	-0.082825	0.027161	0.999776	-0.008038	0.001126	-0.019531	
37272	    0	13.308341	-9.619672	2.050912	-1.585689	0.234239	-3.757929	0.131271	-0.098509	0.021130	0.999791	-0.007928	0.001171	-0.018788	
37273	    0	10.625163	-10.741845	0.682658	-1.482480	0.236716	-3.480738	0.104370	-0.109192	0.007507	0.999820	-0.007412	0.001184	-0.017403	
37274	    0	7.913908	-13.757169	-0.147693	-1.636969	0.235379	-3.064692	0.077018	-0.138769	-0.000436	0.999848	-0.008184	0.001177	-0.015323	
37275	    0	5.071017	-17.153806	-1.138679	-1.869086	0.192268	-2.460578	0.048584	-0.172241	-0.009827	0.999880	-0.009345	0.000961	-0.012302	
37276	    0	2.999616	-20.202773	-2.778513	-1.938111	0.122455	-1.723147	0.028236	-0.202533	-0.025842	0.999915	-0.009690	0.000612	-0.008615	
37277	    0	1.368369	-23.557402	-1.261381	-1.393145	0.219157	-0.983441	0.012512	-0.235718	-0.010986	0.999963	-0.006966	0.001096	-0.004917	
37278	    0	-0.364696	-25.942852	1.258595	-0.155449	0.351906	-0.346566	-0.004074	-0.259412	0.012794	0.999996	-0.000777	0.001760	-0.001733	
37279	    0	-1.968220	-25.492625	2.464926	1.015477	0.226022	0.193025	-0.019409	-0.255066	0.023376	0.999986	0.005077	0.001130	0.000965	
37280	    0	-2.047609	-21.661234	1.945754	1.724459	0.115206	0.665865	-0.019744	-0.216836	0.017600	0.999957	0.008622	0.000576	0.003329	
37281	    0	-0.942154	-16.135404	2.451550	1.881636	0.328070	1.037618	-0.008545	-0.161621	0.023010	0.999941	0.009408	0.001640	0.005188	
37282	    0	0.037936	-11.714996	3.477451	1.799244	0.716226	1.352723	0.001295	-0.117450	0.033715	0.999929	0.008996	0.003581	0.006763	
37283	    0	1.122273	-8.490321	5.520138	1.454202	1.311719	1.612897	0.012268	-0.085205	0.054504	0.999919	0.007271	0.006558	0.008064	
37284	    0	2.905945	-5.384476	6.060334	1.279871	1.543665	1.852093	0.030024	-0.053955	0.060029	0.999907	0.006399	0.007718	0.009260	
37285	    0	5.003257	-3.810061	5.515256	0.795007	1.484916	2.126377	0.050842	-0.037781	0.054626	0.999907	0.003975	0.007424	0.010632	
37286	    0	7.218248	-1.906661	5.573654	-0.218589	1.408812	2.344586	0.072789	-0.018155	0.055245	0.999906	-0.001093	0.007044	0.011723	
37287	    0	8.710853	0.537523	4.640056	-1.261187	1.339964	2.403351	0.087341	0.006714	0.045776	0.999885	-0.006306	0.006700	0.012016	
37288	    0	9.712395	1.895814	1.143831	-2.115923	1.044133	2.432940	0.096940	0.020254	0.010722	0.999856	-0.010579	0.005220	0.012164	
37289	    0	11.233275	1.254397	-5.044087	-2.136137	0.684388	2.435414	0.112000	0.013367	-0.050964	0.999863	-0.010680	0.003422	0.012177	
37290	    0	19.476612	-0.489966	-10.596338	-1.198242	0.632119	2.682787	0.194478	-0.002927	-0.106557	0.999887	-0.005991	0.003160	0.013413	
37291	    0	35.575308	-4.791319	-17.274293	0.374813	0.632510	3.453243	0.355957	-0.041443	-0.173950	0.999844	0.001874	0.003162	0.017265	
37292	    0	31.911593	-16.034583	-19.115527	2.444293	1.093580	3.757238	0.320965	-0.151961	-0.194798	0.999733	0.012220	0.005467	0.018785	
37293	    0	24.483323	-17.662955	-12.284524	3.091178	1.023971	3.768547	0.247437	-0.170044	-0.126770	0.999689	0.015454	0.005119	0.018841	
37294	    0	29.984786	-10.296745	-10.505392	3.635879	0.922895	4.138912	0.301372	-0.094792	-0.108215	0.999610	0.018177	0.004614	0.020692	
37295	    0	33.765761	-3.950350	-14.463765	3.609158	0.450382	4.124970	0.338013	-0.029907	-0.145996	0.999621	0.018044	0.002252	0.020622	
37296	    0	33.481003	1.934260	-17.680061	2.641183	0.042157	4.171032	0.334240	0.028650	-0.176534	0.999695	0.013205	0.000211	0.020853	
37297	    0	30.213154	8.511687	-16.856810	2.730325	0.065621	4.705628	0.299927	0.094482	-0.167419	0.999630	0.013650	0.000328	0.023525	
37298	    0	28.700223	12.948460	-15.915253	2.806527	0.472333	5.403214	0.282951	0.139388	-0.157914	0.999534	0.014030	0.002361	0.027012	
37299	    0	27.103375	12.887730	-13.582438	2.441046	0.713657	5.754275	0.266663	0.138245	-0.135132	0.999505	0.012203	0.003568	0.028767	
37300	    0	25.257473	9.974455	-11.335795	1.927669	0.791670	5.672746	0.249142	0.107937	-0.113335	0.999543	0.009637	0.003958	0.028359	
37301	    0	22.794812	7.497596	-9.747241	1.401129	0.600511	5.360343	0.225525	0.081726	-0.097595	0.999611	0.007005	0.003002	0.026798	
37302	    0	20.133853	8.008326	-7.523980	0.958735	0.210594	4.955437	0.199187	0.085397	-0.075049	0.999681	0.004793	0.001053	0.024775	
37303	    0	18.168369	9.651079	-4.772626	0.662287	-0.308826	4.414736	0.179565	0.100647	-0.047119	0.999749	0.003311	-0.001544	0.022072	
37304	    0	15.843747	11.203433	-2.547685	0.611536	-0.779203	3.835166	0.156346	0.115122	-0.024516	0.999804	0.003057	-0.003896	0.019175	
37305	    0	14.112786	12.603996	-1.639652	0.837178	-1.125394	3.221296	0.139160	0.128357	-0.015076	0.999846	0.004186	-0.005627	0.016106	
37306	    0	13.246186	13.680002	0.108827	1.479593	-1.348362	2.485381	0.130733	0.138414	0.002994	0.999872	0.007398	-0.006742	0.012426	
37307	    0	11.538635	13.289924	0.971091	2.079854	-1.401384	1.756355	0.114136	0.133789	0.011902	0.999883	0.010399	-0.007007	0.008781	
37308	    0	7.832049	11.879578	1.792836	2.328384	-1.306199	1.211400	0.077475	0.119043	0.019821	0.999892	0.011642	-0.006531	0.006057	
37309	    0	4.285535	11.573813	-0.627550	1.520752	-0.968948	0.588235	0.042542	0.115906	-0.005188	0.999954	0.007604	-0.004845	0.002941	
37310	    0	0.063917	14.316031	-1.374790	0.296784	-0.602342	0.112152	0.000600	0.143181	-0.013534	0.999993	0.001484	-0.003012	0.000561	
37311	    0	-3.091411	17.748563	-1.285230	-0.591089	-0.331116	-0.284577	-0.030640	0.177490	-0.013428	0.999992	-0.002955	-0.001656	-0.001423	
37312	    0	-4.472268	17.948149	-0.600945	-0.858884	0.236512	-0.685314	-0.044115	0.179605	-0.006728	0.999984	-0.004294	0.001183	-0.003427	
37313	    0	-4.650706	13.283014	4.842795	-0.562101	0.978860	-0.926217	-0.045654	0.133179	0.048279	0.999973	-0.002810	0.004894	-0.004631	
37314	    0	-3.051895	5.503903	9.466184	-0.140382	0.880059	-1.224339	-0.029764	0.055289	0.094755	0.999970	-0.000702	0.004400	-0.006122	
37315	    0	-2.211914	-0.846450	9.898333	-0.199702	0.067139	-1.688405	-0.022156	-0.008179	0.098999	0.999964	-0.000998	0.000336	-0.008442	
37316	    0	-3.795109	-1.905408	8.635048	-0.648703	-0.882739	-1.936953	-0.038512	-0.018403	0.086242	0.999938	-0.003243	-0.004414	-0.009685	
37317	    0	-2.923218	-5.322199	4.085523	-1.181838	-1.836273	-2.057725	-0.030151	-0.052673	0.040894	0.999887	-0.005909	-0.009181	-0.010288	
37318	    0	-2.146551	-7.310925	-3.370577	-1.723768	-2.590898	-1.956478	-0.021748	-0.073186	-0.033356	0.999830	-0.008618	-0.012954	-0.009782	
37319	    0	-2.540429	-8.028987	-9.350387	-2.437769	-3.040344	-1.503100	-0.024597	-0.081238	-0.092896	0.999782	-0.012188	-0.015201	-0.007515	
37320	    0	-0.916609	-7.544976	-10.917148	-2.074346	-2.510579	-1.228776	-0.008269	-0.076525	-0.108489	0.999848	-0.010371	-0.012552	-0.006144	
37321	    0	2.371422	-4.029384	-8.372188	-1.224346	-0.828565	-1.258870	0.023804	-0.040955	-0.083374	0.999952	-0.006122	-0.004143	-0.006294	
37322	    0	5.474954	-3.619304	-4.607734	-1.390669	0.480850	-1.219005	0.054416	-0.036845	-0.045954	0.999954	-0.006953	0.002404	-0.006095	
37323	    0	7.878665	-4.078803	-1.388396	-1.419092	0.979822	-1.103993	0.078491	-0.041321	-0.013977	0.999948	-0.007095	0.004899	-0.005520	
37324	    0	8.447895	-3.633296	-0.052463	-0.409321	0.984773	-1.050387	0.084283	-0.036777	-0.000865	0.999971	-0.002047	0.004924	-0.005252	
37325	    0	6.668657	-1.348899	-0.262095	1.291681	1.210235	-1.155875	0.066589	-0.013855	-0.003113	0.999944	0.006458	0.006051	-0.005779	
37326	    0	3.722605	5.230228	5.039491	1.736128	1.674327	-1.521925	0.038043	0.051577	0.050529	0.999898	0.008680	0.008371	-0.007609	
37327	    0	5.978536	9.464341	9.351920	0.239758	1.020068	-1.771577	0.061096	0.093994	0.093323	0.999947	0.001199	0.005100	-0.008858	
37328	    0	29.747211	2.296042	1.746137	-2.250927	-0.737784	-1.124796	0.297529	0.021490	0.018312	0.999913	-0.011254	-0.003689	-0.005624	
37329	    0	41.686320	-22.853343	-15.261544	-5.977193	-2.363826	1.548286	0.420349	-0.229614	-0.140808	0.999454	-0.029881	-0.011817	0.007740	
37330	    0	20.658754	-49.972975	-18.809862	-3.286244	-1.782751	2.292054	0.213936	-0.500286	-0.177996	0.999759	-0.016430	-0.008913	0.011459	
37331	    0	20.676948	-11.914030	4.971470	2.425472	0.528927	1.565608	0.207825	-0.118103	0.047729	0.999892	0.012127	0.002645	0.007828	
37332	    0	21.389271	20.022694	20.391098	2.130938	-0.512898	0.798625	0.212569	0.198886	0.206581	0.999931	0.010654	-0.002564	0.003993	
37333	    0	13.306886	33.536824	0.788189	1.150713	-0.848396	-0.162508	0.133301	0.335205	0.010376	0.999973	0.005754	-0.004242	-0.000813	
37334	    0	6.946339	28.428674	-4.824687	-1.316279	-0.801670	-0.965704	0.071032	0.283622	-0.049832	0.999958	-0.006581	-0.004008	-0.004828	
37335	    0	1.871818	17.860187	-11.368085	-3.786537	0.334190	-1.413061	0.019775	0.176270	-0.117065	0.999794	-0.018931	0.001671	-0.007065	
37336	    0	3.203072	12.416808	-7.567977	-4.761449	1.018635	-1.518605	0.032567	0.122071	-0.078768	0.999675	-0.023805	0.005093	-0.007592	
37337	    0	5.893950	9.283650	-7.453715	-4.147519	1.178084	-1.691588	0.059265	0.090759	-0.076782	0.999731	-0.020736	0.005890	-0.008457	
37338	    0	12.990545	2.920190	-8.461732	-2.769036	1.045089	-1.799864	0.129708	0.026853	-0.085678	0.999849	-0.013844	0.005225	-0.008999	
37339	    0	24.973700	-4.931736	-14.739738	-1.149583	0.582135	-1.816596	0.248840	-0.052429	-0.147827	0.999937	-0.005748	0.002911	-0.009083	
37340	    0	22.433056	-11.989015	-13.840627	-0.157550	0.567065	-1.965176	0.222744	-0.122193	-0.138944	0.999947	-0.000788	0.002835	-0.009826	
37341	    0	13.373376	-8.372554	-10.865383	0.583093	0.070955	-2.518533	0.132629	-0.085083	-0.108948	0.999916	0.002915	0.000355	-0.012592	
37342	    0	12.812782	-2.243825	-11.480142	1.946744	-0.607714	-2.943387	0.128139	-0.023208	-0.114635	0.999839	0.009733	-0.003038	-0.014716	
37343	    0	13.714343	-0.462529	-11.385114	2.024206	-0.907765	-3.200733	0.137573	-0.005676	-0.113281	0.999810	0.010120	-0.004539	-0.016003	
37344	    0	15.352774	0.398354	-10.694935	1.533228	-1.005811	-3.532261	0.154111	0.002081	-0.106154	0.999802	0.007666	-0.005029	-0.017660	
37345	    0	17.012674	2.507994	-9.381257	0.133523	-0.984827	-3.784421	0.171021	0.021912	-0.092957	0.999808	0.000668	-0.004924	-0.018921	
37346	    0	18.078608	3.192393	-5.711997	-1.020313	-0.696041	-3.936284	0.181561	0.028066	-0.056639	0.999786	-0.005101	-0.003480	-0.019680	
37347	    0	18.980719	2.224890	-3.150510	-1.724379	-0.317217	-3.986674	0.190247	0.018188	-0.031372	0.999763	-0.008621	-0.001586	-0.019932	
37348	    0	19.117203	-0.921013	1.048814	-2.043323	0.090607	-3.990889	0.190944	-0.012915	0.010521	0.999748	-0.010216	0.000453	-0.019953	
37349	    0	19.115900	-3.623325	3.203942	-2.155302	0.303676	-4.034777	0.190430	-0.039734	0.032166	0.999737	-0.010776	0.001518	-0.020172	
37350	    0	18.691083	-5.067658	4.574051	-2.141374	0.371202	-3.991280	0.185942	-0.053903	0.045960	0.999742	-0.010706	0.001856	-0.019955	
37351	    0	17.645405	-6.658558	4.340381	-1.888427	0.329807	-3.949292	0.175171	-0.069641	0.043762	0.999759	-0.009441	0.001649	-0.019745	
37352	    0	15.869475	-9.807638	2.884399	-1.659136	0.147449	-3.902156	0.156766	-0.100904	0.029557	0.999775	-0.008295	0.000737	-0.019509	
37353	    0	12.845437	-13.244509	2.975722	-1.535897	0.132951	-3.641747	0.126038	-0.134521	0.030701	0.999804	-0.007679	0.000665	-0.018208	
37354	    0	9.436287	-15.076613	3.091895	-1.320142	0.216495	-3.202027	0.091969	-0.152043	0.031819	0.999849	-0.006600	0.001082	-0.016009	
37355	    0	6.429465	-17.068243	1.608188	-1.383260	0.171095	-2.613163	0.062073	-0.171387	0.017212	0.999890	-0.006916	0.000855	-0.013065	
37356	    0	3.478719	-19.329948	-1.004392	-1.604502	0.013924	-1.868677	0.032978	-0.193686	-0.008493	0.999924	-0.008022	0.000070	-0.009343	
37357	    0	1.086701	-22.682427	-3.017076	-1.623370	-0.154116	-1.043717	0.009705	-0.227112	-0.028320	0.999952	-0.008117	-0.000771	-0.005219	
37358	    0	-0.528327	-25.250993	-0.920331	-0.907520	-0.006104	-0.309945	-0.005674	-0.252540	-0.008058	0.999988	-0.004538	-0.000031	-0.001550	
37359	    0	-1.595353	-24.470261	1.444884	0.393105	0.117493	0.261688	-0.015625	-0.244751	0.013977	0.999996	0.001966	0.000587	0.001308	
37360	    0	-1.423971	-21.199685	1.935672	1.439492	0.248721	0.718888	-0.013454	-0.212178	0.017847	0.999967	0.007197	0.001244	0.003594	
37361	    0	-0.172912	-16.495592	2.122344	1.978345	0.348099	1.091027	-0.000793	-0.165161	0.019592	0.999934	0.009892	0.001740	0.005455	
37362	    0	1.016125	-12.349680	2.998123	2.150408	0.661106	1.404231	0.011126	-0.123734	0.028616	0.999911	0.010752	0.003305	0.007021	
37363	    0	1.836136	-9.362264	4.031027	2.050087	1.085890	1.645716	0.019348	-0.093872	0.039246	0.999898	0.010250	0.005429	0.008228	
37364	    0	2.791465	-7.274206	3.970658	1.816432	1.256987	1.874226	0.028843	-0.072830	0.038866	0.999894	0.009082	0.006285	0.009371	
37365	    0	4.292347	-5.229843	3.516481	1.315542	1.270336	2.136301	0.043701	-0.052063	0.034546	0.999901	0.006577	0.006351	0.010681	
37366	    0	6.070793	-2.351071	4.258177	0.288018	1.284828	2.307006	0.061246	-0.022867	0.042156	0.999911	0.001440	0.006424	0.011535	
37367	    0	7.367615	0.937093	4.422783	-0.743126	1.326221	2.282023	0.073853	0.010376	0.043701	0.999906	-0.003716	0.006631	0.011410	
37368	    0	8.574559	2.905583	2.480794	-1.511631	1.199767	2.305881	0.085547	0.030227	0.024069	0.999887	-0.007558	0.005999	0.011529	
37369	    0	9.624223	3.004099	-1.347590	-1.993645	0.915757	2.301122	0.095825	0.031006	-0.014221	0.999873	-0.009968	0.004579	0.011505	
37370	    0	12.626171	1.855196	-5.290272	-1.587353	0.701167	2.366914	0.125847	0.019620	-0.053497	0.999892	-0.007936	0.003506	0.011834	
37371	    0	27.278915	0.611837	-10.949334	-0.365461	0.483912	2.868755	0.272400	0.009827	-0.110168	0.999892	-0.001827	0.002419	0.014343	
37372	    0	35.221937	-6.351718	-18.286909	1.019540	0.452451	3.647453	0.352873	-0.056149	-0.183966	0.999818	0.005097	0.002262	0.018236	
37373	    0	26.503846	-17.605361	-13.945361	2.295870	1.047791	3.608232	0.267395	-0.169617	-0.142822	0.999757	0.011478	0.005239	0.018040	
37374	    0	23.787633	-11.736284	-8.449793	2.396233	0.813750	3.968224	0.239779	-0.111587	-0.086831	0.999722	0.011980	0.004068	0.019839	
37375	    0	27.858178	-5.418613	-8.483233	2.947565	0.751007	4.199689	0.279297	-0.047058	-0.086609	0.999663	0.014736	0.003755	0.020996	
37376	    0	30.129517	-1.537793	-11.574835	2.507840	0.229668	4.184567	0.301375	-0.007617	-0.116222	0.999701	0.012538	0.001148	0.020921	
37377	    0	30.661770	3.769867	-13.002464	1.879482	-0.228140	4.282770	0.305847	0.045471	-0.129272	0.999725	0.009397	-0.001141	0.021412	
37378	    0	27.682883	9.435288	-12.774781	1.885431	-0.126280	4.779006	0.274530	0.102129	-0.126636	0.999669	0.009426	-0.000631	0.023892	
37379	    0	26.157037	11.750034	-11.605356	1.940603	0.240358	5.296266	0.258179	0.125488	-0.115173	0.999601	0.009702	0.001202	0.026478	
37380	    0	24.500498	10.047496	-9.989479	1.694716	0.461068	5.392607	0.241933	0.107871	-0.099562	0.999598	0.008472	0.002305	0.026959	
37381	    0	22.375520	6.078466	-8.793594	1.436784	0.543468	5.087879	0.221863	0.067078	-0.088074	0.999646	0.007183	0.002717	0.025436	
37382	    0	19.709342	3.722875	-6.950911	1.098927	0.354228	4.602101	0.196038	0.042130	-0.069634	0.999718	0.005494	0.001771	0.023008	
37383	    0	17.431231	4.737832	-4.897254	0.803623	-0.146495	4.044629	0.173340	0.051086	-0.048645	0.999786	0.004018	-0.000732	0.020222	
37384	    0	15.753132	6.592702	-2.692091	0.898602	-0.689736	3.486447	0.156440	0.068779	-0.026075	0.999831	0.004493	-0.003448	0.017431	
37385	    0	14.406691	8.320535	-1.220924	1.250709	-1.138360	2.948140	0.142883	0.085388	-0.010864	0.999855	0.006253	-0.005692	0.014740	
37386	    0	13.422067	9.827193	-0.955435	1.786316	-1.421232	2.453156	0.133060	0.099983	-0.007718	0.999859	0.008931	-0.007106	0.012265	
37387	    0	13.293332	11.529186	-0.335158	2.417112	-1.561624	1.912784	0.131836	0.116577	-0.000916	0.999850	0.012085	-0.007808	0.009563	
37388	    0	10.947154	11.501298	0.176278	2.658781	-1.596527	1.367634	0.108655	0.115713	0.004168	0.999856	0.013293	-0.007982	0.006838	
37389	    0	8.013674	10.535139	-0.358888	2.336388	-1.313062	0.834683	0.079712	0.105713	-0.001831	0.999901	0.011682	-0.006565	0.004173	
37390	    0	4.692331	11.513253	-2.259034	1.040275	-0.773245	0.180627	0.046905	0.115290	-0.021810	0.999978	0.005201	-0.003866	0.000903	
37391	    0	0.811415	14.320392	-1.625503	-0.070763	-0.225830	-0.234985	0.008301	0.143188	-0.016296	0.999998	-0.000354	-0.001129	-0.001175	
37392	    0	-2.057691	15.892039	-0.733742	-0.504686	0.219918	-0.525857	-0.020167	0.158955	-0.007716	0.999992	-0.002523	0.001100	-0.002629	
37393	    0	-2.928981	14.550991	0.045018	-0.863653	0.390818	-0.828558	-0.028687	0.145630	-0.000122	0.999980	-0.004318	0.001954	-0.004143	
37394	    0	-3.090898	11.008513	3.521699	-0.924692	0.545507	-1.090251	-0.030212	0.110413	0.034790	0.999970	-0.004623	0.002728	-0.005451	
37395	    0	-1.767122	4.429897	8.397112	-0.231745	0.428013	-1.442732	-0.017171	0.044521	0.083957	0.999969	-0.001159	0.002140	-0.007214	
37396	    0	-0.972054	-2.185603	10.237781	0.196650	0.012207	-1.786828	-0.009910	-0.021869	0.102357	0.999959	0.000983	0.000061	-0.008934	
37397	    0	-2.140434	-3.967597	8.594370	-0.374610	-0.732244	-1.905857	-0.022095	-0.039307	0.085938	0.999946	-0.001873	-0.003661	-0.009529	
37398	    0	-1.459439	-6.893978	3.991867	-1.022944	-1.613478	-2.031392	-0.015615	-0.068580	0.040147	0.999903	-0.005115	-0.008067	-0.010157	
37399	    0	-1.021789	-8.237454	-2.527976	-1.503634	-2.275955	-1.960847	-0.010742	-0.082458	-0.024780	0.999859	-0.007518	-0.011379	-0.009804	
37400	    0	-1.331327	-8.746844	-8.341698	-1.843733	-2.410816	-1.592333	-0.013013	-0.088129	-0.082765	0.999853	-0.009218	-0.012053	-0.007961	
37401	    0	0.359215	-6.863836	-9.632410	-1.017019	-1.400595	-1.393919	0.003784	-0.069153	-0.095947	0.999938	-0.005085	-0.007003	-0.006969	
37402	    0	2.278166	-2.796690	-6.888531	-0.293543	0.057412	-1.352893	0.022572	-0.028221	-0.068851	0.999975	-0.001468	0.000287	-0.006764	
37403	    0	3.360132	-2.118767	-3.109646	-0.555998	0.909434	-1.257338	0.033325	-0.021484	-0.031189	0.999966	-0.002780	0.004547	-0.006287	
37404	    0	4.720836	-2.357753	-1.697881	-0.592811	1.096167	-1.212135	0.046970	-0.023913	-0.017166	0.999962	-0.002964	0.005481	-0.006061	
37405	    0	5.594863	-0.457929	-1.957412	0.387007	1.343556	-1.224535	0.055786	-0.004883	-0.019958	0.999956	0.001935	0.006718	-0.006123	
37406	    0	4.221584	3.850578	0.417478	0.856038	1.751369	-1.376566	0.042515	0.038197	0.003967	0.999928	0.004280	0.008757	-0.006883	
37407	    0	4.485747	6.727839	5.818440	-0.122645	1.773876	-1.573218	0.045898	0.066956	0.057739	0.999929	-0.000613	0.008869	-0.007866	
37408	    0	23.686923	2.375894	5.648194	-2.263133	0.390254	-1.207386	0.237119	0.022962	0.055757	0.999915	-0.011315	0.001951	-0.006037	
37409	    0	51.632904	-21.688358	-19.641970	-4.925931	-1.814485	0.965233	0.519104	-0.219055	-0.186340	0.999643	-0.024627	-0.009071	0.004826	
37410	    0	20.320648	-46.211424	-14.841556	-3.704997	-1.653257	2.534727	0.210234	-0.462102	-0.138136	0.999714	-0.018523	-0.008265	0.012672	
37411	    0	17.909418	-10.952947	0.934159	1.718374	0.256354	1.747939	0.180054	-0.108032	0.008179	0.999924	0.008592	0.001282	0.008739	
37412	    0	20.247254	16.490058	19.732158	0.947198	-0.314906	1.059923	0.201286	0.165031	0.198421	0.999973	0.004736	-0.001575	0.005300	
37413	    0	13.653912	30.742482	1.402685	0.355531	-0.825313	-0.037384	0.136536	0.307373	0.015137	0.999990	0.001778	-0.004127	-0.000187	
37414	    0	7.276400	29.229385	-5.605020	-1.173414	-0.712212	-0.880633	0.074252	0.291635	-0.057500	0.999967	-0.005867	-0.003561	-0.004403	
37415	    0	2.567594	17.596138	-11.684088	-3.707172	0.334189	-1.300896	0.026611	0.173584	-0.120117	0.999805	-0.018535	0.001671	-0.006504	
37416	    0	2.816764	7.285258	-5.450516	-4.765087	1.217977	-1.577934	0.028395	0.071301	-0.056389	0.999666	-0.023823	0.006089	-0.007889	
37417	    0	4.865265	5.512944	-5.756847	-3.779140	1.264482	-1.789235	0.048767	0.053589	-0.058899	0.999761	-0.018894	0.006322	-0.008945	
37418	    0	11.023442	1.684407	-8.044879	-1.791247	0.790239	-1.908934	0.110065	0.015069	-0.081024	0.999905	-0.008956	0.003951	-0.009544	
37419	    0	23.433665	-5.559541	-13.534729	-0.548566	0.159649	-2.246907	0.233582	-0.058594	-0.135376	0.999932	-0.002743	0.000798	-0.011234	
37420	    0	24.256020	-9.099696	-15.631695	0.066187	0.194554	-2.348191	0.241318	-0.093783	-0.156583	0.999930	0.000331	0.000973	-0.011741	
37421	    0	14.273065	-5.570164	-10.791752	0.700399	-0.031854	-2.538373	0.142029	-0.057129	-0.108093	0.999913	0.003502	-0.000159	-0.012691	
37422	    0	12.658507	-1.691701	-11.182479	1.474648	-0.657497	-3.136034	0.126675	-0.018080	-0.111539	0.999844	0.007373	-0.003287	-0.015679	
37423	    0	13.831142	0.507962	-10.284454	1.434415	-0.927601	-3.455567	0.138855	0.003418	-0.102173	0.999814	0.007172	-0.004638	-0.017277	
37424	    0	14.876816	3.066251	-9.373903	1.368044	-1.010392	-3.684297	0.149777	0.028546	-0.092784	0.999794	0.006840	-0.005052	-0.018420	
37425	    0	17.259257	1.798864	-7.764544	0.325796	-0.826890	-3.865305	0.173218	0.014771	-0.076904	0.999803	0.001629	-0.004134	-0.019325	
37426	    0	18.231556	0.665179	-3.848564	-0.706149	-0.605816	-3.952298	0.182513	0.002912	-0.037948	0.999793	-0.003531	-0.003029	-0.019760	
37427	    0	17.630918	0.835919	-1.277590	-1.351263	-0.414115	-3.914162	0.176453	0.004822	-0.012451	0.999784	-0.006756	-0.002070	-0.019569	
37428	    0	17.349034	-0.366358	1.339090	-1.630712	-0.127420	-3.859230	0.173369	-0.006900	0.013549	0.999780	-0.008153	-0.000637	-0.019295	
37429	    0	17.201566	-2.568826	3.277608	-1.723607	0.136004	-3.822607	0.171509	-0.028687	0.032898	0.999780	-0.008617	0.000680	-0.019112	
37430	    0	16.448049	-4.579715	4.331076	-1.895284	0.286887	-3.789614	0.163641	-0.048491	0.043527	0.999774	-0.009476	0.001434	-0.018947	
37431	    0	15.555909	-5.593509	3.741388	-1.828897	0.285551	-3.719597	0.154541	-0.058472	0.037720	0.999784	-0.009144	0.001428	-0.018597	
37432	    0	14.925808	-8.045850	2.709037	-1.700324	0.249689	-3.613713	0.147809	-0.082905	0.027603	0.999800	-0.008501	0.001248	-0.018067	
37433	    0	12.801215	-10.918614	2.941192	-1.397594	0.244155	-3.418927	0.126160	-0.111145	0.030029	0.999828	-0.006988	0.001221	-0.017094	
37434	    0	9.674717	-12.581613	2.114265	-1.170787	0.169381	-3.202022	0.094736	-0.127217	0.021804	0.999854	-0.005854	0.000847	-0.016009	
37435	    0	7.060498	-15.257135	0.767443	-1.327570	0.070384	-2.855800	0.068420	-0.153503	0.008667	0.999875	-0.006638	0.000352	-0.014278	
37436	    0	4.255978	-19.377468	-2.669759	-1.759782	-0.112728	-2.321516	0.040319	-0.194476	-0.024965	0.999893	-0.008799	-0.000564	-0.011607	
37437	    0	0.970927	-23.853946	-4.554166	-1.839303	-0.237280	-1.631969	0.007812	-0.239014	-0.043335	0.999924	-0.009196	-0.001186	-0.008160	
37438	    0	-1.339646	-25.995322	-1.802344	-0.739674	-0.136567	-0.929075	-0.014592	-0.259952	-0.017072	0.999982	-0.003698	-0.000683	-0.004645	
37439	    0	-2.822496	-25.190840	0.993113	0.621034	0.044441	-0.319672	-0.028625	-0.251892	0.009155	0.999993	0.003105	0.000222	-0.001598	
37440	    0	-3.319521	-21.972437	1.998974	1.536957	0.108529	0.226405	-0.032936	-0.219907	0.018318	0.999969	0.007685	0.000543	0.001132	
37441	    0	-2.377560	-17.455797	2.323566	1.953161	0.141337	0.788131	-0.023071	-0.174866	0.021545	0.999944	0.009766	0.000707	0.003941	
37442	    0	-0.937658	-14.249586	3.350876	2.109011	0.418674	1.307522	-0.008375	-0.142896	0.032022	0.999920	0.010545	0.002093	0.006537	
37443	    0	0.170618	-11.760867	4.603356	2.282225	0.804930	1.663268	0.002869	-0.118103	0.044678	0.999891	0.011411	0.004025	0.008316	
37444	    0	1.802928	-9.394480	4.345363	2.263353	0.967256	1.947864	0.019153	-0.094245	0.042297	0.999876	0.011316	0.004836	0.009739	
37445	    0	4.300239	-7.053541	3.110648	1.738805	1.013413	2.239312	0.043945	-0.070312	0.030273	0.999887	0.008694	0.005067	0.011196	
37446	    0	6.698565	-3.240083	3.171216	0.571649	1.070245	2.372812	0.067533	-0.031692	0.031260	0.999910	0.002858	0.005351	0.011864	
37447	    0	8.584597	1.422212	1.782856	-0.603501	0.905824	2.293458	0.085754	0.015259	0.017395	0.999919	-0.003017	0.004529	0.011467	
37448	    0	11.116571	4.406248	-2.010886	-1.275478	0.657671	2.092227	0.110630	0.045091	-0.020759	0.999919	-0.006377	0.003288	0.010461	
37449	    0	18.856463	5.340199	-6.904010	-0.721757	0.494587	2.153064	0.187805	0.055176	-0.069702	0.999932	-0.003609	0.002473	0.010765	
37450	    0	39.283852	2.515485	-11.943082	-0.009156	0.260173	3.145539	0.392222	0.031322	-0.119943	0.999875	-0.000046	0.001301	0.015727	
37451	    0	32.747016	-6.146640	-14.601140	0.305382	0.830882	3.329632	0.327820	-0.055786	-0.147461	0.999851	0.001527	0.004154	0.016647	
37452	    0	21.516363	-9.939704	-6.196198	0.881634	1.221355	3.665210	0.216548	-0.095159	-0.063707	0.999804	0.004408	0.006106	0.018325	
37453	    0	24.911649	-6.031460	-3.536377	1.821505	0.936981	4.385041	0.250183	-0.054504	-0.037048	0.999706	0.009107	0.004684	0.021923	
37454	    0	29.926952	-4.328101	-7.372433	2.086473	0.650091	4.470142	0.299883	-0.035804	-0.075098	0.999690	0.010431	0.003250	0.022348	
37455	    0	29.974728	-0.329407	-10.847554	1.375127	0.281549	4.347607	0.299561	0.003967	-0.108887	0.999739	0.006875	0.001408	0.021736	
37456	    0	28.340761	5.548254	-10.656437	1.039599	0.080307	4.546959	0.281998	0.062458	-0.106365	0.999727	0.005198	0.000401	0.022733	
37457	    0	26.983608	9.551193	-9.932090	0.988114	0.220704	5.013059	0.267212	0.102722	-0.099121	0.999673	0.004940	0.001103	0.025063	
37458	    0	26.027679	10.626254	-9.080099	0.721829	0.340313	5.354581	0.257148	0.113503	-0.090839	0.999633	0.003609	0.001701	0.026770	
37459	    0	23.840437	8.810863	-7.555799	0.480140	0.448665	5.439676	0.235718	0.094727	-0.075867	0.999624	0.002400	0.002243	0.027195	
37460	    0	21.496477	5.701520	-6.320628	0.440647	0.485093	5.150801	0.213245	0.062662	-0.063591	0.999662	0.002203	0.002425	0.025751	
37461	    0	18.821562	3.344538	-5.784185	0.556997	0.389326	4.645202	0.187256	0.037964	-0.058105	0.999724	0.002785	0.001946	0.023224	
37462	    0	16.921136	3.301975	-3.941499	0.777108	0.109108	4.008190	0.168481	0.036554	-0.039370	0.999791	0.003885	0.000546	0.020040	
37463	    0	14.836308	4.728127	-1.602766	0.978138	-0.385876	3.309798	0.147583	0.049805	-0.015503	0.999848	0.004890	-0.001929	0.016548	
37464	    0	12.929666	7.342276	-0.811042	1.401196	-0.842510	2.679363	0.128328	0.075198	-0.007046	0.999876	0.007006	-0.004212	0.013396	
37465	    0	11.999710	10.761810	-1.712455	1.880145	-1.110119	2.079089	0.118958	0.109009	-0.015442	0.999886	0.009400	-0.005550	0.010395	
37466	    0	11.082541	13.135665	-1.192331	2.266016	-1.438958	1.383834	0.109987	0.132237	-0.009635	0.999885	0.011330	-0.007195	0.006919	
37467	    0	8.955410	13.720442	-2.606551	2.091471	-1.568651	0.658437	0.089294	0.137756	-0.023926	0.999908	0.010457	-0.007843	0.003292	
37468	    0	5.741430	12.963573	-4.411100	1.568435	-0.954069	0.047875	0.057590	0.129989	-0.042818	0.999957	0.007842	-0.004770	0.000239	
37469	    0	2.217607	13.800334	-4.183797	0.745394	-0.022698	-0.317384	0.022400	0.138123	-0.041321	0.999991	0.003727	-0.000113	-0.001587	
37470	    0	-1.732845	16.355645	-2.787117	-0.215912	0.424576	-0.392342	-0.017067	0.163560	-0.028011	0.999995	-0.001080	0.002123	-0.001962	
37471	    0	-3.695126	18.523752	-1.724034	-0.910191	0.425150	-0.463107	-0.036560	0.185242	-0.018005	0.999984	-0.004551	0.002126	-0.002316	
37472	    0	-3.289551	14.404228	0.362152	-0.883299	0.516132	-0.736623	-0.032356	0.144176	0.003069	0.999980	-0.004416	0.002581	-0.003683	
37473	    0	-1.534092	7.171097	4.219879	-1.011670	0.469404	-1.312272	-0.014771	0.072021	0.041870	0.999963	-0.005058	0.002347	-0.006561	
37474	    0	-0.544927	-0.388807	8.538289	-0.792326	-0.156405	-1.840050	-0.005549	-0.003499	0.085393	0.999949	-0.003962	-0.000782	-0.009200	
37475	    0	-0.450773	-6.415119	10.968877	-0.239568	-0.917645	-2.077529	-0.005676	-0.063965	0.109741	0.999934	-0.001198	-0.004588	-0.010387	
37476	    0	-0.950248	-12.968504	7.973434	-0.631741	-2.340607	-2.074902	-0.011781	-0.129318	0.080014	0.999872	-0.003159	-0.011703	-0.010374	
37477	    0	-1.143959	-16.597693	-4.747012	-2.224932	-3.640885	-1.865556	-0.012146	-0.166382	-0.045837	0.999728	-0.011124	-0.018203	-0.009327	
37478	    0	-0.235830	-15.965847	-15.244559	-1.438787	-2.871661	-1.416470	-0.001316	-0.160738	-0.151316	0.999846	-0.007194	-0.014358	-0.007082	
37479	    0	3.102005	-7.581747	-9.626508	1.300069	0.700580	-1.242085	0.030212	-0.075378	-0.096863	0.999953	0.006500	0.003503	-0.006210	
37480	    0	3.967495	-3.692544	2.975411	1.607949	2.147556	-0.916512	0.039819	-0.037343	0.029028	0.999899	0.008039	0.010737	-0.004582	
37481	    0	3.716136	-4.806936	2.268317	0.798808	1.473447	-0.646218	0.037170	-0.048279	0.022217	0.999959	0.003994	0.007367	-0.003231	
37482	    0	1.222020	-1.534249	-1.576456	0.838667	0.789457	-0.563244	0.012115	-0.015310	-0.015877	0.999979	0.004193	0.003947	-0.002816	
37483	    0	-1.198293	4.516444	-1.639876	0.971424	1.101697	-0.753030	-0.011902	0.045288	-0.016113	0.999966	0.004857	0.005508	-0.003765	
37484	    0	-0.215847	9.329970	7.190672	-0.284961	1.239601	-1.116384	-0.001192	0.093410	0.071783	0.999964	-0.001425	0.006198	-0.005582	
37485	    0	21.042527	6.781981	7.188781	-2.474092	-0.054170	-0.847650	0.210693	0.067810	0.071106	0.999914	-0.012370	-0.000271	-0.004238	
37486	    0	53.851805	-16.943411	-14.685260	-5.715337	-2.209447	1.053598	0.540957	-0.170579	-0.136021	0.999516	-0.028572	-0.011045	0.005267	
37487	    0	20.151243	-42.520124	-13.342099	-4.474198	-1.367344	2.360805	0.207397	-0.425598	-0.122498	0.999657	-0.022368	-0.006836	0.011803	
37488	    0	18.182487	-12.765762	1.816508	1.448287	0.561156	1.938298	0.183100	-0.126012	0.016736	0.999923	0.007241	0.002806	0.009691	
37489	    0	18.747710	11.929612	19.680424	1.237690	-0.228121	0.814064	0.186768	0.118835	0.197754	0.999971	0.006188	-0.001141	0.004070	
37490	    0	13.832933	30.692556	-1.935180	1.235021	-0.926409	-0.426106	0.139065	0.306739	-0.016814	0.999968	0.006175	-0.004632	-0.002131	
37491	    0	7.720534	30.750456	-8.457214	-0.295833	-0.786598	-1.256573	0.079468	0.306885	-0.084717	0.999971	-0.001479	-0.003933	-0.006283	
37492	    0	2.234130	18.430315	-12.376903	-2.266576	0.298319	-1.613670	0.023633	0.182697	-0.125880	0.999902	-0.011333	0.001492	-0.008068	
37493	    0	3.029675	8.961971	-7.592493	-3.370698	0.633281	-2.014293	0.030945	0.088013	-0.077515	0.999802	-0.016852	0.003166	-0.010071	
37494	    0	6.369725	7.534097	-8.783342	-2.441718	0.571661	-2.365039	0.064321	0.073502	-0.088922	0.999851	-0.012208	0.002858	-0.011825	
37495	    0	12.458044	3.471809	-11.655283	-1.032103	0.057985	-2.732946	0.125000	0.032410	-0.116760	0.999893	-0.005160	0.000290	-0.013664	
37496	    0	21.755090	-1.052503	-15.286905	-0.354590	-0.183113	-3.033756	0.217495	-0.014095	-0.152647	0.999883	-0.001773	-0.000916	-0.015168	
37497	    0	22.338113	-6.075551	-12.430450	0.469224	-0.055506	-2.813816	0.222534	-0.063599	-0.124390	0.999898	0.002346	-0.000278	-0.014069	
37498	    0	16.221031	-6.200467	-10.676313	1.549606	-0.586729	-3.003649	0.161576	-0.063607	-0.106777	0.999852	0.007748	-0.002934	-0.015018	
37499	    0	13.963305	-0.708589	-10.609500	2.105870	-1.102339	-3.500627	0.140076	-0.008423	-0.105408	0.999776	0.010529	-0.005511	-0.017502	
37500	    0	13.915689	3.328817	-8.633106	1.745545	-1.308539	-3.628620	0.140299	0.031496	-0.085135	0.999776	0.008727	-0.006542	-0.018142	
37501	    0	15.651206	4.406558	-7.777697	1.236048	-1.241199	-3.705093	0.157776	0.041626	-0.076538	0.999789	0.006180	-0.006206	-0.018524	
37502	    0	18.608492	3.388772	-4.541107	-0.061611	-0.882202	-3.717649	0.186870	0.030405	-0.044598	0.999817	-0.000308	-0.004411	-0.018587	
37503	    0	18.768083	2.833663	-2.116788	-1.102328	-0.659222	-3.724911	0.188232	0.024719	-0.020691	0.999805	-0.005511	-0.003296	-0.018623	
37504	    0	18.152376	3.181454	-0.567852	-1.946401	-0.371006	-3.690226	0.182079	0.028403	-0.005629	0.999781	-0.009731	-0.001855	-0.018450	
37505	    0	18.137192	1.644891	1.885202	-2.513138	0.061040	-3.654017	0.181641	0.013367	0.018616	0.999754	-0.012565	0.000305	-0.018269	
37506	    0	17.895189	-1.798587	2.917248	-2.870432	0.313977	-3.591092	0.178641	-0.020777	0.029177	0.999734	-0.014351	0.001570	-0.017954	
37507	    0	16.702725	-5.357554	3.488496	-3.032769	0.459331	-3.517470	0.166138	-0.055969	0.035339	0.999727	-0.015162	0.002296	-0.017586	
37508	    0	14.936658	-8.203018	2.244660	-2.831690	0.415454	-3.368461	0.148008	-0.084205	0.023320	0.999755	-0.014157	0.002077	-0.016841	
37509	    0	12.581527	-11.507323	1.966931	-2.677156	0.367000	-3.148877	0.124023	-0.116760	0.020996	0.999784	-0.013385	0.001835	-0.015743	
37510	    0	9.885765	-14.216681	1.700741	-2.366008	0.259414	-2.794613	0.096884	-0.143316	0.018572	0.999831	-0.011829	0.001297	-0.013972	
37511	    0	7.797685	-18.188025	0.100737	-2.300174	0.141150	-2.314861	0.075867	-0.182739	0.003052	0.999866	-0.011500	0.000706	-0.011574	
37512	    0	5.015051	-22.346268	-1.903775	-2.334296	0.142484	-1.739373	0.048191	-0.224090	-0.016459	0.999893	-0.011671	0.000712	-0.008697	
37513	    0	1.600524	-25.849093	-3.824786	-1.826512	0.054360	-1.135276	0.014526	-0.258911	-0.035889	0.999942	-0.009132	0.000272	-0.005676	
37514	    0	-1.311437	-27.405188	-3.012152	-0.590898	0.022125	-0.571443	-0.013901	-0.274100	-0.029310	0.999991	-0.002954	0.000111	-0.002857	
37515	    0	-2.754300	-25.139633	0.669811	0.634195	0.141144	-0.087738	-0.027649	-0.251404	0.005920	0.999994	0.003171	0.000706	-0.000439	
37516	    0	-2.323271	-20.073608	2.792764	1.375210	0.217630	0.391582	-0.022810	-0.200967	0.026571	0.999973	0.006876	0.001088	0.001958	
37517	    0	-1.286220	-16.033498	3.117022	1.667811	0.238994	0.923171	-0.012085	-0.160645	0.029846	0.999953	0.008339	0.001195	0.004616	
37518	    0	-0.620954	-15.010966	3.157140	1.743927	0.467883	1.431115	-0.005062	-0.150416	0.030273	0.999933	0.008719	0.002339	0.007155	
37519	    0	0.167743	-13.678946	3.380877	1.938691	0.783755	1.818143	0.003052	-0.137085	0.032471	0.999904	0.009693	0.003919	0.009090	
37520	    0	2.386742	-10.129146	3.208040	1.924206	1.032105	2.079280	0.025083	-0.101336	0.030978	0.999886	0.009621	0.005160	0.010396	
37521	    0	4.419417	-6.640733	3.797397	1.058231	1.204911	2.252269	0.045166	-0.066101	0.037354	0.999904	0.005291	0.006024	0.011261	
37522	    0	6.748616	-2.817742	3.717226	-0.059702	1.257935	2.418784	0.068052	-0.027346	0.036754	0.999907	-0.000299	0.006289	0.012094	
37523	    0	8.623767	0.862521	2.098661	-0.910027	1.152840	2.426992	0.086243	0.009766	0.020447	0.999899	-0.004550	0.005764	0.012135	
37524	    0	10.079645	2.683797	-1.297287	-1.458600	0.842696	2.336583	0.100418	0.027915	-0.013597	0.999896	-0.007293	0.004213	0.011683	
37525	    0	14.444873	2.620528	-5.114708	-1.127465	0.635546	2.237001	0.143982	0.027527	-0.051758	0.999916	-0.005637	0.003178	0.011185	
37526	    0	32.898615	1.142688	-9.158815	-0.290310	0.495930	2.971763	0.328541	0.016177	-0.092424	0.999885	-0.001451	0.002480	0.014858	
37527	    0	38.393490	-4.157135	-16.048827	0.499751	0.446534	3.479949	0.384216	-0.034485	-0.161438	0.999843	0.002499	0.002233	0.017399	
37528	    0	22.756178	-12.563563	-9.866770	1.263126	1.084396	3.525385	0.229179	-0.120974	-0.100681	0.999809	0.006315	0.005422	0.017626	
37529	    0	23.530809	-8.320199	-5.869967	1.918393	0.711124	4.173655	0.236755	-0.077698	-0.060303	0.999729	0.009591	0.003555	0.020866	
37530	    0	29.438053	-5.309261	-8.563820	2.417628	0.488333	4.374582	0.295221	-0.045595	-0.086940	0.999684	0.012087	0.002441	0.021871	
37531	    0	30.496921	-3.193819	-11.828782	2.006709	0.181786	4.149233	0.305420	-0.024414	-0.118835	0.999734	0.010033	0.000909	0.020744	
37532	    0	28.847616	2.717718	-11.947658	1.732407	0.049023	4.263873	0.287766	0.034351	-0.119270	0.999735	0.008661	0.000245	0.021317	
37533	    0	27.107494	9.974758	-11.361457	1.400900	0.069625	4.745968	0.268555	0.106934	-0.112976	0.999694	0.007004	0.000348	0.023727	
37534	    0	26.584317	11.633590	-10.902679	0.979725	0.113309	5.119522	0.262679	0.123620	-0.108582	0.999660	0.004898	0.000566	0.025595	
37535	    0	24.307353	11.593066	-7.870440	1.198149	0.168630	5.213024	0.239868	0.122681	-0.078186	0.999641	0.005990	0.000843	0.026062	
37536	    0	22.296633	6.665440	-8.018996	1.535211	0.194763	5.019002	0.221112	0.072833	-0.079863	0.999655	0.007675	0.000974	0.025092	
37537	    0	20.192733	3.438639	-9.054403	0.873074	0.013734	4.616208	0.201050	0.039429	-0.090393	0.999723	0.004365	0.000069	0.023079	
37538	    0	18.131346	4.359136	-7.318659	0.703481	-0.228135	4.093465	0.180450	0.047547	-0.072818	0.999784	0.003517	-0.001141	0.020466	
37539	    0	16.188544	6.275673	-4.203319	0.835465	-0.623928	3.479195	0.160889	0.065735	-0.041260	0.999835	0.004177	-0.003119	0.017395	
37540	    0	14.107070	9.097051	-2.215952	1.195198	-1.025245	2.860959	0.139858	0.093104	-0.020888	0.999866	0.005976	-0.005126	0.014304	
37541	    0	13.500859	11.691415	-1.513765	1.774671	-1.351794	2.225586	0.133789	0.118530	-0.013184	0.999875	0.008873	-0.006759	0.011127	
37542	    0	12.180406	13.027800	-2.083402	1.999737	-1.483971	1.602994	0.120897	0.131443	-0.018624	0.999890	0.009998	-0.007420	0.008015	
37543	    0	9.192623	12.918383	-1.174206	2.076214	-1.379438	1.158179	0.091248	0.129822	-0.009766	0.999905	0.010381	-0.006897	0.005791	
37544	    0	6.197465	12.762218	-1.717118	2.019164	-0.925657	0.607695	0.061661	0.127973	-0.015594	0.999933	0.010096	-0.004628	0.003038	
37545	    0	1.898763	13.784660	-2.392606	1.197060	-0.307276	0.148774	0.018921	0.138000	-0.023071	0.999980	0.005985	-0.001536	0.000744	
37546	    0	-1.750252	16.287614	-2.611001	-0.166702	-0.058365	-0.174141	-0.017353	0.162869	-0.026251	0.999999	-0.000834	-0.000292	-0.000871	
37547	    0	-3.745494	17.091581	-1.424609	-0.637819	0.111580	-0.485231	-0.037048	0.170959	-0.014771	0.999991	-0.003189	0.000558	-0.002426	
37548	    0	-3.456461	13.098159	1.234073	-0.649265	0.279428	-0.840764	-0.033997	0.131165	0.011963	0.999985	-0.003246	0.001397	-0.004204	
37549	    0	-1.679628	5.740696	6.635765	-0.256540	0.258639	-1.333438	-0.016327	0.057602	0.066305	0.999975	-0.001283	0.001293	-0.006667	
37550	    0	-0.592223	-1.223489	9.696600	0.196269	-0.050927	-1.776337	-0.006056	-0.012277	0.096952	0.999960	0.000981	-0.000255	-0.008882	
37551	    0	-1.494186	-4.176537	8.776121	0.030518	-0.614750	-1.984441	-0.015625	-0.041626	0.087708	0.999946	0.000153	-0.003074	-0.009922	
37552	    0	-0.984314	-6.710582	4.814848	-0.515571	-1.380578	-2.138770	-0.010892	-0.066869	0.048248	0.999915	-0.002578	-0.006903	-0.010694	
37553	    0	-0.641868	-7.505453	-0.518786	-1.169635	-2.107136	-2.064601	-0.007141	-0.075012	-0.004822	0.999873	-0.005848	-0.010535	-0.010323	
37554	    0	-0.310885	-7.041001	-5.065327	-1.562000	-2.374949	-1.729282	-0.003122	-0.070776	-0.050138	0.999861	-0.007810	-0.011874	-0.008646	
37555	    0	1.346697	-6.192261	-6.854194	-1.209864	-1.642653	-1.533550	0.013550	-0.062439	-0.068054	0.999918	-0.006049	-0.008213	-0.007668	
37556	    0	3.041277	-2.981210	-5.364101	-0.632293	-0.395970	-1.453988	0.030300	-0.030202	-0.053486	0.999967	-0.003161	-0.001980	-0.007270	
37557	    0	4.251538	-3.324341	-3.743951	-0.904856	0.310711	-1.317611	0.042236	-0.033691	-0.037354	0.999967	-0.004524	0.001554	-0.006588	
37558	    0	4.924903	-3.956239	-2.581322	-1.263826	0.431830	-1.210992	0.048952	-0.040022	-0.025667	0.999959	-0.006319	0.002159	-0.006055	
37559	    0	3.962835	-3.043708	-0.728860	-0.719458	0.428967	-1.202403	0.039429	-0.030701	-0.007263	0.999972	-0.003597	0.002145	-0.006012	
37560	    0	3.162182	-0.483660	-0.448579	0.781831	0.615699	-1.274886	0.031576	-0.005020	-0.004602	0.999967	0.003909	0.003078	-0.006374	
37561	    0	2.825009	5.007683	2.863785	1.674127	1.291693	-1.496929	0.028809	0.049622	0.028870	0.999916	0.008370	0.006458	-0.007484	
37562	    0	6.235694	7.887779	8.997320	0.494585	1.099226	-1.764903	0.063542	0.078098	0.089820	0.999943	0.002473	0.005496	-0.008824	
37563	    0	32.557847	3.074725	3.742856	-1.699105	-1.045823	-1.241331	0.325562	0.029053	0.038879	0.999930	-0.008495	-0.005229	-0.006207	
37564	    0	40.788104	-21.327666	-16.671148	-5.393635	-2.298123	1.063504	0.410858	-0.215405	-0.156211	0.999556	-0.026964	-0.011489	0.005317	
37565	    0	19.991741	-50.180252	-18.328615	-3.915058	-2.070647	2.424879	0.207825	-0.502747	-0.171326	0.999681	-0.019573	-0.010352	0.012123	
37566	    0	20.150720	-11.874772	7.664287	2.592010	0.706704	1.818927	0.202847	-0.117881	0.074396	0.999868	0.012959	0.003533	0.009094	
37567	    0	22.491254	20.401659	19.016016	2.352397	-0.450147	0.894189	0.223572	0.202759	0.193054	0.999918	0.011762	-0.002251	0.004471	
37568	    0	15.842872	32.692398	2.088103	0.654033	-0.902181	-0.217630	0.158685	0.326679	0.022665	0.999984	0.003270	-0.004511	-0.001088	
37569	    0	6.501274	32.930453	-5.210929	-1.506831	-0.800146	-1.051348	0.066956	0.328552	-0.054321	0.999949	-0.007534	-0.004001	-0.005257	
37570	    0	1.385506	22.117744	-12.738662	-3.502485	0.309009	-1.465695	0.015264	0.218793	-0.131255	0.999818	-0.017511	0.001545	-0.007328	
37571	    0	3.106812	11.226565	-8.299749	-4.822116	0.941571	-1.490947	0.031494	0.109985	-0.085815	0.999670	-0.024108	0.004707	-0.007454	
37572	    0	6.746394	7.092369	-9.551061	-4.378738	0.956436	-1.694078	0.067587	0.068233	-0.097347	0.999713	-0.021892	0.004782	-0.008470	
37573	    0	13.315175	3.433577	-11.549850	-2.614523	0.799597	-1.897518	0.132996	0.031555	-0.116455	0.999861	-0.013072	0.003998	-0.009487	
37574	    0	22.666720	-3.397385	-14.309630	-0.959800	0.510037	-2.079058	0.225927	-0.037013	-0.143500	0.999930	-0.004799	0.002550	-0.010395	
37575	    0	22.297718	-9.452274	-14.783589	-0.244145	0.372512	-1.998936	0.221741	-0.096924	-0.148132	0.999948	-0.001221	0.001863	-0.009995	
37576	    0	14.266028	-8.120785	-11.613538	0.310524	-0.003624	-2.472560	0.141645	-0.082783	-0.116261	0.999922	0.001553	-0.000018	-0.012362	
37577	    0	12.679097	-4.336023	-10.825043	1.384039	-0.538471	-3.073269	0.126404	-0.044556	-0.108215	0.999854	0.006920	-0.002692	-0.015366	
37578	    0	13.354045	-2.441129	-10.847980	1.544470	-0.902801	-3.288270	0.133613	-0.025772	-0.108072	0.999825	0.007722	-0.004514	-0.016440	
37579	    0	13.827020	-0.010371	-10.130876	1.171378	-0.966706	-3.609697	0.138733	-0.002014	-0.100647	0.999807	0.005857	-0.004833	-0.018047	
37580	    0	16.314567	1.269016	-7.554966	-0.069813	-0.784541	-3.780218	0.163641	0.009574	-0.074912	0.999813	-0.000349	-0.003922	-0.018900	
37581	    0	17.664668	2.528677	-3.998731	-1.146013	-0.503383	-3.831741	0.177185	0.021667	-0.039673	0.999797	-0.005730	-0.002517	-0.019157	
37582	    0	18.256232	2.234624	-1.150389	-1.831383	-0.213067	-3.821660	0.182956	0.018747	-0.011492	0.999775	-0.009156	-0.001065	-0.019107	
37583	    0	18.132134	-0.395441	1.820530	-2.207171	0.093086	-3.805086	0.181213	-0.007202	0.018188	0.999758	-0.011035	0.000465	-0.019024	
37584	    0	18.134708	-3.378208	2.748168	-2.401558	0.274491	-3.837914	0.180696	-0.036922	0.027664	0.999743	-0.012007	0.001372	-0.019188	
37585	    0	16.938062	-5.566288	3.138559	-2.396409	0.399815	-3.851651	0.168335	-0.058533	0.031738	0.999741	-0.011981	0.001999	-0.019257	
37586	    0	15.374235	-6.999341	2.462228	-1.969105	0.450359	-3.749177	0.152453	-0.072615	0.024984	0.999773	-0.009845	0.002252	-0.018744	
37587	    0	13.735081	-9.679955	1.394774	-1.563935	0.369286	-3.573074	0.135620	-0.099121	0.014465	0.999807	-0.007819	0.001846	-0.017864	
37588	    0	12.142859	-12.406882	2.066172	-1.591203	0.360319	-3.371627	0.119354	-0.125924	0.021442	0.999825	-0.007956	0.001801	-0.016857	
37589	    0	9.670041	-14.467451	1.848621	-1.639642	0.439667	-3.105326	0.094482	-0.145996	0.019470	0.999843	-0.008198	0.002198	-0.015526	
37590	    0	6.986967	-16.856008	0.476536	-1.508963	0.373664	-2.651700	0.067637	-0.169425	0.005914	0.999882	-0.007545	0.001868	-0.013258	
37591	    0	4.845692	-19.563260	-0.903711	-1.320681	0.295456	-2.037862	0.046448	-0.196167	-0.007812	0.999925	-0.006603	0.001477	-0.010189	
37592	    0	2.692946	-21.574815	-2.058369	-1.011670	0.167276	-1.347176	0.025458	-0.216023	-0.019513	0.999964	-0.005058	0.000836	-0.006736	
37593	    0	0.928179	-23.017717	-1.211100	-0.292016	0.112152	-0.687410	0.008484	-0.230225	-0.011780	0.999992	-0.001460	0.000561	-0.003437	
37594	    0	-0.384188	-23.556468	0.607104	0.823405	0.147057	-0.139809	-0.004003	-0.235584	0.005104	0.999990	0.004117	0.000735	-0.000699	
37595	    0	-1.319135	-22.470241	1.460873	1.979861	0.105478	0.326544	-0.012817	-0.224854	0.012390	0.999949	0.009899	0.000527	0.001633	
37596	    0	-1.112417	-19.437399	1.293148	2.645768	0.295267	0.779749	-0.010349	-0.194564	0.010374	0.999904	0.013228	0.001476	0.003899	
37597	    0	0.282319	-13.117564	2.476782	2.654557	0.819428	1.129956	0.003662	-0.131470	0.023010	0.999887	0.013272	0.004097	0.005650	
37598	    0	1.356800	-8.214576	5.292698	1.976840	1.379439	1.415108	0.014512	-0.082562	0.052014	0.999902	0.009884	0.006897	0.007075	
37599	    0	2.479331	-5.578210	6.774236	1.192700	1.642656	1.685382	0.025818	-0.055969	0.067200	0.999912	0.005963	0.008213	0.008427	
37600	    0	4.674932	-3.832399	6.474220	0.706502	1.562354	1.975116	0.047629	-0.038084	0.064238	0.999914	0.003532	0.007812	0.009875	
37601	    0	6.799693	-2.156269	6.004997	-0.179296	1.456685	2.212589	0.068665	-0.020752	0.059570	0.999911	-0.000896	0.007283	0.011063	
37602	    0	7.703267	0.139467	4.484056	-1.194043	1.398518	2.272687	0.077319	0.002538	0.044288	0.999892	-0.005970	0.006992	0.011363	
37603	    0	8.714904	2.374784	0.712879	-1.965986	1.103257	2.223298	0.086914	0.024780	0.006409	0.999874	-0.009830	0.005516	0.011116	
37604	    0	11.927341	2.560006	-4.525513	-1.897500	0.853570	2.125437	0.118800	0.026430	-0.046011	0.999889	-0.009487	0.004268	0.010627	
37605	    0	24.095457	1.274910	-10.099190	-1.000247	0.820378	2.509391	0.240356	0.015259	-0.102051	0.999900	-0.005001	0.004102	0.012547	
37606	    0	41.832696	-3.241477	-17.826986	0.041392	0.537327	3.423862	0.418319	-0.025216	-0.179399	0.999849	0.000207	0.002687	0.017118	
37607	    0	27.393704	-15.907440	-16.479363	1.389593	1.303184	3.431159	0.275513	-0.153198	-0.167664	0.999807	0.006948	0.006516	0.017155	
37608	    0	20.981728	-14.666680	-7.830385	2.393373	1.272701	3.864647	0.212075	-0.141622	-0.081364	0.999721	0.011966	0.006363	0.019321	
37609	    0	27.298303	-8.416203	-8.015606	3.307194	1.124717	4.309635	0.274231	-0.076904	-0.083008	0.999615	0.016534	0.005623	0.021545	
37610	    0	30.026782	-4.395816	-12.379363	3.077098	0.730026	4.196459	0.300619	-0.035730	-0.125483	0.999655	0.015384	0.003650	0.020980	
37611	    0	29.611465	0.266509	-15.344188	2.214255	0.306921	4.144670	0.295715	0.010498	-0.153809	0.999722	0.011070	0.001534	0.020721	
37612	    0	27.193676	5.797446	-14.724779	2.276095	0.237872	4.559439	0.270321	0.065823	-0.146851	0.999674	0.011379	0.001189	0.022795	
37613	    0	26.466978	9.694192	-14.542179	2.410444	0.402313	5.067349	0.261780	0.105347	-0.144714	0.999604	0.012051	0.002011	0.025333	
37614	    0	25.538016	9.628860	-14.003803	2.189184	0.576483	5.379677	0.252237	0.104632	-0.139653	0.999574	0.010944	0.002882	0.026895	
37615	    0	24.006146	7.097682	-12.403646	1.839695	0.677773	5.345113	0.237610	0.078491	-0.124146	0.999595	0.009197	0.003388	0.026722	
37616	    0	22.242749	5.049206	-10.617735	1.541510	0.565023	5.053542	0.220743	0.056904	-0.106380	0.999646	0.007707	0.002825	0.025265	
37617	    0	20.537803	5.550151	-8.489655	1.230738	0.239013	4.604777	0.203918	0.060730	-0.084778	0.999715	0.006153	0.001195	0.023022	
37618	    0	18.153155	7.249153	-6.139968	1.018982	-0.292228	4.095574	0.180081	0.076500	-0.060753	0.999776	0.005095	-0.001461	0.020476	
37619	    0	15.932781	9.289533	-4.095142	1.005043	-0.781297	3.600530	0.157776	0.095947	-0.039856	0.999817	0.005025	-0.003906	0.018002	
37620	    0	14.200436	11.308242	-2.612526	1.328540	-1.160875	3.123832	0.140359	0.115450	-0.024546	0.999839	0.006642	-0.005804	0.015618	
37621	    0	12.874134	12.673028	-1.821179	1.760189	-1.427340	2.601753	0.127197	0.128540	-0.016174	0.999850	0.008801	-0.007136	0.013008	
37622	    0	11.898054	13.334028	-1.438176	2.082535	-1.578591	1.939096	0.117781	0.134620	-0.012052	0.999867	0.010412	-0.007893	0.009695	
37623	    0	9.531552	13.614830	-1.390167	2.098919	-1.579912	1.184886	0.094604	0.136841	-0.011719	0.999896	0.010494	-0.007899	0.005924	
37624	    0	5.810316	12.872041	-1.366106	1.657137	-1.267076	0.554858	0.057826	0.128986	-0.012226	0.999941	0.008286	-0.006335	0.002774	
37625	    0	2.879460	13.728292	-0.646113	1.108558	-0.589565	0.093842	0.028748	0.137329	-0.005615	0.999980	0.005543	-0.002948	0.000469	
37626	    0	-0.594335	16.295395	-0.624295	0.547028	-0.136566	-0.174141	-0.005797	0.162975	-0.005801	0.999995	0.002735	-0.000683	-0.000871	
37627	    0	-3.571817	19.210711	-1.746796	-0.408173	-0.131035	-0.382233	-0.035339	0.192139	-0.017883	0.999995	-0.002041	-0.000655	-0.001911	
37628	    0	-3.962782	17.369720	-0.213823	-0.855641	0.207330	-0.655940	-0.039061	0.173815	-0.002841	0.999985	-0.004278	0.001037	-0.003280	
37629	    0	-3.483867	10.427369	4.268046	-1.189436	0.676925	-0.869761	-0.034241	0.104675	0.042175	0.999967	-0.005947	0.003385	-0.004349	
37630	    0	-1.875781	2.319444	10.089199	-0.959597	0.399212	-1.220144	-0.018413	0.023791	0.100816	0.999968	-0.004798	0.001996	-0.006101	
37631	    0	-2.326389	-4.213436	10.386112	-0.631722	-0.425535	-1.525134	-0.023804	-0.041626	0.103943	0.999963	-0.003159	-0.002128	-0.007626	
37632	    0	-4.308267	-6.010331	7.574224	-1.168662	-1.570933	-1.519433	-0.044130	-0.059328	0.075747	0.999923	-0.005843	-0.007854	-0.007597	
37633	    0	-3.158141	-10.149016	2.768856	-2.159252	-2.845750	-1.450438	-0.032715	-0.100952	0.028320	0.999814	-0.010796	-0.014228	-0.007252	
37634	    0	-3.275900	-11.908277	-6.237189	-2.601292	-3.764501	-1.125821	-0.032269	-0.119703	-0.061428	0.999722	-0.013005	-0.018821	-0.005629	
37635	    0	-2.284129	-11.830743	-14.618802	-1.422769	-3.236566	-0.763744	-0.020935	-0.119263	-0.145691	0.999836	-0.007113	-0.016182	-0.003819	
37636	    0	1.899389	-5.557288	-11.076182	0.114823	-0.695613	-0.831799	0.019148	-0.055589	-0.110727	0.999985	0.000574	-0.003478	-0.004159	
37637	    0	4.354056	-3.898474	-2.977394	-0.359157	0.939949	-0.956734	0.043213	-0.039246	-0.029907	0.999975	-0.001796	0.004700	-0.004784	
37638	    0	5.975169	-3.900318	0.217139	-0.838481	1.116957	-1.008428	0.059566	-0.039295	0.002003	0.999963	-0.004192	0.005585	-0.005042	
37639	    0	7.158128	-2.064566	-0.085595	0.255778	1.116191	-0.984201	0.071472	-0.020996	-0.001282	0.999971	0.001279	0.005581	-0.004921	
37640	    0	5.458369	1.559331	0.311734	1.572839	1.491775	-1.153784	0.054694	0.015255	0.002831	0.999924	0.007864	0.007459	-0.005769	
37641	    0	3.801810	6.916287	5.682157	1.527646	1.752530	-1.588492	0.039062	0.068420	0.057007	0.999901	0.007638	0.008762	-0.007942	
37642	    0	9.453103	8.264867	7.705641	-0.275616	0.894752	-1.736860	0.095588	0.081927	0.076517	0.999950	-0.001378	0.004474	-0.008684	
37643	    0	43.282670	-5.006433	-2.414394	-3.102077	-1.282566	-0.880476	0.432739	-0.052307	-0.020569	0.999849	-0.015510	-0.006413	-0.004402	
37644	    0	35.697894	-31.375775	-17.560808	-5.658021	-2.745167	1.877549	0.362217	-0.315081	-0.161757	0.999461	-0.028285	-0.013723	0.009386	
37645	    0	21.998697	-38.523102	-13.588600	-0.382812	-0.784316	1.909673	0.224182	-0.383362	-0.134277	0.999945	-0.001914	-0.003922	0.009548	
37646	    0	23.659480	6.932998	15.177484	2.043581	0.050355	1.211386	0.236214	0.069206	0.152423	0.999928	0.010218	0.000252	0.006057	
37647	    0	20.266913	27.064440	10.193611	1.494044	-0.772867	0.088502	0.202148	0.269958	0.104736	0.999964	0.007470	-0.003864	0.000443	
37648	    0	9.725411	32.527544	-0.972368	0.154877	-0.768856	-0.672534	0.098383	0.324953	-0.009095	0.999987	0.000774	-0.003844	-0.003363	
37649	    0	4.037201	24.959390	-6.709465	-2.225554	-0.490392	-1.116973	0.041931	0.248596	-0.069763	0.999919	-0.011127	-0.002452	-0.005585	
37650	    0	3.045081	14.974544	-8.436356	-4.304306	0.647983	-1.374364	0.031190	0.147670	-0.087657	0.999739	-0.021520	0.003240	-0.006871	
37651	    0	5.474666	11.364376	-6.376780	-4.499306	1.064405	-1.493982	0.055237	0.111755	-0.066589	0.999704	-0.022494	0.005322	-0.007469	
37652	    0	8.242321	7.330914	-7.582600	-3.344171	0.989403	-1.658161	0.082640	0.071339	-0.077438	0.999813	-0.016720	0.004947	-0.008290	
37653	    0	15.833228	1.314992	-12.809553	-2.134784	0.565550	-2.005079	0.158081	0.010193	-0.128662	0.999888	-0.010674	0.002828	-0.010025	
37654	    0	23.401465	-5.280512	-16.108271	-1.404995	0.465788	-2.233381	0.233022	-0.056543	-0.161238	0.999909	-0.007025	0.002329	-0.011167	
37655	    0	19.679206	-8.891661	-12.989956	-0.613225	0.390633	-2.034036	0.195618	-0.091309	-0.130005	0.999941	-0.003066	0.001953	-0.010170	
37656	    0	12.616589	-6.200729	-11.305810	0.643367	-0.301751	-2.536084	0.125540	-0.063238	-0.113070	0.999913	0.003217	-0.001509	-0.012680	
37657	    0	12.193395	-2.503220	-11.860109	1.322239	-0.795594	-3.071745	0.122009	-0.026123	-0.118286	0.999852	0.006611	-0.003978	-0.015358	
37658	    0	12.878737	-0.072617	-9.784062	1.259874	-0.952774	-3.302759	0.129223	-0.002244	-0.097237	0.999832	0.006299	-0.004764	-0.016513	
37659	    0	14.929103	1.350918	-9.622539	0.844053	-0.956021	-3.582980	0.149963	0.011230	-0.095459	0.999819	0.004220	-0.004780	-0.017914	
37660	    0	16.883465	2.005180	-7.028165	-0.407435	-0.758218	-3.743402	0.169434	0.016742	-0.069676	0.999815	-0.002037	-0.003791	-0.018716	
37661	    0	17.493693	2.672990	-3.131646	-1.387880	-0.547636	-3.718816	0.175476	0.023254	-0.031006	0.999799	-0.006939	-0.002738	-0.018593	
37662	    0	18.409314	1.984067	-0.640395	-1.972722	-0.272771	-3.653599	0.184422	0.016411	-0.006326	0.999784	-0.009863	-0.001364	-0.018267	
37663	    0	18.393006	-1.006530	2.952188	-2.080690	0.049785	-3.661617	0.183716	-0.013123	0.029602	0.999778	-0.010403	0.000249	-0.018307	
37664	    0	17.966270	-3.995506	4.077692	-2.098630	0.167288	-3.797257	0.178901	-0.042927	0.041067	0.999763	-0.010492	0.000836	-0.018985	
37665	    0	17.103999	-6.094133	4.479438	-2.053044	0.177779	-3.880622	0.169861	-0.063782	0.045288	0.999758	-0.010264	0.000889	-0.019402	
37666	    0	16.271063	-7.925299	3.341473	-1.741537	0.145732	-3.816885	0.161187	-0.082045	0.034003	0.999780	-0.008707	0.000729	-0.019083	
37667	    0	14.816761	-10.546791	2.260750	-1.438996	0.168811	-3.634112	0.146240	-0.107971	0.023254	0.999808	-0.007195	0.000844	-0.018169	
37668	    0	11.947992	-12.682541	2.040352	-1.281619	0.246062	-3.412627	0.117320	-0.128706	0.021079	0.999833	-0.006408	0.001230	-0.017062	
37669	    0	8.640791	-14.821388	1.111573	-1.427336	0.222026	-3.024434	0.084167	-0.149414	0.012085	0.999859	-0.007136	0.001110	-0.015121	
37670	    0	5.892378	-18.486806	-0.147572	-1.910861	0.104909	-2.508649	0.056599	-0.185591	0.000265	0.999875	-0.009554	0.000525	-0.012543	
37671	    0	3.090221	-22.190256	-1.315573	-2.014222	0.047494	-1.827296	0.028870	-0.222290	-0.010925	0.999907	-0.010071	0.000237	-0.009136	
37672	    0	0.475026	-25.182481	-2.503331	-1.303306	-0.037766	-1.028645	0.003459	-0.252001	-0.023391	0.999965	-0.006516	-0.000189	-0.005143	
37673	    0	-1.328785	-26.790011	-0.414105	-0.130272	-0.010681	-0.286865	-0.013672	-0.267883	-0.003967	0.999998	-0.000651	-0.000053	-0.001434	
37674	    0	-2.091480	-24.842957	1.719806	1.091582	0.099755	0.355532	-0.020465	-0.248555	0.015852	0.999983	0.005458	0.000499	0.001778	
37675	    0	-1.426000	-19.728370	2.630674	1.814301	0.304609	0.865951	-0.013367	-0.197571	0.024536	0.999948	0.009071	0.001523	0.004330	
37676	    0	-0.216742	-14.678407	3.398437	2.081163	0.516905	1.297794	-0.001128	-0.147137	0.032458	0.999921	0.010406	0.002584	0.006489	
37677	    0	0.996760	-12.018752	4.752256	1.902065	0.957708	1.624347	0.011169	-0.120544	0.046326	0.999909	0.009510	0.004788	0.008121	
37678	    0	2.531972	-9.083543	5.191924	1.774657	1.248211	1.848665	0.026481	-0.091049	0.050949	0.999898	0.008873	0.006241	0.009243	
37679	    0	4.148745	-7.021051	4.724676	1.287312	1.358840	2.100442	0.042542	-0.070068	0.046509	0.999901	0.006436	0.006794	0.010502	
37680	    0	6.352194	-4.593631	4.624207	0.432409	1.342815	2.344586	0.064363	-0.045284	0.045713	0.999906	0.002162	0.006714	0.011723	
37681	    0	8.103720	-1.535894	3.928151	-0.478379	1.375053	2.418598	0.081482	-0.014282	0.038757	0.999900	-0.002392	0.006875	0.012093	
37682	    0	9.081373	1.317456	1.914820	-1.462993	1.265003	2.361580	0.090767	0.014383	0.018472	0.999883	-0.007315	0.006325	0.011807	
37683	    0	10.287448	2.818147	-1.728993	-1.966745	0.961342	2.158441	0.102478	0.029114	-0.018066	0.999882	-0.009833	0.004807	0.010792	
37684	    0	14.140421	2.977030	-6.517030	-1.165611	0.695819	2.117213	0.140853	0.030881	-0.065839	0.999921	-0.005828	0.003479	0.010586	
37685	    0	31.906935	1.412130	-11.888739	0.044443	0.467698	2.880199	0.318542	0.018738	-0.119629	0.999893	0.000222	0.002338	0.014400	
37686	    0	35.186094	-6.771548	-17.737996	1.124447	0.504904	3.506099	0.352514	-0.060537	-0.178623	0.999826	0.005622	0.002524	0.017529	
37687	    0	23.106712	-14.781994	-11.452195	1.920655	1.049121	3.654756	0.233093	-0.142456	-0.117126	0.999773	0.009603	0.005245	0.018272	
37688	    0	23.841542	-8.959754	-7.790481	2.372217	0.861254	4.206507	0.239875	-0.083622	-0.079951	0.999699	0.011860	0.004306	0.021030	
37689	    0	27.946252	-5.422559	-9.394707	2.666193	0.784387	4.301923	0.280151	-0.046936	-0.095703	0.999672	0.013330	0.003922	0.021507	
37690	    0	29.547485	-2.165146	-12.708539	1.918007	0.435486	4.137401	0.295544	-0.014314	-0.127890	0.999737	0.009589	0.002177	0.020685	
37691	    0	28.037722	3.383057	-12.438054	1.539935	0.218220	4.277408	0.279419	0.040771	-0.124390	0.999741	0.007699	0.001091	0.021385	
37692	    0	26.005042	8.239927	-11.895381	1.779175	0.228906	4.753243	0.257842	0.089601	-0.118474	0.999677	0.008895	0.001144	0.023764	
37693	    0	25.245285	10.091147	-11.717980	1.880306	0.411275	5.100119	0.249512	0.108398	-0.116699	0.999628	0.009400	0.002056	0.025497	
37694	    0	23.671398	8.781934	-10.049298	1.803630	0.620540	5.211736	0.233992	0.094847	-0.100388	0.999615	0.009017	0.003102	0.026055	
37695	    0	21.874666	5.495770	-7.981217	1.597777	0.621294	4.942122	0.217041	0.060974	-0.080017	0.999658	0.007988	0.003106	0.024708	
37696	    0	19.610965	3.825076	-6.665323	1.275751	0.328285	4.494506	0.195068	0.043068	-0.066710	0.999725	0.006378	0.001641	0.022470	
37697	    0	17.474658	4.783029	-5.695644	1.010203	-0.070768	3.972141	0.173767	0.051575	-0.056641	0.999789	0.005051	-0.000354	0.019859	
37698	    0	15.466759	6.616804	-3.613348	0.994164	-0.535231	3.421778	0.153599	0.068979	-0.035383	0.999837	0.004971	-0.002676	0.017108	
37699	    0	13.822184	8.590732	-1.665363	1.302398	-0.935979	2.913800	0.137024	0.088013	-0.015442	0.999862	0.006512	-0.004680	0.014568	
37700	    0	12.894919	10.143284	-1.057594	1.720314	-1.242502	2.465738	0.127744	0.103094	-0.008898	0.999867	0.008601	-0.006212	0.012328	
37701	    0	12.749718	11.187041	-1.150860	2.070135	-1.485507	1.963891	0.126465	0.113220	-0.009399	0.999870	0.010350	-0.007427	0.009819	
37702	    0	11.336073	11.243119	-1.160885	2.288339	-1.623029	1.362856	0.112673	0.113317	-0.009399	0.999878	0.011441	-0.008115	0.006814	
37703	    0	8.139556	10.360249	-1.353954	2.037107	-1.427310	0.827050	0.081055	0.104065	-0.011902	0.999913	0.010185	-0.007136	0.004135	
37704	    0	5.047502	10.398247	-2.394550	1.040849	-0.917061	0.312426	0.050420	0.104183	-0.023172	0.999974	0.005204	-0.004585	0.001562	
37705	    0	1.463791	12.970544	-2.552473	-0.012016	-0.270081	-0.057220	0.014709	0.129700	-0.025513	0.999998	-0.000060	-0.001350	-0.000286	
37706	    0	-1.479296	15.045773	-1.519761	-0.500298	0.084496	-0.354195	-0.014533	0.150445	-0.015568	0.999994	-0.002501	0.000422	-0.001771	
37707	    0	-2.520753	14.448442	-0.809608	-0.913053	0.223543	-0.688938	-0.024719	0.144531	-0.008728	0.999983	-0.004565	0.001118	-0.003445	
37708	    0	-2.990314	11.316301	2.338088	-0.997171	0.465207	-1.012239	-0.029276	0.113427	0.022884	0.999971	-0.004986	0.002326	-0.005061	
37709	    0	-1.752607	5.603654	8.108292	-0.462918	0.476841	-1.298534	-0.016968	0.056335	0.080994	0.999973	-0.002315	0.002384	-0.006493	
37710	    0	-0.572700	-2.292307	10.680711	0.062943	0.038910	-1.628131	-0.005893	-0.022909	0.106801	0.999967	0.000315	0.000195	-0.008141	
37711	    0	-1.122921	-5.962998	10.115340	-0.268368	-0.625620	-1.813535	-0.012085	-0.059387	0.101196	0.999952	-0.001342	-0.003128	-0.009068	
37712	    0	-0.219355	-9.976832	5.906228	-0.835443	-1.483769	-1.988849	-0.003624	-0.099489	0.059455	0.999914	-0.004177	-0.007419	-0.009944	
37713	    0	-0.009931	-10.539615	-2.441277	-1.167153	-2.034077	-2.010425	-0.000916	-0.105530	-0.023804	0.999880	-0.005836	-0.010170	-0.010052	
37714	    0	-1.052252	-9.822734	-9.244016	-1.327178	-1.940984	-1.614244	-0.010425	-0.098754	-0.091887	0.999898	-0.006636	-0.009705	-0.008071	
37715	    0	1.044915	-6.780719	-8.990788	-0.250056	-0.776681	-1.422135	0.010315	-0.067993	-0.089783	0.999966	-0.001250	-0.003883	-0.007111	
37716	    0	2.300104	-3.229366	-4.644117	0.238993	0.371173	-1.413549	0.022686	-0.032399	-0.046522	0.999972	0.001195	0.001856	-0.007068	
37717	    0	2.843189	-1.751625	-2.869173	0.074769	0.779923	-1.377120	0.028198	-0.017700	-0.028809	0.999969	0.000374	0.003900	-0.006886	
37718	    0	4.076974	0.567763	-3.109852	0.509078	1.081291	-1.372738	0.040639	0.005478	-0.031304	0.999958	0.002545	0.005406	-0.006864	
37719	    0	3.694397	3.968476	-1.656731	0.984978	1.565779	-1.494634	0.037109	0.039490	-0.016663	0.999928	0.004925	0.007829	-0.007473	
37720	    0	2.937345	6.683285	3.643046	0.477230	1.711506	-1.670497	0.030241	0.066496	0.036333	0.999926	0.002386	0.008557	-0.008352	
37721	    0	8.164932	3.719161	5.148093	-1.718950	1.078254	-1.566358	0.082214	0.036987	0.050720	0.999917	-0.008595	0.005391	-0.007832	
37722	    0	45.363010	-14.073143	-0.087954	-4.033194	-1.129233	-0.215737	0.453463	-0.141166	0.004525	0.999780	-0.020164	-0.005646	-0.001079	
37723	    0	36.256213	-41.020449	-22.122518	-3.380837	-1.762331	1.838821	0.368225	-0.410461	-0.211060	0.999776	-0.016903	-0.008811	0.009193	
37724	    0	13.335281	-16.371249	-5.802781	1.336312	-0.123408	1.562718	0.134661	-0.162271	-0.059032	0.999947	0.006681	-0.000617	0.007813	
37725	    0	18.998462	8.398662	14.055987	1.398486	-0.221827	1.038374	0.189392	0.083984	0.141357	0.999961	0.006992	-0.001109	0.005192	
37726	    0	13.923276	28.071346	3.122100	0.708203	-1.070221	0.058747	0.138977	0.280640	0.032959	0.999979	0.003541	-0.005351	0.000294	
37727	    0	6.177385	31.992409	-5.942525	-0.821122	-0.917444	-0.906190	0.063498	0.319392	-0.060449	0.999969	-0.004106	-0.004587	-0.004531	
37728	    0	1.453925	19.531052	-10.252684	-2.810016	-0.004387	-1.238109	0.015744	0.193749	-0.105256	0.999882	-0.014050	-0.000022	-0.006190	
37729	    0	4.031625	8.276533	-6.965113	-4.263491	0.708070	-1.582476	0.040710	0.080933	-0.071533	0.999735	-0.021316	0.003540	-0.007912	
37730	    0	7.772519	5.564395	-5.756774	-3.973915	0.913125	-1.906174	0.077976	0.053739	-0.059004	0.999746	-0.019868	0.004565	-0.009530	
37731	    0	12.339928	2.633416	-6.135931	-2.369598	0.576806	-2.023400	0.123474	0.024353	-0.062012	0.999874	-0.011847	0.002884	-0.010117	
37732	    0	19.699964	-4.252903	-10.025250	-1.069858	0.164036	-2.152495	0.196441	-0.045181	-0.100177	0.999927	-0.005349	0.000820	-0.010762	
37733	    0	21.614699	-8.206094	-11.039015	-0.175480	0.202374	-2.262164	0.215088	-0.084595	-0.110535	0.999934	-0.000877	0.001012	-0.011311	
37734	    0	16.345930	-5.413110	-10.164875	0.632493	-0.073244	-2.426020	0.162827	-0.055787	-0.101764	0.999921	0.003162	-0.000366	-0.012130	
37735	    0	14.386596	-0.920898	-11.928798	1.407876	-0.641660	-2.868779	0.144104	-0.010437	-0.118896	0.999866	0.007039	-0.003208	-0.014343	
37736	    0	14.361582	0.987504	-12.673215	1.667882	-0.863507	-3.214068	0.144306	0.008613	-0.126035	0.999826	0.008339	-0.004317	-0.016069	
37737	    0	15.175217	2.047563	-11.048195	1.717489	-0.914633	-3.441081	0.152588	0.018799	-0.109619	0.999804	0.008587	-0.004573	-0.017204	
37738	    0	17.941602	0.921311	-9.983615	0.999324	-1.008861	-3.655096	0.180051	0.006422	-0.098892	0.999807	0.004996	-0.005044	-0.018274	
37739	    0	19.028834	-1.297807	-7.133702	-0.599710	-0.899375	-3.841655	0.190308	-0.016846	-0.070435	0.999801	-0.002998	-0.004497	-0.019207	
37740	    0	19.059694	-0.941488	-4.216312	-1.782366	-0.593422	-3.899116	0.190484	-0.013501	-0.041490	0.999765	-0.008911	-0.002967	-0.019494	
37741	    0	18.420823	-0.427725	-0.858526	-2.101883	-0.165572	-3.942436	0.184082	-0.007996	-0.008362	0.999750	-0.010509	-0.000828	-0.019711	
37742	    0	18.051617	-1.477190	2.194868	-2.160065	0.194948	-3.955223	0.180202	-0.018101	0.021956	0.999745	-0.010799	0.000975	-0.019774	
37743	    0	17.149983	-3.264379	3.915463	-2.215004	0.412976	-3.943210	0.170898	-0.035583	0.039185	0.999742	-0.011074	0.002065	-0.019714	
37744	    0	15.785162	-4.703628	5.235361	-2.096728	0.500720	-3.850868	0.157045	-0.049516	0.052470	0.999756	-0.010483	0.002503	-0.019253	
37745	    0	14.528831	-6.403556	4.766038	-1.765376	0.367000	-3.695939	0.144165	-0.066284	0.047974	0.999788	-0.008826	0.001835	-0.018478	
37746	    0	12.939343	-9.076393	3.882133	-1.617339	0.288981	-3.449078	0.127863	-0.092661	0.039380	0.999817	-0.008086	0.001445	-0.017244	
37747	    0	10.506363	-11.346953	2.560616	-1.526526	0.215923	-3.075561	0.103333	-0.114868	0.026367	0.999851	-0.007632	0.001080	-0.015377	
37748	    0	8.102280	-14.221056	1.056675	-1.629512	0.086978	-2.591425	0.079177	-0.143152	0.011696	0.999883	-0.008147	0.000435	-0.012957	
37749	    0	5.541087	-16.873766	-0.411607	-1.820429	-0.048639	-2.011170	0.053711	-0.169312	-0.002563	0.999907	-0.009102	-0.000243	-0.010056	
37750	    0	3.052351	-20.307290	-3.287510	-1.918647	-0.224500	-1.359971	0.029176	-0.203577	-0.030890	0.999929	-0.009593	-0.001122	-0.006800	
37751	    0	0.705843	-24.194744	-2.967218	-1.515216	-0.182917	-0.759897	0.006165	-0.242188	-0.027832	0.999963	-0.007576	-0.000915	-0.003799	
37752	    0	-1.056363	-24.209582	0.867810	-0.156021	0.005913	-0.276947	-0.010899	-0.242074	0.008867	0.999998	-0.000780	0.000030	-0.001385	
37753	    0	-1.895893	-22.172155	3.011742	0.793650	-0.014496	0.256348	-0.018677	-0.221863	0.029236	0.999990	0.003968	-0.000072	0.001282	
37754	    0	-1.818217	-20.006618	2.983615	1.082619	0.010681	0.823790	-0.017356	-0.200296	0.028753	0.999976	0.005413	0.000053	0.004119	
37755	    0	-0.999469	-16.295387	3.289540	1.204125	0.174715	1.293962	-0.008911	-0.163208	0.031921	0.999960	0.006021	0.000874	0.006470	
37756	    0	-0.309348	-12.719725	3.448547	1.433784	0.478755	1.661717	-0.001954	-0.127460	0.033578	0.999936	0.007169	0.002394	0.008308	
37757	    0	0.790975	-10.139254	3.454556	1.493305	0.813316	1.940972	0.009033	-0.101562	0.033752	0.999916	0.007466	0.004066	0.009705	
37758	    0	2.730820	-7.608296	3.393849	1.338237	0.979644	2.147740	0.028289	-0.076007	0.033293	0.999907	0.006691	0.004898	0.010738	
37759	    0	4.986447	-5.117854	3.550963	0.789858	1.089511	2.370526	0.050659	-0.050720	0.035034	0.999907	0.003949	0.005447	0.011852	
37760	    0	7.222209	-1.860395	3.792995	-0.015450	1.217310	2.549828	0.072680	-0.017676	0.037490	0.999900	-0.000077	0.006086	0.012749	
37761	    0	8.614988	1.282667	2.593790	-0.883515	1.130907	2.550598	0.086121	0.014038	0.025391	0.999892	-0.004417	0.005654	0.012753	
37762	    0	10.541003	3.199921	-1.225193	-1.429225	0.708223	2.382742	0.104975	0.033161	-0.012858	0.999897	-0.007146	0.003541	0.011913	
37763	    0	15.192901	3.432726	-5.340625	-0.925470	0.347337	2.307189	0.151428	0.035828	-0.053833	0.999921	-0.004627	0.001737	0.011536	
37764	    0	32.797632	0.786198	-11.508011	-0.032617	0.016785	3.025552	0.327798	0.012803	-0.115109	0.999885	-0.000163	0.000084	0.015127	
37765	    0	34.309856	-6.283779	-16.657639	0.918633	0.335141	3.621886	0.343872	-0.055847	-0.167419	0.999824	0.004593	0.001676	0.018108	
37766	    0	22.349319	-12.695814	-10.243607	1.685646	1.113400	3.642345	0.225166	-0.121991	-0.104729	0.999783	0.008428	0.005567	0.018210	
37767	    0	22.201552	-7.960511	-6.040734	1.871840	0.744692	4.043160	0.223328	-0.074524	-0.061951	0.999744	0.009358	0.003723	0.020214	
37768	    0	28.016636	-5.242188	-7.351098	2.123274	0.603925	4.263524	0.280963	-0.045648	-0.074867	0.999711	0.010615	0.003019	0.021316	
37769	    0	29.910583	-2.075853	-10.907276	1.562631	0.118456	4.205675	0.299377	-0.013611	-0.109375	0.999747	0.007812	0.000592	0.021027	
37770	    0	28.829762	3.086057	-11.144042	1.177503	-0.193612	4.271667	0.287649	0.037663	-0.110953	0.999754	0.005887	-0.000968	0.021357	
37771	    0	27.076148	8.802784	-10.904313	1.398610	-0.087556	4.727652	0.268616	0.095154	-0.108276	0.999696	0.006992	-0.000438	0.023636	
37772	    0	26.703819	10.512237	-10.984337	1.253464	0.220515	5.115529	0.264101	0.112590	-0.109446	0.999652	0.006267	0.001102	0.025575	
37773	    0	24.982181	9.637725	-8.163318	0.962370	0.318946	5.193935	0.247070	0.103210	-0.081543	0.999649	0.004811	0.001595	0.025967	
37774	    0	22.542779	6.508216	-6.427468	0.939850	0.097857	4.954863	0.223687	0.070940	-0.064060	0.999681	0.004699	0.000489	0.024772	
37775	    0	20.203774	3.874718	-6.280118	0.977414	-0.095185	4.554398	0.201111	0.043640	-0.062500	0.999728	0.004887	-0.000476	0.022770	
37776	    0	18.319530	3.644170	-5.040285	0.976443	-0.511588	4.043303	0.182533	0.040380	-0.049745	0.999780	0.004882	-0.002558	0.020215	
37777	    0	16.499898	4.853319	-2.356918	1.268082	-1.032129	3.447933	0.164246	0.051514	-0.022400	0.999818	0.006340	-0.005160	0.017239	
37778	    0	14.235436	7.240716	-0.338775	1.799685	-1.462447	2.856034	0.141317	0.074450	-0.001688	0.999830	0.008998	-0.007312	0.014279	
37779	    0	12.829350	9.944785	-0.922230	2.328052	-1.715949	2.313365	0.127197	0.101013	-0.006958	0.999828	0.011640	-0.008579	0.011566	
37780	    0	12.351750	12.281664	-1.060723	2.728807	-1.811893	1.675319	0.122561	0.123965	-0.007808	0.999830	0.013643	-0.009059	0.008376	
37781	    0	10.417004	12.369737	-1.586564	2.667364	-1.858419	0.970506	0.103699	0.124390	-0.013245	0.999856	0.013336	-0.009292	0.004852	
37782	    0	7.325082	11.655481	-2.214278	2.168526	-1.418536	0.357447	0.073191	0.116913	-0.020357	0.999914	0.010842	-0.007092	0.001787	
37783	    0	4.309552	12.021317	-2.667586	1.070412	-0.708585	-0.244142	0.043335	0.120300	-0.025879	0.999978	0.005352	-0.003543	-0.001221	
37784	    0	0.013186	15.152247	-1.419752	0.155068	0.004578	-0.582887	0.000573	0.151532	-0.014080	0.999995	0.000775	0.000023	-0.002914	
37785	    0	-2.365632	16.849773	-0.409419	-0.386049	0.215340	-0.772097	-0.023010	0.168579	-0.004395	0.999990	-0.001930	0.001077	-0.003860	
37786	    0	-2.623081	15.181831	-1.134146	-0.901992	0.359920	-0.989922	-0.025500	0.151893	-0.011980	0.999975	-0.004510	0.001800	-0.004950	
37787	    0	-2.811093	11.099850	2.814496	-1.222054	0.444799	-1.158920	-0.027405	0.111328	0.027527	0.999962	-0.006110	0.002224	-0.005795	
37788	    0	-1.637254	3.745855	10.548500	-0.271609	0.100900	-1.424611	-0.016051	0.037717	0.105442	0.999973	-0.001358	0.000504	-0.007123	
37789	    0	-0.482737	-3.889932	11.395132	0.255779	-0.380712	-1.677725	-0.005371	-0.039001	0.113892	0.999962	0.001279	-0.001904	-0.008389	
37790	    0	-1.131758	-7.165462	9.434595	-0.207905	-1.180670	-1.695091	-0.012481	-0.071454	0.094349	0.999946	-0.001040	-0.005903	-0.008475	
37791	    0	0.590431	-12.246911	4.284310	-0.920138	-2.097968	-1.825779	0.004333	-0.122314	0.043457	0.999892	-0.004601	-0.010489	-0.009129	
37792	    0	0.783500	-12.523395	-4.332909	-1.382701	-2.419774	-1.803099	0.007220	-0.125596	-0.042372	0.999862	-0.006913	-0.012098	-0.009015	
37793	    0	0.507903	-10.166341	-9.314325	-0.883314	-1.638833	-1.517523	0.005066	-0.102112	-0.092651	0.999928	-0.004416	-0.008194	-0.007587	
37794	    0	2.350935	-4.600707	-5.967237	0.590712	0.045205	-1.427092	0.023168	-0.045997	-0.059813	0.999969	0.002954	0.000226	-0.007135	
37795	    0	2.657370	-1.891362	-2.072988	0.401310	0.802048	-1.294722	0.026367	-0.019043	-0.020874	0.999969	0.002007	0.004010	-0.006474	
37796	    0	3.358317	-1.273396	-1.753408	-0.230028	0.630383	-1.145943	0.033454	-0.012946	-0.017625	0.999977	-0.001150	0.003152	-0.005730	
37797	    0	4.190604	0.728299	-2.950212	0.190164	0.509647	-1.103217	0.041870	0.007080	-0.029602	0.999981	0.000951	0.002548	-0.005516	
37798	    0	3.392423	3.475343	-1.551070	0.667962	1.071944	-1.278894	0.034062	0.034588	-0.015577	0.999959	0.003340	0.005360	-0.006394	
37799	    0	4.139022	6.758464	6.207818	-0.153926	1.521330	-1.477079	0.042358	0.067322	0.061707	0.999943	-0.000770	0.007607	-0.007385	
37800	    0	15.704821	3.895478	7.216094	-2.339432	0.422299	-1.198804	0.157433	0.038850	0.071374	0.999911	-0.011697	0.002111	-0.005994	
37801	    0	42.650963	-15.749229	-9.534344	-5.347216	-1.907608	0.619591	0.427856	-0.158569	-0.087036	0.999592	-0.026732	-0.009537	0.003098	
37802	    0	24.997097	-40.404930	-22.606331	-4.465829	-1.891744	2.289856	0.256679	-0.406013	-0.214604	0.999640	-0.022326	-0.009458	0.011448	
37803	    0	16.698989	-15.474218	-5.152089	1.272038	0.137332	1.879160	0.168396	-0.152832	-0.052612	0.999935	0.006360	0.000687	0.009396	
37804	    0	18.123048	8.256703	18.381712	1.000986	-0.220682	1.109897	0.180569	0.082648	0.184430	0.999971	0.005005	-0.001103	0.005549	
37805	    0	13.473304	26.642320	2.407234	1.314750	-0.989544	-0.028229	0.134644	0.266235	0.026489	0.999966	0.006574	-0.004948	-0.000141	
37806	    0	8.040992	32.561681	-4.353077	-0.487141	-1.011666	-0.852401	0.082018	0.325163	-0.043911	0.999974	-0.002436	-0.005058	-0.004262	
37807	    0	3.623755	21.562114	-11.096642	-2.687172	-0.092891	-1.276445	0.037659	0.213867	-0.113831	0.999888	-0.013435	-0.000464	-0.006382	
37808	    0	5.834039	11.651512	-6.048690	-4.283709	0.718752	-1.490533	0.058976	0.114743	-0.063169	0.999736	-0.021417	0.003593	-0.007452	
37809	    0	9.233524	9.693501	-6.542342	-3.834064	0.802101	-1.734294	0.092896	0.094849	-0.067627	0.999770	-0.019169	0.004010	-0.008671	
37810	    0	13.787914	5.076123	-8.108777	-2.388666	0.527021	-1.854969	0.138121	0.048505	-0.082040	0.999882	-0.011943	0.002635	-0.009274	
37811	    0	21.644472	-1.707510	-10.790027	-1.146535	0.222784	-2.094319	0.216125	-0.019958	-0.108032	0.999928	-0.005733	0.001114	-0.010471	
37812	    0	22.619087	-7.328491	-10.950084	-0.433168	0.284582	-2.159163	0.225224	-0.075957	-0.109659	0.999938	-0.002166	0.001423	-0.010796	
37813	    0	16.329269	-5.599071	-10.705793	0.417339	-0.149349	-2.496405	0.162659	-0.057800	-0.107056	0.999919	0.002087	-0.000747	-0.012482	
37814	    0	14.831301	-1.198712	-12.258473	1.125577	-0.741420	-3.000776	0.148571	-0.013527	-0.122108	0.999865	0.005628	-0.003707	-0.015003	
37815	    0	14.600451	0.808982	-12.242291	1.358108	-0.999316	-3.258697	0.146729	0.006531	-0.121643	0.999831	0.006790	-0.004996	-0.016293	
37816	    0	15.119615	1.927120	-11.079676	1.213723	-1.046438	-3.564108	0.152092	0.017235	-0.109894	0.999808	0.006068	-0.005232	-0.017819	
37817	    0	18.062475	0.479192	-9.999508	-0.064663	-0.966705	-3.776026	0.181152	0.001343	-0.099121	0.999809	-0.000323	-0.004833	-0.018879	
37818	    0	18.701194	1.054728	-6.361762	-1.395328	-0.748689	-3.894902	0.187401	0.006459	-0.062971	0.999779	-0.006976	-0.003743	-0.019473	
37819	    0	18.645577	1.823819	-3.426584	-1.917422	-0.382836	-3.952347	0.186829	0.014221	-0.034058	0.999757	-0.009586	-0.001914	-0.019760	
37820	    0	18.551744	-0.303190	0.175196	-2.235983	0.036815	-3.910777	0.185411	-0.006639	0.001779	0.999746	-0.011179	0.000184	-0.019552	
37821	    0	18.579890	-2.849864	2.817891	-2.515636	0.263428	-3.877605	0.185242	-0.031738	0.028320	0.999732	-0.012577	0.001317	-0.019386	
37822	    0	17.466218	-4.594626	4.227800	-2.517923	0.375781	-3.845556	0.173822	-0.048759	0.042553	0.999734	-0.012589	0.001879	-0.019226	
37823	    0	15.657977	-5.945035	4.436709	-2.252952	0.405917	-3.774568	0.155518	-0.061890	0.044739	0.999756	-0.011264	0.002029	-0.018871	
37824	    0	13.963874	-7.930668	2.529095	-1.822791	0.293180	-3.673621	0.138191	-0.081620	0.025825	0.999788	-0.009113	0.001466	-0.018367	
37825	    0	11.949306	-10.013241	0.922900	-1.692878	0.235000	-3.484563	0.117737	-0.102112	0.009949	0.999811	-0.008464	0.001175	-0.017422	
37826	    0	9.636697	-11.585534	0.506321	-1.728152	0.246061	-3.175909	0.094519	-0.117317	0.005956	0.999835	-0.008640	0.001230	-0.015879	
37827	    0	7.225007	-14.481916	-0.303278	-1.920981	0.207529	-2.744422	0.070251	-0.145813	-0.001709	0.999859	-0.009604	0.001038	-0.013721	
37828	    0	5.036574	-18.535665	-0.651608	-2.140319	0.248346	-2.174272	0.048340	-0.185946	-0.004589	0.999883	-0.010701	0.001242	-0.010871	
37829	    0	2.843340	-22.049000	-1.512820	-1.951648	0.190930	-1.473273	0.026794	-0.220825	-0.013000	0.999925	-0.009758	0.000955	-0.007366	
37830	    0	0.766527	-24.595832	-1.654793	-1.218997	0.073434	-0.777251	0.006703	-0.246080	-0.015051	0.999973	-0.006095	0.000367	-0.003886	
37831	    0	-0.632548	-25.848782	-0.140813	-0.191498	0.029945	-0.158691	-0.006531	-0.258484	-0.001160	0.999999	-0.000957	0.000150	-0.000793	
37832	    0	-1.250936	-23.947644	1.044260	0.849536	-0.000572	0.363160	-0.012074	-0.239540	0.009425	0.999989	0.004248	-0.000003	0.001816	
37833	    0	-1.048003	-20.198333	0.860201	1.692988	0.107767	0.823987	-0.009644	-0.202087	0.006897	0.999955	0.008465	0.000539	0.004120	
37834	    0	-0.485487	-15.933874	0.573103	2.135332	0.408755	1.210816	-0.003881	-0.159413	0.004038	0.999922	0.010676	0.002044	0.006054	
37835	    0	-0.152933	-12.217605	1.899809	2.128667	0.892095	1.470230	-0.000549	-0.122375	0.017700	0.999906	0.010643	0.004460	0.007351	
37836	    0	0.668056	-10.035031	3.285889	1.593257	1.357692	1.718001	0.007763	-0.100544	0.032008	0.999907	0.007966	0.006788	0.008590	
37837	    0	2.714166	-7.578960	3.440685	1.346823	1.476336	1.966922	0.028137	-0.075745	0.033691	0.999901	0.006734	0.007381	0.009834	
37838	    0	5.109940	-5.121172	3.205331	1.054609	1.395273	2.269250	0.051898	-0.050793	0.031425	0.999897	0.005273	0.006976	0.011346	
37839	    0	7.391933	-2.904535	3.862971	0.427261	1.299521	2.499474	0.074524	-0.028198	0.038086	0.999898	0.002136	0.006497	0.012497	
37840	    0	8.749838	0.044060	3.570161	-0.562877	1.165046	2.447969	0.087689	0.001613	0.035188	0.999904	-0.002814	0.005825	0.012239	
37841	    0	10.155955	2.788428	0.506903	-1.374670	0.821712	2.242350	0.101257	0.029053	0.004456	0.999905	-0.006873	0.004108	0.011211	
37842	    0	13.041368	3.676928	-4.991188	-1.104002	0.437557	2.172335	0.129896	0.037905	-0.050404	0.999923	-0.005520	0.002188	0.010861	
37843	    0	25.423161	1.971744	-10.800857	-0.057794	0.398266	2.666554	0.253723	0.023071	-0.108521	0.999908	-0.000289	0.001991	0.013332	
37844	    0	38.486222	-2.887135	-17.395112	1.019722	0.413725	3.361496	0.384904	-0.021512	-0.174870	0.999844	0.005098	0.002069	0.016807	
37845	    0	28.841898	-13.361923	-15.891025	1.910535	1.146970	3.461701	0.289734	-0.127075	-0.161804	0.999787	0.009552	0.005734	0.017307	
37846	    0	24.373644	-11.977254	-8.557971	2.524230	1.169123	3.827643	0.245443	-0.113981	-0.088474	0.999720	0.012620	0.005845	0.019136	
37847	    0	29.643054	-7.039176	-9.633871	3.058209	1.077584	4.098977	0.297241	-0.062805	-0.098938	0.999658	0.015289	0.005387	0.020493	
37848	    0	30.765369	-4.634024	-13.128943	2.784628	0.762063	3.984281	0.307966	-0.038363	-0.133034	0.999697	0.013922	0.003810	0.019919	
37849	    0	29.648296	2.450714	-13.829409	2.393001	0.660770	4.138585	0.295410	0.032288	-0.138916	0.999708	0.011964	0.003304	0.020691	
37850	    0	27.744065	9.401999	-12.768388	2.288126	0.662116	4.665908	0.274702	0.101910	-0.127460	0.999657	0.011439	0.003310	0.023327	
37851	    0	26.913357	11.567624	-10.671882	1.819075	0.664794	5.117673	0.265686	0.123474	-0.106506	0.999625	0.009094	0.003324	0.025585	
37852	    0	24.475414	11.843021	-8.617597	2.320040	0.463741	5.273981	0.241302	0.125817	-0.085307	0.999582	0.011599	0.002318	0.026366	
37853	    0	22.749041	7.297054	-8.672313	2.452605	0.415857	5.080328	0.225342	0.079773	-0.086243	0.999599	0.012261	0.002079	0.025398	
37854	    0	20.954144	5.202663	-9.824581	1.244096	0.333056	4.712573	0.208065	0.057552	-0.098247	0.999701	0.006220	0.001665	0.023561	
37855	    0	18.765131	6.915733	-7.371576	0.323511	0.074964	4.249895	0.186096	0.073242	-0.073669	0.999772	0.001617	0.000375	0.021248	
37856	    0	16.358681	9.002715	-4.263556	0.074010	-0.286310	3.769718	0.161912	0.093105	-0.042369	0.999821	0.000370	-0.001431	0.018847	
37857	    0	14.009761	10.211664	-1.400303	0.320450	-0.588826	3.299106	0.138428	0.104431	-0.013428	0.999858	0.001602	-0.002944	0.016495	
37858	    0	12.204124	10.919302	0.291324	0.798257	-0.875699	2.859420	0.120448	0.110909	0.003883	0.999880	0.003991	-0.004378	0.014297	
37859	    0	11.414220	11.227007	0.685029	1.280448	-1.174968	2.304920	0.112793	0.113525	0.008240	0.999895	0.006402	-0.005875	0.011524	
37860	    0	10.362850	11.366363	-0.185910	1.589059	-1.399272	1.608133	0.102715	0.114498	-0.000231	0.999911	0.007945	-0.006996	0.008040	
37861	    0	7.638300	10.676772	-1.182310	1.443699	-1.290918	0.869004	0.075989	0.107178	-0.010559	0.999943	0.007218	-0.006454	0.004345	
37862	    0	4.402951	10.224574	-1.353920	0.758938	-0.823025	0.261117	0.043950	0.102353	-0.012970	0.999983	0.003795	-0.004115	0.001306	
37863	    0	1.281500	12.313023	-1.622618	-0.153351	-0.375176	-0.152588	0.012939	0.123108	-0.016296	0.999997	-0.000767	-0.001876	-0.000763	
37864	    0	-1.453762	15.647976	-1.896366	-0.730135	-0.136757	-0.455858	-0.014168	0.156442	-0.019545	0.999990	-0.003651	-0.000684	-0.002279	
37865	    0	-2.781052	16.349237	-0.337311	-0.865941	-0.059319	-0.718693	-0.027222	0.163574	-0.004089	0.999984	-0.004330	-0.000297	-0.003593	
37866	    0	-3.399031	11.875346	1.920453	-0.742917	0.293924	-0.983626	-0.033378	0.118989	0.018812	0.999979	-0.003715	0.001470	-0.004918	
37867	    0	-2.393840	4.495874	6.604686	-0.548368	0.473790	-1.255046	-0.023499	0.045288	0.065979	0.999973	-0.002742	0.002369	-0.006275	
37868	    0	-1.429104	-2.971321	11.044761	0.107766	-0.065232	-1.581018	-0.014562	-0.029658	0.110427	0.999969	0.000539	-0.000326	-0.007905	
37869	    0	-2.570957	-6.053093	10.391295	-0.131991	-1.000039	-1.672390	-0.026733	-0.060242	0.103821	0.999951	-0.000660	-0.005000	-0.008362	
37870	    0	-1.280551	-9.999901	4.843561	-1.261191	-2.224824	-1.843529	-0.014267	-0.099565	0.048911	0.999875	-0.006306	-0.011124	-0.009217	
37871	    0	-1.842906	-10.997301	-5.523353	-2.418522	-3.244280	-1.721330	-0.018494	-0.110474	-0.054199	0.999758	-0.012092	-0.016220	-0.008606	
37872	    0	-2.395544	-10.322886	-15.613428	-1.378703	-2.979242	-1.294585	-0.022305	-0.104156	-0.155759	0.999844	-0.006893	-0.014895	-0.006473	
37873	    0	0.718497	-5.294180	-11.923657	0.625044	-0.463108	-1.214610	0.007141	-0.052612	-0.119385	0.999973	0.003125	-0.002316	-0.006073	
37874	    0	2.511884	-2.032582	-1.866110	0.304035	1.237122	-1.198021	0.024880	-0.020447	-0.018847	0.999961	0.001520	0.006186	-0.005990	
37875	    0	4.132320	-2.383413	1.055600	-0.344853	1.368160	-1.122299	0.041260	-0.024048	0.010315	0.999959	-0.001724	0.006841	-0.005611	
37876	    0	4.849373	-1.243717	-0.289462	0.168802	1.085292	-1.056872	0.048410	-0.012691	-0.003168	0.999970	0.000844	0.005426	-0.005284	
37877	    0	3.434654	2.546222	-0.103220	0.962275	1.448085	-1.155874	0.034485	0.025269	-0.001160	0.999945	0.004811	0.007240	-0.005779	
37878	    0	2.171867	5.805938	6.693552	0.652710	1.744883	-1.445232	0.022720	0.057679	0.066929	0.999930	0.003263	0.008724	-0.007226	
37879	    0	8.484263	4.711901	8.450544	-1.340319	0.768295	-1.464108	0.085510	0.047058	0.083862	0.999943	-0.006701	0.003841	-0.007320	
37880	    0	47.814621	-9.966563	-1.942391	-3.938028	-1.734678	-0.395043	0.478081	-0.100912	-0.013298	0.999766	-0.019689	-0.008673	-0.001975	
37881	    0	34.482096	-36.683914	-19.808753	-5.470219	-2.363974	1.954208	0.350647	-0.368591	-0.183899	0.999508	-0.027347	-0.011818	0.009769	
37882	    0	18.198441	-24.679071	-8.435376	0.503548	0.017166	1.864653	0.184266	-0.244866	-0.084988	0.999953	0.002518	0.000086	0.009323	
37883	    0	20.327769	7.376245	16.955583	1.561191	0.086214	1.274893	0.202881	0.073730	0.170044	0.999949	0.007806	0.000431	0.006374	
37884	    0	16.299290	27.003003	6.600516	1.184665	-0.867088	0.056840	0.162623	0.269676	0.068309	0.999972	0.005923	-0.004335	0.000284	
37885	    0	8.433530	34.624802	-4.805786	-0.204469	-0.881773	-0.874334	0.086060	0.345825	-0.048035	0.999980	-0.001022	-0.004409	-0.004372	
37886	    0	1.978540	24.018252	-11.353993	-2.615640	-0.073436	-1.281974	0.021360	0.238537	-0.116659	0.999893	-0.013078	-0.000367	-0.006410	
37887	    0	3.264486	11.067368	-7.294969	-4.400861	0.868307	-1.613007	0.033203	0.108765	-0.075500	0.999716	-0.022002	0.004341	-0.008064	
37888	    0	6.021545	8.715867	-6.184892	-4.263324	0.988672	-1.837521	0.060692	0.085254	-0.063979	0.999718	-0.021315	0.004943	-0.009187	
37889	    0	10.419418	4.778705	-7.526979	-2.722303	0.752486	-1.989845	0.104370	0.045715	-0.076294	0.999850	-0.013611	0.003762	-0.009949	
37890	    0	19.525671	-2.020814	-11.772756	-1.613668	0.385678	-2.210306	0.194783	-0.023314	-0.117924	0.999904	-0.008068	0.001928	-0.011051	
37891	    0	23.506365	-8.635429	-12.515967	-0.696390	0.491345	-2.242333	0.233765	-0.089417	-0.125427	0.999928	-0.003482	0.002457	-0.011211	
37892	    0	17.378500	-9.872671	-10.899254	0.259596	0.149921	-2.361353	0.172523	-0.100627	-0.109252	0.999928	0.001298	0.000750	-0.011806	
37893	    0	13.234591	-4.022649	-11.970356	1.402345	-0.455304	-2.926767	0.132019	-0.041321	-0.119690	0.999866	0.007011	-0.002276	-0.014633	
37894	    0	13.480548	-0.680396	-11.691012	1.536838	-0.854350	-3.254885	0.135179	-0.008106	-0.116392	0.999828	0.007684	-0.004272	-0.016273	
37895	    0	13.584176	1.725306	-10.864352	1.571188	-0.978154	-3.543327	0.136658	0.015686	-0.107849	0.999800	0.007855	-0.004890	-0.017715	
37896	    0	16.759224	1.725939	-10.602612	0.584639	-0.880869	-3.742263	0.168344	0.014422	-0.105241	0.999810	0.002923	-0.004404	-0.018710	
37897	    0	18.522609	0.793179	-6.420759	-0.843104	-0.681160	-3.853865	0.185547	0.004089	-0.063599	0.999799	-0.004215	-0.003406	-0.019268	
37898	    0	18.465091	0.858479	-3.548673	-1.499858	-0.438531	-3.880593	0.184845	0.004735	-0.035127	0.999781	-0.007499	-0.002192	-0.019402	
37899	    0	17.856616	0.337525	-0.610934	-1.778546	-0.085265	-3.856186	0.178589	-0.000122	-0.006042	0.999774	-0.008892	-0.000426	-0.019279	
37900	    0	17.960593	-1.473965	2.225982	-1.977503	0.214021	-3.853718	0.179304	-0.017977	0.022235	0.999764	-0.009887	0.001070	-0.019267	
37901	    0	17.501067	-3.773622	3.892326	-2.090433	0.386079	-3.874522	0.174316	-0.040710	0.039001	0.999756	-0.010451	0.001930	-0.019371	
37902	    0	16.095172	-5.610777	4.236452	-1.890327	0.385695	-3.822619	0.159927	-0.058769	0.042603	0.999770	-0.009451	0.001928	-0.019112	
37903	    0	14.505845	-7.817789	2.961475	-1.567757	0.292989	-3.724925	0.143616	-0.080627	0.030029	0.999794	-0.007838	0.001465	-0.018623	
37904	    0	12.192110	-9.781314	3.054797	-1.455587	0.279634	-3.539493	0.120211	-0.099726	0.031100	0.999816	-0.007277	0.001398	-0.017696	
37905	    0	9.931072	-11.080794	2.102126	-1.364015	0.236523	-3.224348	0.097534	-0.112244	0.021667	0.999846	-0.006820	0.001183	-0.016121	
37906	    0	8.040612	-13.314367	0.626269	-1.545208	0.132948	-2.760049	0.078564	-0.134183	0.007244	0.999874	-0.007726	0.000665	-0.013800	
37907	    0	5.735336	-16.108581	-1.322506	-1.798880	0.028230	-2.164531	0.055603	-0.161804	-0.011780	0.999901	-0.008994	0.000141	-0.010822	
37908	    0	3.149285	-19.612217	-4.076733	-1.909112	-0.053407	-1.490439	0.030039	-0.196727	-0.038883	0.999927	-0.009545	-0.000267	-0.007452	
37909	    0	0.926818	-23.061319	-2.709909	-1.428811	0.026703	-0.835428	0.008301	-0.230835	-0.025452	0.999966	-0.007144	0.000134	-0.004177	
37910	    0	-0.841187	-24.795848	0.217751	-0.203514	0.135994	-0.260925	-0.008734	-0.247945	0.002436	0.999998	-0.001018	0.000680	-0.001305	
37911	    0	-2.180466	-24.159106	1.767666	0.951389	0.124550	0.256349	-0.021484	-0.241699	0.016541	0.999988	0.004757	0.000623	0.001282	
37912	    0	-1.979356	-20.743737	2.093040	1.597425	0.152971	0.702104	-0.019050	-0.207664	0.019287	0.999961	0.007987	0.000765	0.003510	
37913	    0	-0.929261	-15.444040	2.625559	1.849593	0.363167	1.144432	-0.008362	-0.154724	0.024841	0.999939	0.009248	0.001816	0.005722	
37914	    0	-0.106093	-11.760422	3.746038	1.854183	0.760480	1.534503	-0.000017	-0.117948	0.036369	0.999920	0.009271	0.003802	0.007672	
37915	    0	0.769365	-9.646801	4.068255	1.744897	1.053843	1.829586	0.008789	-0.096741	0.039795	0.999906	0.008724	0.005269	0.009148	
37916	    0	2.847212	-7.555216	3.827567	1.537756	1.151124	2.092623	0.029480	-0.075538	0.037527	0.999899	0.007689	0.005755	0.010463	
37917	    0	5.598761	-5.084349	4.035894	0.805880	1.274912	2.301098	0.056824	-0.050354	0.039795	0.999905	0.004029	0.006374	0.011505	
37918	    0	8.193338	-1.389588	4.312648	-0.277719	1.337475	2.378920	0.082376	-0.012858	0.042595	0.999906	-0.001389	0.006687	0.011894	
37919	    0	10.127509	2.376106	2.569687	-1.209872	1.155130	2.316363	0.101135	0.025085	0.024963	0.999897	-0.006049	0.005775	0.011581	
37920	    0	11.964905	4.027367	-1.738391	-1.653155	0.791195	2.187612	0.119129	0.041430	-0.018195	0.999898	-0.008265	0.003956	0.010938	
37921	    0	18.003608	3.472004	-6.548170	-1.099999	0.537888	2.316350	0.179443	0.036438	-0.066162	0.999914	-0.005500	0.002689	0.011581	
37922	    0	35.107893	0.823765	-11.770526	-0.228319	0.326742	3.090984	0.350704	0.013525	-0.118292	0.999878	-0.001142	0.001634	0.015454	
37923	    0	31.818566	-6.590500	-14.879564	0.680007	0.792737	3.466223	0.318665	-0.059875	-0.150269	0.999836	0.003400	0.003963	0.017330	
37924	    0	22.139166	-12.007869	-8.328055	1.583784	1.141820	3.627843	0.223029	-0.115372	-0.085477	0.999787	0.007918	0.005709	0.018138	
37925	    0	24.492085	-8.311743	-6.004212	2.084542	0.731154	4.137800	0.246338	-0.077393	-0.061768	0.999724	0.010422	0.003655	0.020687	
37926	    0	29.861319	-5.553253	-8.558845	2.309649	0.621095	4.275559	0.299426	-0.048137	-0.087102	0.999700	0.011547	0.003105	0.021376	
37927	    0	29.737310	-2.040936	-11.526078	1.709319	0.261710	4.152267	0.297546	-0.013245	-0.115784	0.999746	0.008546	0.001308	0.020760	
37928	    0	28.264323	3.868688	-11.471027	1.435788	-0.027850	4.364016	0.281713	0.045663	-0.114360	0.999736	0.007178	-0.000139	0.021818	
37929	    0	27.169667	8.930209	-11.377121	1.605589	0.016786	4.832981	0.269409	0.096741	-0.113037	0.999676	0.008027	0.000084	0.024162	
37930	    0	27.275422	10.941159	-11.035899	1.532547	0.193810	5.128711	0.269709	0.117197	-0.109743	0.999640	0.007662	0.000969	0.025640	
37931	    0	25.548421	10.469104	-9.081161	1.391199	0.270877	5.220668	0.252502	0.111938	-0.090393	0.999634	0.006955	0.001354	0.026100	
37932	    0	23.554465	7.626932	-8.039814	1.407211	0.164432	5.021856	0.233456	0.082713	-0.080024	0.999660	0.007035	0.000822	0.025106	
37933	    0	21.221675	5.330983	-8.073286	1.341379	0.030711	4.662780	0.210876	0.058777	-0.080383	0.999705	0.006706	0.000154	0.023312	
37934	    0	19.102794	5.350460	-6.244483	1.123135	-0.325801	4.178184	0.189951	0.057829	-0.061818	0.999764	0.005615	-0.001629	0.020889	
37935	    0	16.725924	6.841194	-3.811530	1.168135	-0.859697	3.633349	0.166138	0.071655	-0.036987	0.999808	0.005840	-0.004298	0.018166	
37936	    0	14.508080	9.108068	-2.418378	1.479994	-1.314999	3.063562	0.143813	0.093461	-0.022550	0.999833	0.007400	-0.006575	0.015317	
37937	    0	13.311329	11.894550	-1.799712	2.016745	-1.570974	2.443822	0.131775	0.120728	-0.015747	0.999844	0.010083	-0.007854	0.012218	
37938	    0	12.112604	12.892188	-1.867632	2.358932	-1.704680	1.760186	0.120129	0.130182	-0.016119	0.999855	0.011794	-0.008523	0.008801	
37939	    0	8.693658	12.652163	-1.656815	2.436358	-1.567143	1.278740	0.086243	0.127258	-0.014343	0.999874	0.012181	-0.007835	0.006393	
37940	    0	5.924446	11.945414	-2.213147	2.177487	-1.067571	0.716991	0.058928	0.119895	-0.020513	0.999920	0.010887	-0.005338	0.003585	
37941	    0	2.319761	13.422100	-2.251319	1.452651	-0.458340	0.171663	0.023132	0.134399	-0.021484	0.999970	0.007263	-0.002292	0.000858	
37942	    0	-1.072224	15.379594	-0.614301	0.638582	-0.242615	-0.121117	-0.010622	0.153821	-0.005665	0.999993	0.003193	-0.001213	-0.000606	
37943	    0	-2.696828	15.302413	-1.115132	-0.160790	-0.128174	-0.457001	-0.026611	0.153076	-0.011292	0.999996	-0.000804	-0.000641	-0.002285	
37944	    0	-3.098693	13.699852	0.386401	-0.591471	0.232697	-0.749591	-0.030469	0.137124	0.003494	0.999988	-0.002957	0.001163	-0.003748	
37945	    0	-2.751077	8.527243	5.595162	-0.353243	0.341989	-1.024633	-0.026978	0.085510	0.055847	0.999984	-0.001766	0.001710	-0.005123	
37946	    0	-1.649291	0.870673	9.682578	0.226976	0.040055	-1.352321	-0.016415	0.008708	0.096839	0.999976	0.001135	0.000200	-0.006762	
37947	    0	-1.520261	-3.460153	11.158889	0.226786	-0.493627	-1.555651	-0.015747	-0.034607	0.111511	0.999966	0.001134	-0.002468	-0.007778	
37948	    0	-1.814330	-6.536849	9.478235	-0.243192	-1.406125	-1.611741	-0.019335	-0.065101	0.094728	0.999942	-0.001216	-0.007030	-0.008059	
37949	    0	-0.202346	-10.825377	2.777151	-0.959813	-2.176556	-1.787633	-0.003296	-0.108093	0.028259	0.999888	-0.004799	-0.010882	-0.008938	
37950	    0	-0.520325	-10.157472	-5.898176	-1.479788	-2.417483	-1.685219	-0.005354	-0.101963	-0.058292	0.999864	-0.007399	-0.012087	-0.008426	
37951	    0	-0.308754	-7.439128	-8.860159	-1.314580	-1.672981	-1.390113	-0.002869	-0.074951	-0.088135	0.999919	-0.006573	-0.008365	-0.006950	
37952	    0	1.498666	-2.827804	-5.839638	-0.457004	-0.242044	-1.285945	0.014874	-0.028507	-0.058313	0.999975	-0.002285	-0.001210	-0.006430	
37953	    0	2.510179	-1.954875	-2.787459	-0.591855	0.614934	-1.154337	0.024902	-0.019775	-0.027893	0.999973	-0.002959	0.003075	-0.005772	
37954	    0	3.841749	-3.062765	-1.967308	-1.172270	0.592048	-1.031315	0.038200	-0.030940	-0.019606	0.999965	-0.005861	0.002960	-0.005157	
37955	    0	4.245974	-2.208844	-2.331832	-0.782782	0.398448	-1.039895	0.042297	-0.022400	-0.023315	0.999976	-0.003914	0.001992	-0.005199	
37956	    0	4.002097	0.525707	-2.279311	0.617414	0.793846	-1.080714	0.039958	0.005112	-0.022936	0.999972	0.003087	0.003969	-0.005404	
37957	    0	2.786618	6.632534	3.261945	1.310953	1.521339	-1.359591	0.028564	0.065918	0.032837	0.999926	0.006555	0.007607	-0.006798	
37958	    0	3.841566	10.252684	8.287168	-0.188640	1.170178	-1.597049	0.039717	0.102291	0.082545	0.999950	-0.000943	0.005851	-0.007985	
37959	    0	20.090155	5.220109	5.260330	-2.749549	-0.231943	-1.277210	0.201172	0.051636	0.052124	0.999884	-0.013747	-0.001160	-0.006386	
37960	    0	48.569368	-17.541879	-11.176114	-6.121826	-2.596196	0.795513	0.487744	-0.176663	-0.100042	0.999439	-0.030603	-0.012979	0.003977	
37961	    0	23.857856	-49.705094	-25.167246	-4.312631	-1.911956	2.327234	0.246704	-0.499451	-0.238586	0.999654	-0.021561	-0.009559	0.011635	
37962	    0	18.202184	-17.801230	-2.518888	2.205928	0.454538	1.891586	0.183632	-0.175985	-0.027554	0.999891	0.011029	0.002273	0.009458	
37963	    0	21.402158	14.406454	18.943838	1.992843	-0.504124	1.075769	0.212769	0.143311	0.191406	0.999932	0.009964	-0.002521	0.005379	
37964	    0	15.421652	30.673948	1.168831	1.675441	-0.987450	0.035287	0.154094	0.306650	0.015018	0.999952	0.008377	-0.004937	0.000176	
37965	    0	7.005934	31.934435	-2.851070	-0.640112	-1.006135	-0.794227	0.071472	0.318970	-0.029175	0.999974	-0.003201	-0.005031	-0.003971	
37966	    0	1.261098	20.281171	-11.147258	-3.161964	-0.070385	-1.249564	0.013910	0.200932	-0.114655	0.999855	-0.015809	-0.000352	-0.006248	
37967	    0	2.757487	12.968459	-7.099713	-4.582474	0.682135	-1.453542	0.028259	0.127808	-0.074036	0.999704	-0.022910	0.003410	-0.007267	
37968	    0	5.999181	10.640692	-6.790642	-4.217712	0.896533	-1.622343	0.060533	0.104450	-0.070394	0.999734	-0.021087	0.004482	-0.008111	
37969	    0	12.098653	5.071890	-8.160826	-2.741179	0.793494	-1.762473	0.121094	0.048523	-0.082764	0.999859	-0.013705	0.003967	-0.008812	
37970	    0	24.182073	-2.462443	-13.193986	-1.393159	0.421152	-1.838917	0.241297	-0.027765	-0.132262	0.999930	-0.006966	0.002106	-0.009194	
37971	    0	23.961090	-10.955338	-13.043659	-0.478944	0.475320	-1.940952	0.238220	-0.112183	-0.130737	0.999947	-0.002395	0.002377	-0.009705	
37972	    0	15.699629	-9.165275	-10.305587	0.176815	0.047685	-2.307753	0.155901	-0.093365	-0.103175	0.999932	0.000884	0.000238	-0.011539	
37973	    0	13.541472	-3.129308	-11.325966	1.554175	-0.605610	-2.768828	0.135315	-0.032288	-0.113098	0.999869	0.007771	-0.003028	-0.013844	
37974	    0	14.250563	-0.774591	-11.899442	1.867786	-1.042618	-3.103058	0.142992	-0.008855	-0.118329	0.999822	0.009338	-0.005213	-0.015514	
37975	    0	14.844915	0.084825	-11.905888	1.436900	-1.123120	-3.512803	0.149109	-0.000916	-0.118225	0.999804	0.007184	-0.005615	-0.017563	
37976	    0	16.911800	2.205651	-11.115119	-0.115783	-0.928936	-3.717459	0.170002	0.018838	-0.110374	0.999816	-0.000579	-0.004644	-0.018586	
37977	    0	18.213753	3.414259	-5.977513	-1.525034	-0.621077	-3.805815	0.182922	0.030212	-0.059448	0.999784	-0.007625	-0.003105	-0.019028	
37978	    0	18.778400	2.894566	-3.182055	-2.207364	-0.270484	-3.819777	0.188330	0.025001	-0.031857	0.999755	-0.011036	-0.001352	-0.019097	
37979	    0	18.459474	0.100614	0.186281	-2.481294	0.118457	-3.825710	0.184570	-0.002502	0.001770	0.999740	-0.012405	0.000592	-0.019127	
37980	    0	18.279171	-3.641838	2.668992	-2.504574	0.340874	-3.901451	0.182085	-0.039639	0.026862	0.999729	-0.012522	0.001704	-0.019506	
37981	    0	17.325376	-5.976130	4.267050	-2.224923	0.379404	-3.940921	0.172119	-0.062683	0.043030	0.999742	-0.011124	0.001897	-0.019703	
37982	    0	16.106644	-8.053452	4.988924	-1.827380	0.315881	-3.862676	0.159556	-0.083167	0.050388	0.999770	-0.009136	0.001579	-0.019312	
37983	    0	14.090581	-10.008039	3.039025	-1.354879	0.192273	-3.731783	0.139038	-0.102478	0.030945	0.999802	-0.006774	0.000961	-0.018658	
37984	    0	11.374566	-12.379705	1.624044	-1.391682	0.133331	-3.453645	0.111598	-0.125620	0.017035	0.999826	-0.006958	0.000667	-0.017267	
37985	    0	9.038230	-14.632913	1.510536	-1.689231	0.116163	-2.984766	0.088196	-0.147522	0.016296	0.999852	-0.008446	0.000581	-0.014923	
37986	    0	6.878553	-16.978313	0.532798	-1.968081	0.177772	-2.394582	0.066752	-0.170527	0.006944	0.999879	-0.009840	0.000889	-0.011972	
37987	    0	4.377016	-19.602808	-1.443433	-2.064386	0.205237	-1.734977	0.042053	-0.196533	-0.012451	0.999908	-0.010322	0.001026	-0.008675	
37988	    0	2.032237	-21.984314	-2.551832	-1.626613	0.163081	-1.066797	0.019129	-0.220145	-0.023745	0.999952	-0.008133	0.000815	-0.005334	
37989	    0	0.220851	-23.781716	-1.236678	-0.546075	0.149536	-0.463868	0.001648	-0.237854	-0.011719	0.999992	-0.002730	0.000748	-0.002319	
37990	    0	-0.892559	-24.181323	0.508913	0.676729	0.207901	0.071144	-0.008835	-0.241832	0.004280	0.999993	0.003384	0.001040	0.000356	
37991	    0	-1.068106	-21.134677	1.524628	1.617451	0.261882	0.502020	-0.010132	-0.211487	0.013550	0.999963	0.008087	0.001309	0.002510	
37992	    0	-0.235657	-16.644593	1.991802	2.143909	0.402650	0.845547	-0.001615	-0.166655	0.018136	0.999931	0.010719	0.002013	0.004228	
37993	    0	0.475951	-13.750823	3.175821	2.215830	0.745413	1.165042	0.005676	-0.137817	0.030212	0.999914	0.011079	0.003727	0.005825	
37994	    0	0.984222	-11.578145	4.333157	1.922473	1.105722	1.437038	0.010911	-0.116115	0.042158	0.999912	0.009612	0.005528	0.007185	
37995	    0	2.311463	-9.266377	4.115335	1.537559	1.319924	1.698353	0.024170	-0.092773	0.040283	0.999912	0.007688	0.006599	0.008492	
37996	    0	4.298508	-6.650486	3.636959	1.028090	1.394502	1.961001	0.043886	-0.066262	0.035725	0.999914	0.005140	0.006972	0.009805	
37997	    0	6.452495	-3.129709	3.736853	0.206762	1.452105	2.143157	0.065125	-0.030640	0.036865	0.999915	0.001034	0.007260	0.010715	
37998	    0	7.824322	0.209838	3.120737	-0.729775	1.491213	2.209161	0.078443	0.003077	0.030613	0.999904	-0.003649	0.007456	0.011045	
37999	    0	8.947877	2.618701	0.815636	-1.557026	1.258133	2.183613	0.089233	0.027222	0.007385	0.999889	-0.007785	0.006290	0.010918	
38000	    0	10.354499	2.691687	-3.521009	-1.603754	0.956187	2.172163	0.103076	0.027752	-0.035924	0.999897	-0.008018	0.004781	0.010860	
38001	    0	17.438901	1.659295	-8.166988	-0.668355	0.837923	2.430034	0.173828	0.018433	-0.082458	0.999911	-0.003342	0.004189	0.012150	
38002	    0	34.776054	-2.247310	-14.060231	0.397320	0.615149	3.301015	0.347631	-0.016454	-0.141708	0.999857	0.001987	0.003076	0.016504	
38003	    0	31.131557	-12.249411	-16.554609	1.675725	0.997996	3.635664	0.312622	-0.115417	-0.168091	0.999786	0.008378	0.004990	0.018177	
38004	    0	22.400676	-14.843966	-9.542313	2.225673	1.130958	3.616052	0.226078	-0.143281	-0.098311	0.999758	0.011127	0.005654	0.018079	
38005	    0	24.134641	-8.066675	-7.837899	2.621723	0.875370	4.058483	0.242554	-0.074707	-0.080444	0.999698	0.013107	0.004376	0.020290	
38006	    0	26.937506	-4.540715	-9.469327	2.803904	0.668595	4.087302	0.269890	-0.038553	-0.096168	0.999687	0.014018	0.003343	0.020434	
38007	    0	28.703875	-0.697043	-11.987866	2.296848	0.361666	4.066076	0.286865	0.000244	-0.120422	0.999725	0.011483	0.001808	0.020329	
38008	    0	27.070483	5.816135	-12.563444	1.787924	0.229666	4.363465	0.269190	0.065167	-0.125382	0.999721	0.008939	0.001148	0.021815	
38009	    0	25.783761	8.404456	-11.939950	1.609408	0.403640	4.872669	0.255432	0.091248	-0.119202	0.999668	0.008046	0.002018	0.024361	
38010	    0	24.970556	9.759955	-10.024771	1.716255	0.505320	5.164789	0.246807	0.104857	-0.099995	0.999626	0.008580	0.002526	0.025821	
38011	    0	23.831095	7.346685	-10.336451	1.787025	0.562547	5.113089	0.236023	0.080444	-0.103333	0.999629	0.008934	0.002812	0.025562	
38012	    0	22.094815	4.559536	-10.033492	1.215680	0.553189	4.828577	0.219474	0.051517	-0.100642	0.999686	0.006078	0.002766	0.024140	
38013	    0	19.863641	4.536167	-7.979846	0.772351	0.286889	4.426186	0.197449	0.050049	-0.079895	0.999746	0.003861	0.001434	0.022129	
38014	    0	17.946250	6.078409	-5.625232	0.620884	-0.138674	3.966980	0.178246	0.064502	-0.055932	0.999798	0.003104	-0.000693	0.019834	
38015	    0	15.980464	7.335881	-2.860259	0.731699	-0.546103	3.486059	0.158569	0.076233	-0.027893	0.999837	0.003658	-0.002730	0.017429	
38016	    0	14.239806	9.056982	-0.822051	1.062633	-0.928922	3.025005	0.141041	0.092750	-0.007074	0.999860	0.005313	-0.004644	0.015124	
38017	    0	13.342333	11.128702	-0.339217	1.548833	-1.226668	2.523149	0.132019	0.112976	-0.001709	0.999871	0.007744	-0.006133	0.012615	
38018	    0	12.724865	12.195803	0.313042	2.085199	-1.456892	1.827696	0.126094	0.123066	0.005331	0.999877	0.010426	-0.007284	0.009138	
38019	    0	10.366828	12.113769	-0.266634	2.204208	-1.506667	1.070441	0.103027	0.121704	-0.000549	0.999896	0.011021	-0.007533	0.005352	
38020	    0	6.870330	11.399588	-1.860316	1.621655	-1.128597	0.425155	0.068561	0.114285	-0.017290	0.999949	0.008108	-0.005643	0.002126	
38021	    0	3.850841	12.325559	-2.179302	0.533487	-0.527955	-0.113678	0.038635	0.123291	-0.021362	0.999992	0.002667	-0.002640	-0.000568	
38022	    0	-0.207531	15.233392	-1.518272	-0.194931	0.092316	-0.398827	-0.001779	0.152323	-0.015330	0.999997	-0.000975	0.000462	-0.001994	
38023	    0	-3.179658	18.500397	-1.797278	-0.993925	0.205232	-0.545505	-0.031311	0.184998	-0.018860	0.999983	-0.004970	0.001026	-0.002728	
38024	    0	-3.987441	16.486868	0.750480	-1.270879	0.252154	-0.827988	-0.039183	0.165075	0.006506	0.999970	-0.006354	0.001261	-0.004140	
38025	    0	-2.422146	8.020797	5.110272	-1.035131	0.286106	-1.312272	-0.023621	0.080627	0.050720	0.999964	-0.005176	0.001431	-0.006561	
38026	    0	-1.253844	0.143255	8.965936	-0.651179	-0.073625	-1.805142	-0.012556	0.001838	0.089649	0.999953	-0.003256	-0.000368	-0.009026	
38027	    0	-1.855243	-3.780352	10.444709	-0.251012	-0.662817	-2.067607	-0.019287	-0.037476	0.104431	0.999940	-0.001255	-0.003314	-0.010338	
38028	    0	-3.041006	-6.655682	8.202319	-0.695825	-1.859538	-2.065729	-0.031856	-0.065948	0.081962	0.999897	-0.003479	-0.009297	-0.010328	
38029	    0	-2.280764	-10.307370	-2.281748	-2.128575	-3.223669	-1.920468	-0.023438	-0.103088	-0.022095	0.999767	-0.010642	-0.016117	-0.009602	
38030	    0	-3.062351	-11.301226	-13.400910	-2.607990	-3.910840	-1.445725	-0.028839	-0.114539	-0.133098	0.999698	-0.013039	-0.019552	-0.007228	
38031	    0	0.395429	-9.739863	-17.049981	-0.840018	-1.936963	-1.345860	0.004944	-0.098145	-0.170044	0.999921	-0.004200	-0.009685	-0.006729	
38032	    0	2.677141	-2.487285	-6.454226	0.068856	0.658424	-1.426330	0.026381	-0.025040	-0.064638	0.999969	0.000344	0.003292	-0.007132	
38033	    0	4.260230	-0.533609	-0.356640	-0.045586	1.316089	-1.307697	0.042542	-0.005615	-0.003845	0.999956	-0.000228	0.006580	-0.006538	
38034	    0	5.548911	-0.822578	-0.370663	0.446135	1.343747	-1.210802	0.055411	-0.008553	-0.004098	0.999956	0.002231	0.006719	-0.006054	
38035	    0	4.375435	0.961415	0.895609	1.220732	1.580276	-1.292450	0.043884	0.009277	0.008667	0.999928	0.006104	0.007901	-0.006462	
38036	    0	3.388992	3.999740	7.177644	0.725191	1.729434	-1.486051	0.034804	0.039481	0.071622	0.999928	0.003626	0.008647	-0.007430	
38037	    0	13.218351	3.331002	8.807439	-1.203938	0.621996	-1.418327	0.132690	0.032898	0.087463	0.999951	-0.006020	0.003110	-0.007092	
38038	    0	49.895174	-11.302199	-5.799138	-4.015094	-1.637587	-0.230998	0.499260	-0.114677	-0.051613	0.999763	-0.020074	-0.008187	-0.001155	
38039	    0	29.382569	-37.121697	-14.277841	-4.273464	-1.655746	1.792326	0.298279	-0.371460	-0.132385	0.999697	-0.021365	-0.008278	0.008961	
38040	    0	17.904094	-22.294530	-3.768769	1.046006	-0.031853	1.590944	0.180812	-0.221311	-0.038819	0.999954	0.005230	-0.000159	0.007955	
38041	    0	20.416715	10.578989	15.565231	1.487941	0.004578	0.824747	0.203735	0.105469	0.156433	0.999964	0.007440	0.000023	0.004124	
38042	    0	16.231744	27.027309	5.804268	0.698284	-0.742534	-0.344660	0.162563	0.269787	0.059588	0.999985	0.003491	-0.003713	-0.001723	
38043	    0	8.060931	34.126621	-6.319604	-0.681120	-0.807960	-1.005563	0.082581	0.340637	-0.064026	0.999973	-0.003406	-0.004040	-0.005028	
38044	    0	1.283293	22.126841	-11.905948	-2.480588	0.182348	-1.287312	0.014140	0.219681	-0.121803	0.999902	-0.012403	0.000912	-0.006436	
38045	    0	3.134520	10.495454	-7.974974	-4.120795	0.918657	-1.596205	0.031799	0.103027	-0.082031	0.999744	-0.020602	0.004593	-0.007980	
