// Start Time: Unknown
// Update Rate: 100.0Hz
// Filter Profile: human (34.3)
// Firmware Version: 2.1.4
PacketCounter	SampleTimeFine	Acc_X	Acc_Y	Acc_Z	Gyr_X	Gyr_Y	Gyr_Z	VelInc_X	VelInc_Y	VelInc_Z	OriInc_q0	OriInc_q1	OriInc_q2	OriInc_q3	
48740	    0	5.393110	-7.915592	-3.283524	-2.217545	0.133709	-1.305998	0.053390	-0.079864	-0.031988	0.999916	-0.011087	0.000669	-0.006530	
48741	    0	5.344268	-7.220641	-3.647107	-2.788457	0.016785	-1.100200	0.053040	-0.072998	-0.035461	0.999887	-0.013942	0.000084	-0.005501	
48742	    0	6.642472	-7.318322	-3.796272	-2.756601	-0.420395	-0.991476	0.066137	-0.074024	-0.036807	0.999890	-0.013783	-0.002102	-0.004957	
48743	    0	8.507782	-9.882218	-4.592278	-2.039193	-0.689713	-0.916311	0.084778	-0.099670	-0.044617	0.999931	-0.010196	-0.003448	-0.004581	
48744	    0	8.471364	-12.369692	-6.299603	-1.238455	-0.737389	-0.757989	0.084473	-0.124403	-0.061915	0.999967	-0.006192	-0.003687	-0.003790	
48745	    0	8.071515	-12.181882	-8.158954	-0.402834	-0.716212	-0.520327	0.080688	-0.122192	-0.081055	0.999988	-0.002014	-0.003581	-0.002602	
48746	    0	8.216899	-9.989595	-8.383358	0.302506	-0.552751	-0.279236	0.082261	-0.099884	-0.083757	0.999993	0.001513	-0.002764	-0.001396	
48747	    0	8.193697	-6.806464	-6.115618	0.569154	-0.022697	-0.102234	0.081909	-0.067932	-0.061340	0.999995	0.002846	-0.000113	-0.000511	
48748	    0	7.542411	-3.710962	-3.033867	0.478936	0.537873	0.031853	0.075348	-0.037024	-0.030630	0.999993	0.002395	0.002689	0.000159	
48749	    0	6.712509	-1.543343	-1.156314	0.340463	0.931553	0.096894	0.067078	-0.015381	-0.011902	0.999987	0.001702	0.004658	0.000484	
48750	    0	5.760725	-0.051488	0.105848	0.151063	1.170356	0.117684	0.057612	-0.000482	0.000721	0.999982	0.000755	0.005852	0.000588	
48751	    0	4.724461	1.261120	0.971680	0.004005	1.343547	0.098420	0.047302	0.012634	0.009399	0.999977	0.000020	0.006718	0.000492	
48752	    0	3.788312	2.131242	1.727398	-0.052834	1.467909	0.043106	0.038004	0.021325	0.016990	0.999972	-0.000264	0.007339	0.000216	
48753	    0	3.059060	2.855679	2.264337	-0.100518	1.492323	-0.023651	0.030762	0.028564	0.022400	0.999971	-0.000503	0.007462	-0.000118	
48754	    0	2.258785	3.439189	2.835337	-0.245287	1.428998	-0.224688	0.022828	0.034401	0.028149	0.999972	-0.001226	0.007145	-0.001123	
48755	    0	1.622445	4.780263	3.252042	-0.560765	1.201068	-0.508885	0.016541	0.047852	0.032288	0.999974	-0.002804	0.006005	-0.002544	
48756	    0	0.696440	6.426385	3.685942	-0.962647	0.661856	-0.830276	0.007353	0.064410	0.036526	0.999974	-0.004813	0.003309	-0.004151	
48757	    0	0.944299	8.476993	2.820081	-1.317613	-0.147058	-1.096358	0.009888	0.084900	0.027649	0.999963	-0.006588	-0.000735	-0.005482	
48758	    0	2.482498	13.586476	1.620852	-2.150407	-0.500884	-1.422542	0.025753	0.135848	0.014812	0.999913	-0.010752	-0.002504	-0.007113	
48759	    0	4.571108	17.132771	0.002480	-3.336344	-0.612677	-1.711376	0.047180	0.170898	-0.002686	0.999819	-0.016681	-0.003063	-0.008556	
48760	    0	5.775858	2.784997	-9.551399	-5.263228	-1.196440	-1.044023	0.058467	0.025026	-0.095849	0.999621	-0.026313	-0.005981	-0.005219	
48761	    0	8.426022	-11.298509	-24.213502	-5.522278	-2.825427	-0.091567	0.087585	-0.119629	-0.237671	0.999518	-0.027607	-0.014125	-0.000458	
48762	    0	31.372335	-13.077237	-24.415624	-1.529715	0.814449	0.648508	0.313154	-0.131625	-0.244428	0.999957	-0.007648	0.004072	0.003242	
48763	    0	57.209186	-23.448036	-4.547451	-0.057222	2.580537	1.129188	0.572754	-0.231262	-0.052795	0.999900	-0.000286	0.012902	0.005646	
48764	    0	27.224735	-15.778735	12.768031	-0.013161	1.610583	-0.049401	0.273225	-0.157846	0.125493	0.999967	-0.000066	0.008053	-0.000247	
48765	    0	8.046839	-0.385490	10.617239	1.934868	0.263412	-1.671646	0.080566	-0.005554	0.106018	0.999917	0.009674	0.001317	-0.008358	
48766	    0	15.092209	18.041732	0.656299	0.977540	-0.763530	-2.092985	0.152770	0.178788	0.008020	0.999926	0.004888	-0.003818	-0.010465	
48767	    0	13.896546	15.475990	-6.838324	-0.337994	-1.619585	-2.320177	0.141296	0.153015	-0.067505	0.999898	-0.001690	-0.008098	-0.011600	
48768	    0	10.789514	8.979050	-16.710480	-2.025323	-0.931786	-2.627312	0.109827	0.086661	-0.167484	0.999851	-0.010126	-0.004659	-0.013136	
48769	    0	9.890682	9.222885	-13.381941	-2.413117	0.448633	-2.631520	0.099792	0.089294	-0.135132	0.999838	-0.012065	0.002243	-0.013157	
48770	    0	10.236459	2.312600	-8.143412	-2.100096	0.858732	-2.629794	0.102298	0.020921	-0.082101	0.999848	-0.010500	0.004293	-0.013148	
48771	    0	14.628025	-2.287851	-5.659661	-1.502856	0.562307	-2.523135	0.145813	-0.025146	-0.056824	0.999887	-0.007514	0.002811	-0.012615	
48772	    0	19.249083	-4.242050	-4.015302	-0.609606	0.348101	-2.540280	0.191860	-0.044983	-0.040353	0.999912	-0.003048	0.001740	-0.012701	
48773	    0	20.687224	-5.759600	-2.516482	0.265702	0.083163	-2.715386	0.206055	-0.060364	-0.025330	0.999907	0.001328	0.000416	-0.013577	
48774	    0	21.892347	-6.361786	-1.454379	0.642419	-0.152594	-2.938382	0.217969	-0.066778	-0.014588	0.999887	0.003212	-0.000763	-0.014691	
48775	    0	22.192131	-4.723657	-0.687844	0.525879	-0.211344	-3.218222	0.221130	-0.050781	-0.006775	0.999866	0.002629	-0.001057	-0.016090	
48776	    0	20.842478	-1.596238	-0.488334	0.137526	-0.174721	-3.363196	0.208121	-0.019461	-0.004714	0.999858	0.000688	-0.000874	-0.016815	
48777	    0	18.559538	-0.424038	0.788495	-0.136382	-0.048830	-3.396007	0.185486	-0.007385	0.007935	0.999855	-0.000682	-0.000244	-0.016979	
48778	    0	15.880876	-1.137406	0.284885	-0.453780	0.063136	-3.364915	0.158588	-0.014037	0.002829	0.999855	-0.002269	0.000316	-0.016824	
48779	    0	12.350011	-2.245513	-0.973944	-0.938459	0.223742	-3.203732	0.123108	-0.024475	-0.009766	0.999860	-0.004692	0.001119	-0.016018	
48780	    0	8.666231	-2.553798	-2.282915	-1.260430	0.414866	-2.927143	0.086227	-0.026946	-0.022841	0.999870	-0.006302	0.002074	-0.014635	
48781	    0	5.902381	-3.264637	-1.974850	-1.416834	0.478572	-2.669629	0.058533	-0.033569	-0.019653	0.999883	-0.007084	0.002393	-0.013348	
48782	    0	4.012736	-4.379173	-0.228203	-1.514296	0.443092	-2.389227	0.039596	-0.044283	-0.002036	0.999897	-0.007571	0.002215	-0.011946	
48783	    0	3.096583	-5.755501	0.898195	-1.480143	0.462545	-2.050075	0.030396	-0.057800	0.009338	0.999917	-0.007401	0.002313	-0.010250	
48784	    0	3.263834	-7.486415	1.767271	-1.365117	0.305945	-1.685939	0.032034	-0.075013	0.018135	0.999940	-0.006825	0.001530	-0.008430	
48785	    0	3.957832	-9.221089	2.514016	-1.357861	0.049592	-1.264209	0.039001	-0.092285	0.025757	0.999956	-0.006789	0.000248	-0.006321	
48786	    0	5.342936	-10.464841	2.639647	-1.204883	-0.064660	-0.788314	0.053008	-0.104696	0.027044	0.999973	-0.006024	-0.000323	-0.003942	
48787	    0	6.239898	-11.217415	1.180019	-0.701906	-0.041771	-0.359345	0.062195	-0.112244	0.012207	0.999991	-0.003510	-0.000209	-0.001797	
48788	    0	6.306743	-11.678883	-0.535334	-0.115395	0.055313	-0.044823	0.063040	-0.116806	-0.005303	0.999999	-0.000577	0.000277	-0.000224	
48789	    0	6.293642	-10.369873	-1.431462	0.269509	0.228882	0.131989	0.062988	-0.103638	-0.014526	0.999998	0.001348	0.001144	0.000660	
48790	    0	6.031669	-7.306794	-1.164547	0.474740	0.382806	0.170136	0.060356	-0.072989	-0.011934	0.999994	0.002374	0.001914	0.000851	
48791	    0	5.233094	-4.199807	-0.309443	0.660135	0.473787	0.214387	0.052368	-0.041931	-0.003357	0.999990	0.003301	0.002369	0.001072	
48792	    0	4.194084	-2.323835	0.438801	0.688746	0.533297	0.270654	0.041984	-0.023196	0.004196	0.999990	0.003444	0.002666	0.001353	
48793	    0	3.602531	-1.394968	0.802580	0.712588	0.569346	0.343324	0.036072	-0.013916	0.007874	0.999988	0.003563	0.002847	0.001717	
48794	    0	3.563474	-1.148215	0.769252	0.687221	0.593379	0.477411	0.035685	-0.011423	0.007547	0.999987	0.003436	0.002967	0.002387	
48795	    0	3.527841	-1.132723	0.782780	0.448801	0.634768	0.646212	0.035339	-0.011230	0.007690	0.999987	0.002244	0.003174	0.003231	
48796	    0	3.538517	-1.133020	0.826925	0.077820	0.658611	0.860791	0.035460	-0.011181	0.008148	0.999985	0.000389	0.003293	0.004304	
48797	    0	3.876479	-0.728985	0.505997	-0.197603	0.634960	1.055915	0.038818	-0.007080	0.004944	0.999980	-0.000988	0.003175	0.005280	
48798	    0	4.835010	-0.490317	-0.248721	-0.250437	0.619703	1.284611	0.048372	-0.004596	-0.002631	0.999973	-0.001252	0.003098	0.006423	
48799	    0	5.705647	-0.596936	-0.915376	-0.154115	0.662430	1.480119	0.057068	-0.005554	-0.009338	0.999967	-0.000771	0.003312	0.007401	
48800	    0	6.544898	-0.698538	-0.992235	-0.019837	0.653657	1.648352	0.065471	-0.006447	-0.010136	0.999960	-0.000099	0.003268	0.008242	
48801	    0	7.452768	-0.475858	-1.350110	0.120546	0.615129	1.773860	0.074524	-0.004089	-0.013733	0.999955	0.000603	0.003076	0.008869	
48802	    0	7.683454	-0.470147	-1.651583	0.182155	0.563250	1.923784	0.076828	-0.003947	-0.016736	0.999949	0.000911	0.002816	0.009619	
48803	    0	7.557840	-0.769310	-1.306535	0.197796	0.455483	2.071420	0.075623	-0.006897	-0.013245	0.999943	0.000989	0.002277	0.010357	
48804	    0	7.578823	-1.456803	-0.596666	0.191311	0.312812	2.180716	0.075932	-0.013735	-0.006099	0.999938	0.000957	0.001564	0.010903	
48805	    0	7.924386	-2.074541	-0.564460	0.225072	0.176434	2.273609	0.079468	-0.019836	-0.005737	0.999934	0.001125	0.000882	0.011368	
48806	    0	8.890080	-2.273950	-1.697302	0.361070	-0.008965	2.346666	0.089160	-0.021664	-0.017009	0.999929	0.001805	-0.000045	0.011733	
48807	    0	10.875906	-2.125957	-4.125809	0.643174	-0.340852	2.368988	0.109070	-0.019836	-0.041138	0.999923	0.003216	-0.001704	0.011845	
48808	    0	13.190697	-2.383055	-6.715545	1.033814	-0.911168	2.325510	0.132474	-0.021947	-0.066669	0.999908	0.005169	-0.004556	0.011627	
48809	    0	15.941673	-5.636274	-11.876923	1.491028	-1.262711	2.207264	0.160767	-0.053711	-0.118164	0.999891	0.007455	-0.006313	0.011036	
48810	    0	21.466295	-8.063707	-12.788089	1.601839	-0.656910	2.022231	0.215877	-0.077435	-0.127802	0.999911	0.008009	-0.003284	0.010111	
48811	    0	28.187503	-5.876645	-8.459450	1.701400	0.264938	1.858570	0.282288	-0.055420	-0.085449	0.999919	0.008507	0.001325	0.009293	
48812	    0	33.752080	-2.524732	-5.061628	2.094145	0.580234	1.713235	0.337568	-0.021817	-0.051836	0.999904	0.010470	0.002901	0.008566	
48813	    0	31.087410	2.102171	-5.629672	2.437876	-0.027467	1.821970	0.310669	0.024536	-0.055969	0.999884	0.012189	-0.000137	0.009109	
48814	    0	23.733519	5.401930	-6.863968	2.455457	-0.508716	2.482162	0.236806	0.057793	-0.067343	0.999844	0.012277	-0.002543	0.012410	
48815	    0	23.077687	6.600482	-7.746223	2.127397	-0.589788	3.141215	0.229919	0.070435	-0.076050	0.999815	0.010636	-0.002949	0.015705	
48816	    0	22.215723	8.055606	-7.232607	1.822410	-0.611730	3.657029	0.220845	0.085253	-0.070887	0.999786	0.009111	-0.003058	0.018284	
48817	    0	21.517088	9.235574	-5.948581	1.477162	-0.688032	3.921040	0.213501	0.096985	-0.058044	0.999774	0.007385	-0.003440	0.019604	
48818	    0	20.613596	8.675841	-4.503352	1.135331	-0.807245	3.798744	0.204614	0.090905	-0.043697	0.999795	0.005676	-0.004036	0.018992	
48819	    0	18.363627	7.335774	-3.115701	0.716630	-1.004084	3.425787	0.182495	0.076599	-0.029968	0.999834	0.003583	-0.005020	0.017128	
48820	    0	16.258856	5.846308	-2.456883	0.503943	-1.212552	2.876783	0.161869	0.060855	-0.023435	0.999874	0.002520	-0.006063	0.014383	
48821	    0	13.882316	3.884587	-1.860219	0.611896	-1.301423	2.259131	0.138489	0.040466	-0.017578	0.999909	0.003059	-0.006507	0.011295	
48822	    0	11.388379	2.153878	-0.428826	0.968955	-1.277189	1.666297	0.113723	0.022505	-0.003454	0.999932	0.004845	-0.006386	0.008331	
48823	    0	9.845912	2.011956	0.293282	1.473265	-1.176285	1.088736	0.098328	0.020630	0.003662	0.999940	0.007366	-0.005881	0.005444	
48824	    0	9.177286	3.502925	0.372654	1.997994	-1.056314	0.634589	0.091639	0.035277	0.004562	0.999930	0.009990	-0.005281	0.003173	
48825	    0	8.354120	5.934362	0.478893	2.379675	-1.018362	0.262459	0.083435	0.059387	0.005920	0.999915	0.011898	-0.005092	0.001312	
48826	    0	7.125614	7.620791	-1.194341	2.169850	-0.922415	-0.061227	0.071331	0.076307	-0.010787	0.999930	0.010849	-0.004612	-0.000306	
48827	    0	5.349534	9.341634	-2.957136	1.595326	-0.517851	-0.300602	0.053711	0.093567	-0.028687	0.999963	0.007977	-0.002589	-0.001503	
48828	    0	2.591291	10.616442	-2.371792	0.993924	0.046921	-0.389864	0.026114	0.106230	-0.023196	0.999986	0.004970	0.000235	-0.001949	
48829	    0	0.357020	12.233766	-1.849312	-0.193787	0.222206	-0.283814	0.003723	0.122314	-0.018616	0.999997	-0.000969	0.001111	-0.001419	
48830	    0	-0.483544	13.609631	-1.390637	-1.361859	0.406269	-0.172807	-0.004747	0.136002	-0.014823	0.999974	-0.006809	0.002031	-0.000864	
48831	    0	-0.270682	11.940610	-1.324420	-2.061312	0.636304	-0.110628	-0.002686	0.119263	-0.014465	0.999941	-0.010306	0.003181	-0.000553	
48832	    0	0.135247	8.040644	-0.994653	-2.700701	0.589771	-0.020982	0.001329	0.080262	-0.011035	0.999904	-0.013503	0.002949	-0.000105	
48833	    0	0.848205	3.993324	-0.505013	-2.780242	0.251969	-0.043489	0.008484	0.039856	-0.005615	0.999902	-0.013901	0.001260	-0.000217	
48834	    0	1.705561	-0.437126	1.280981	-1.817157	-0.346189	-0.211337	0.017029	-0.004272	0.012878	0.999956	-0.009086	-0.001731	-0.001057	
48835	    0	2.623680	-5.597891	-0.011470	-1.196875	-1.113905	-0.402074	0.026123	-0.056030	0.000366	0.999964	-0.005984	-0.005569	-0.002010	
48836	    0	3.262807	-8.997187	-3.864910	-1.246857	-1.599914	-0.593387	0.032665	-0.090306	-0.037826	0.999944	-0.006234	-0.007999	-0.002967	
48837	    0	3.956175	-8.057727	-6.618878	-1.413756	-1.554712	-0.683608	0.039795	-0.081177	-0.065308	0.999938	-0.007069	-0.007773	-0.003418	
48838	    0	5.336238	-6.135591	-6.635036	-1.250855	-1.039900	-0.675973	0.053496	-0.061949	-0.065686	0.999961	-0.006254	-0.005199	-0.003380	
48839	    0	7.543092	-6.448504	-4.498892	-0.436212	-0.127411	-0.627901	0.075256	-0.064819	-0.044800	0.999992	-0.002181	-0.000637	-0.003139	
48840	    0	9.326811	-9.082143	-2.390176	0.585750	0.721363	-0.509264	0.092949	-0.090987	-0.024504	0.999986	0.002929	0.003607	-0.002546	
48841	    0	9.588819	-11.913369	-2.040834	1.099405	0.879867	-0.257113	0.095642	-0.119141	-0.021484	0.999974	0.005497	0.004399	-0.001286	
48842	    0	9.148536	-12.339701	-2.249806	1.184853	0.546650	-0.013924	0.091413	-0.123266	-0.023479	0.999978	0.005924	0.002733	-0.000070	
48843	    0	8.579202	-10.249537	-2.225949	1.316081	0.322154	0.117494	0.085815	-0.102295	-0.023071	0.999976	0.006580	0.001611	0.000587	
48844	    0	7.668455	-6.901671	-1.545415	1.448264	0.442509	0.128175	0.076694	-0.068852	-0.016123	0.999970	0.007241	0.002213	0.000641	
48845	    0	6.457589	-3.494200	-0.635411	1.513689	0.674637	0.125124	0.064575	-0.034851	-0.006836	0.999965	0.007568	0.003373	0.000626	
48846	    0	5.014363	-0.917071	0.127580	1.336111	0.755508	0.129129	0.050154	-0.009146	0.001025	0.999969	0.006680	0.003778	0.000646	
48847	    0	3.746988	0.951727	0.337239	1.002699	0.662998	0.111390	0.037476	0.009521	0.003296	0.999981	0.005013	0.003315	0.000557	
48848	    0	2.831397	2.581219	-0.250026	0.477029	0.531388	0.024796	0.028304	0.025822	-0.002514	0.999993	0.002385	0.002657	0.000124	
48849	    0	2.177597	4.291951	-0.304468	-0.118256	0.392342	-0.091553	0.021790	0.042908	-0.003113	0.999997	-0.000591	0.001962	-0.000458	
48850	    0	1.579575	5.674467	1.390887	-0.517083	0.284386	-0.246621	0.015885	0.056761	0.013740	0.999994	-0.002585	0.001422	-0.001233	
48851	    0	0.770243	6.968303	3.147114	-0.630953	0.029183	-0.477601	0.007874	0.069763	0.031250	0.999991	-0.003155	0.000146	-0.002388	
48852	    0	0.670526	8.298860	3.588306	-0.217248	-0.316239	-0.793841	0.006978	0.083000	0.035804	0.999990	-0.001086	-0.001581	-0.003969	
48853	    0	1.808917	10.716253	4.400216	0.314333	-0.206567	-1.068884	0.018616	0.106995	0.044189	0.999984	0.001572	-0.001033	-0.005344	
48854	    0	3.560489	10.381838	3.071470	-0.637822	0.131227	-1.203546	0.036249	0.103699	0.030360	0.999976	-0.003189	0.000656	-0.006018	
48855	    0	4.092501	-4.162531	-8.392786	-3.561436	-1.365748	-0.808004	0.041321	-0.043274	-0.082886	0.999809	-0.017806	-0.006828	-0.004040	
48856	    0	12.371492	-12.876379	-23.568827	-2.790217	-2.167435	-0.427269	0.125966	-0.132290	-0.232502	0.999842	-0.013950	-0.010837	-0.002136	
48857	    0	38.966313	-11.733933	-9.787340	1.398685	1.570922	0.281530	0.389038	-0.116089	-0.101746	0.999943	0.006993	0.007854	0.001408	
48858	    0	59.194821	-5.637976	-5.726978	0.818829	0.486949	0.636295	0.591981	-0.054257	-0.058936	0.999983	0.004094	0.002435	0.003181	
48859	    0	13.422450	6.511818	9.376158	2.008286	0.431069	-0.674452	0.134644	0.063721	0.094116	0.999941	0.010041	0.002155	-0.003372	
48860	    0	9.910085	10.641800	0.253235	1.102469	-0.786034	-1.683649	0.099979	0.105561	0.003508	0.999941	0.005512	-0.003930	-0.008418	
48861	    0	15.960661	18.911294	-3.513616	-0.896484	-1.473858	-2.261429	0.161987	0.187134	-0.034790	0.999898	-0.004482	-0.007369	-0.011307	
48862	    0	14.903293	15.136811	-12.129421	-1.734061	-1.262540	-2.809099	0.151896	0.148194	-0.121635	0.999844	-0.008670	-0.006312	-0.014045	
48863	    0	13.559506	14.161421	-12.190234	-2.811625	-0.204291	-2.926074	0.137756	0.137878	-0.123718	0.999793	-0.014057	-0.001021	-0.014629	
48864	    0	12.374441	10.082966	-9.363163	-2.400737	0.405718	-2.977173	0.125024	0.097839	-0.095071	0.999815	-0.012003	0.002028	-0.014885	
48865	    0	14.940961	2.013831	-5.316944	-1.702195	0.269521	-2.816137	0.149597	0.017578	-0.053528	0.999864	-0.008511	0.001348	-0.014080	
48866	    0	20.944732	-2.143675	-4.187471	-0.674842	-0.072863	-2.714627	0.209145	-0.024418	-0.041719	0.999902	-0.003374	-0.000364	-0.013573	
48867	    0	23.962853	-4.961776	-3.787193	-0.006104	-0.279054	-2.809236	0.238953	-0.052979	-0.037537	0.999900	-0.000031	-0.001395	-0.014046	
48868	    0	24.380503	-5.681811	-3.403601	-0.049784	-0.514242	-3.085453	0.242976	-0.060579	-0.033396	0.999877	-0.000249	-0.002571	-0.015427	
48869	    0	24.572397	-4.445792	-3.034413	-0.317208	-0.544003	-3.425771	0.244995	-0.048706	-0.029602	0.999847	-0.001586	-0.002720	-0.017128	
48870	    0	23.524045	-3.409177	-1.803898	-0.926643	-0.555451	-3.531466	0.234637	-0.038320	-0.017216	0.999829	-0.004633	-0.002777	-0.017656	
48871	    0	20.259720	-3.542664	-1.016743	-1.353344	-0.506622	-3.471579	0.201965	-0.039001	-0.009399	0.999823	-0.006766	-0.002533	-0.017357	
48872	    0	15.831849	-3.385866	-2.183559	-1.538171	-0.266090	-3.290740	0.157760	-0.036623	-0.021351	0.999834	-0.007690	-0.001330	-0.016453	
48873	    0	11.294864	-3.351610	-2.420711	-1.929382	0.096135	-2.935179	0.112427	-0.035400	-0.023926	0.999846	-0.009646	0.000481	-0.014675	
48874	    0	7.521461	-4.411618	-2.029064	-2.486931	0.209819	-2.519549	0.074628	-0.045307	-0.019811	0.999843	-0.012434	0.001049	-0.012597	
48875	    0	4.058593	-6.098067	-2.001924	-3.099052	0.185405	-2.118045	0.039917	-0.061707	-0.019104	0.999823	-0.015494	0.000927	-0.010590	
48876	    0	2.409906	-6.677695	-1.790661	-3.302003	0.251785	-1.728158	0.023498	-0.067266	-0.016829	0.999825	-0.016509	0.001259	-0.008640	
48877	    0	2.375091	-7.074276	-0.986144	-3.070977	0.145156	-1.380986	0.023254	-0.071045	-0.008789	0.999858	-0.015354	0.000726	-0.006905	
48878	    0	3.369779	-9.076148	-0.889437	-2.555546	-0.176626	-0.994523	0.033253	-0.091031	-0.007703	0.999906	-0.012777	-0.000883	-0.004972	
48879	    0	4.568165	-11.386202	-1.470512	-1.894983	-0.328833	-0.623332	0.045349	-0.114136	-0.013550	0.999949	-0.009475	-0.001644	-0.003117	
48880	    0	5.855509	-13.263904	-2.035237	-1.228531	-0.126649	-0.272371	0.058387	-0.132840	-0.019500	0.999980	-0.006143	-0.000633	-0.001362	
48881	    0	6.754028	-13.670690	-1.752950	-0.756075	0.229073	-0.022888	0.067505	-0.136780	-0.017090	0.999991	-0.003780	0.001145	-0.000114	
48882	    0	7.210261	-13.090379	-0.614273	-0.352860	0.449372	0.147629	0.072186	-0.130861	-0.006074	0.999995	-0.001764	0.002247	0.000738	
48883	    0	7.405751	-11.466694	0.035244	0.206757	0.466347	0.280762	0.074219	-0.114563	0.000061	0.999995	0.001034	0.002332	0.001404	
48884	    0	7.281931	-8.815081	0.306176	0.829700	0.437738	0.359918	0.072984	-0.088031	0.002537	0.999987	0.004148	0.002189	0.001800	
48885	    0	6.778586	-5.990638	0.859426	1.270305	0.464062	0.424961	0.067932	-0.059814	0.008057	0.999974	0.006351	0.002320	0.002125	
48886	    0	5.706070	-3.396448	1.253639	1.307690	0.506596	0.482754	0.057174	-0.033907	0.012170	0.999972	0.006538	0.002533	0.002414	
48887	    0	4.434590	-1.523641	1.637787	1.029975	0.564007	0.550846	0.044434	-0.015198	0.016174	0.999978	0.005150	0.002820	0.002754	
48888	    0	3.869278	-0.376679	1.784262	0.754361	0.598911	0.713925	0.038759	-0.003695	0.017713	0.999982	0.003772	0.002995	0.003570	
48889	    0	3.970102	0.331929	1.477454	0.424960	0.671582	0.961310	0.039734	0.003479	0.014648	0.999980	0.002125	0.003358	0.004807	
48890	    0	4.315350	0.309179	1.105274	0.057984	0.736243	1.225482	0.043174	0.003353	0.010895	0.999974	0.000290	0.003681	0.006127	
48891	    0	4.826427	-0.059801	0.329355	-0.250819	0.750741	1.449601	0.048279	-0.000244	0.003113	0.999966	-0.001254	0.003754	0.007248	
48892	    0	5.578211	-0.606045	-0.490032	-0.423056	0.715838	1.623558	0.055811	-0.005618	-0.005088	0.999958	-0.002115	0.003579	0.008118	
48893	    0	6.446429	-0.952113	-0.933019	-0.384337	0.647745	1.758602	0.064514	-0.008972	-0.009521	0.999954	-0.001922	0.003239	0.008793	
48894	    0	7.030255	-1.220549	-1.136113	-0.217632	0.570497	1.842146	0.070378	-0.011570	-0.011549	0.999952	-0.001088	0.002852	0.009211	
48895	    0	7.555812	-1.037413	-1.170318	-0.013733	0.527391	1.934847	0.075623	-0.009644	-0.011902	0.999949	-0.000069	0.002637	0.009674	
48896	    0	8.011099	-0.752603	-1.231037	0.232129	0.497828	2.083628	0.080153	-0.006677	-0.012518	0.999942	0.001161	0.002489	0.010418	
48897	    0	8.381166	-1.250901	-1.053832	0.387582	0.431261	2.271323	0.083923	-0.011536	-0.010742	0.999930	0.001938	0.002156	0.011356	
48898	    0	8.397298	-2.088018	-0.833547	0.554672	0.342187	2.430026	0.084204	-0.019835	-0.008535	0.999921	0.002773	0.001711	0.012150	
48899	    0	8.128516	-3.096087	-0.418489	0.694295	0.256546	2.547530	0.081665	-0.029907	-0.004395	0.999911	0.003471	0.001283	0.012737	
48900	    0	8.035904	-4.044995	-0.224589	0.690291	0.180059	2.619061	0.080877	-0.039385	-0.002456	0.999907	0.003451	0.000900	0.013095	
48901	    0	8.362724	-4.118275	-0.426089	0.693725	0.129704	2.687159	0.084167	-0.040039	-0.004456	0.999903	0.003469	0.000648	0.013435	
48902	    0	9.351018	-3.424751	-1.891774	0.844031	0.021935	2.738474	0.093965	-0.032883	-0.019069	0.999897	0.004220	0.000110	0.013692	
48903	    0	11.284105	-2.419290	-5.410758	0.958476	-0.248727	2.712344	0.113220	-0.022400	-0.054077	0.999895	0.004792	-0.001244	0.013561	
48904	    0	13.481396	-3.030753	-9.171764	1.009214	-0.774411	2.634333	0.135548	-0.028064	-0.091339	0.999892	0.005046	-0.003872	0.013171	
48905	    0	16.108023	-6.416596	-14.643908	1.234674	-1.170394	2.523138	0.162720	-0.061218	-0.145874	0.999884	0.006173	-0.005852	0.012615	
48906	    0	20.026576	-7.844845	-17.497011	1.644766	-0.742176	2.322471	0.201797	-0.074673	-0.174848	0.999891	0.008224	-0.003711	0.011612	
48907	    0	25.998338	-6.217074	-13.363020	2.617016	0.419829	2.287409	0.260376	-0.057434	-0.134949	0.999846	0.013084	0.002099	0.011436	
48908	    0	32.381561	-3.119766	-8.125497	3.120424	0.828603	2.098404	0.323769	-0.026514	-0.083035	0.999814	0.015601	0.004143	0.010491	
48909	    0	32.306722	2.615752	-7.682320	2.784869	0.187883	2.076826	0.322693	0.030579	-0.076721	0.999848	0.013924	0.000939	0.010384	
48910	    0	26.351773	6.476096	-8.757678	2.454892	-0.505094	2.619315	0.262849	0.069269	-0.086081	0.999835	0.012274	-0.002525	0.013096	
48911	    0	24.207966	7.239225	-10.056566	2.092875	-0.793316	3.177843	0.241272	0.077271	-0.098816	0.999810	0.010464	-0.003966	0.015888	
48912	    0	23.109091	9.003137	-10.013320	1.681635	-0.837575	3.613913	0.229818	0.095024	-0.098384	0.999792	0.008408	-0.004188	0.018068	
48913	    0	21.822814	10.047699	-7.832620	1.278963	-0.924745	3.692112	0.216675	0.104980	-0.076660	0.999798	0.006394	-0.004623	0.018459	
48914	    0	19.518812	9.034001	-5.234997	0.902033	-1.083241	3.287109	0.193944	0.093766	-0.050879	0.999840	0.004510	-0.005416	0.016435	
48915	    0	16.475580	7.475785	-3.219246	0.476092	-1.298381	2.671915	0.163940	0.077026	-0.030945	0.999887	0.002380	-0.006492	0.013359	
48916	    0	13.357668	5.843798	-1.715432	0.323304	-1.511424	2.013070	0.133103	0.059806	-0.016051	0.999919	0.001616	-0.007557	0.010065	
48917	    0	10.544038	3.697693	-0.591472	0.887508	-1.528199	1.366453	0.105225	0.037720	-0.004944	0.999937	0.004437	-0.007641	0.006832	
48918	    0	8.280778	2.033446	0.911157	1.842734	-1.314004	0.792141	0.082664	0.020574	0.009844	0.999928	0.009213	-0.006570	0.003961	
48919	    0	7.290465	1.806290	1.215327	2.483444	-1.041253	0.270089	0.072815	0.018005	0.012756	0.999907	0.012417	-0.005206	0.001350	
48920	    0	6.993097	3.509369	1.828604	2.612006	-0.861958	-0.169378	0.069880	0.034789	0.019043	0.999905	0.013060	-0.004310	-0.000847	
48921	    0	6.281114	6.547787	1.524498	2.391879	-0.668162	-0.518813	0.062927	0.065125	0.016235	0.999919	0.011959	-0.003341	-0.002594	
48922	    0	4.262974	9.895181	0.212288	1.633858	-0.455481	-0.708209	0.042974	0.098778	0.003028	0.999957	0.008169	-0.002277	-0.003541	
48923	    0	2.425789	13.021790	-0.393305	0.370790	-0.240899	-0.795749	0.024780	0.130127	-0.003662	0.999990	0.001854	-0.001204	-0.003979	
48924	    0	1.628834	14.029239	0.437478	-0.507357	0.048256	-0.870899	0.016900	0.140230	0.004015	0.999987	-0.002537	0.000241	-0.004354	
48925	    0	1.553036	12.940583	-0.066096	-1.293959	0.352672	-0.810250	0.016052	0.129333	-0.001526	0.999969	-0.006470	0.001763	-0.004051	
48926	    0	2.138461	10.153782	0.295979	-1.647974	0.578317	-0.718700	0.021756	0.101480	0.002061	0.999955	-0.008240	0.002892	-0.003593	
48927	    0	3.295968	5.175130	1.977912	-1.307501	0.559241	-0.730141	0.033203	0.051758	0.019348	0.999968	-0.006537	0.002796	-0.003651	
48928	    0	4.152533	-0.540467	2.296986	-0.837141	0.319674	-0.870138	0.041538	-0.005489	0.022926	0.999980	-0.004186	0.001598	-0.004351	
48929	    0	4.277802	-5.337819	0.706947	-0.780493	0.071145	-1.121530	0.042480	-0.053589	0.007263	0.999976	-0.003902	0.000356	-0.005608	
48930	    0	4.127715	-6.938783	-1.531033	-1.217477	-0.119211	-1.297396	0.040834	-0.069745	-0.014862	0.999960	-0.006087	-0.000596	-0.006487	
48931	    0	4.417990	-5.505118	-3.258902	-1.695284	-0.344665	-1.267267	0.043884	-0.055603	-0.032043	0.999942	-0.008476	-0.001723	-0.006336	
48932	    0	5.025202	-4.317972	-3.702665	-2.201903	-0.629251	-1.122505	0.050122	-0.043864	-0.036388	0.999918	-0.011009	-0.003146	-0.005612	
48933	    0	6.259118	-4.829670	-3.681420	-2.297848	-0.777457	-0.952175	0.062500	-0.049011	-0.036011	0.999914	-0.011489	-0.003887	-0.004761	
48934	    0	7.857845	-7.378896	-3.845914	-1.600288	-0.483329	-0.798428	0.078374	-0.074406	-0.037676	0.999957	-0.008001	-0.002417	-0.003992	
48935	    0	8.394367	-10.712799	-4.621643	-0.668910	-0.047302	-0.626375	0.083618	-0.107544	-0.045837	0.999989	-0.003345	-0.000237	-0.003132	
48936	    0	8.150300	-12.202572	-5.706798	-0.131416	0.058746	-0.392723	0.081246	-0.122223	-0.057012	0.999997	-0.000657	0.000294	-0.001964	
48937	    0	8.091072	-11.048771	-5.873487	0.259590	0.051117	-0.154114	0.080811	-0.110474	-0.058899	0.999998	0.001298	0.000256	-0.000771	
48938	    0	7.660403	-8.545066	-4.064853	0.627710	0.214196	0.017357	0.076568	-0.085316	-0.040998	0.999992	0.003139	0.001071	0.000087	
48939	    0	6.929237	-5.934494	-1.285399	0.863651	0.564768	0.066376	0.069275	-0.059265	-0.013306	0.999986	0.004318	0.002824	0.000332	
48940	    0	6.105699	-3.735473	0.610581	0.927931	0.851446	0.107957	0.061102	-0.037349	0.005672	0.999980	0.004640	0.004257	0.000540	
48941	    0	5.138608	-1.739017	1.130255	0.734906	0.981146	0.139619	0.051453	-0.017395	0.010986	0.999981	0.003675	0.004906	0.000698	
48942	    0	4.177119	-0.077283	1.106003	0.454905	0.982862	0.111390	0.041825	-0.000774	0.010853	0.999985	0.002275	0.004914	0.000557	
48943	    0	3.548084	1.459243	0.930785	0.215150	0.947765	0.027466	0.035522	0.014587	0.009155	0.999988	0.001076	0.004739	0.000137	
48944	    0	3.172325	3.218374	0.949566	-0.096321	0.970844	-0.077057	0.031781	0.032176	0.009326	0.999988	-0.000482	0.004854	-0.000385	
48945	    0	2.671715	5.255201	1.363937	-0.499728	1.054579	-0.256349	0.026855	0.052551	0.013367	0.999982	-0.002499	0.005273	-0.001282	
48946	    0	1.625451	7.339675	1.917631	-0.825125	0.988777	-0.474934	0.016522	0.073436	0.018792	0.999976	-0.004126	0.004944	-0.002375	
48947	    0	0.383817	9.345001	2.780650	-0.962837	0.605206	-0.750738	0.004272	0.093567	0.027344	0.999976	-0.004814	0.003026	-0.003754	
48948	    0	0.949738	10.257699	2.659287	-1.124202	0.012779	-0.974664	0.009999	0.102676	0.026015	0.999971	-0.005621	0.000064	-0.004873	
48949	    0	2.347678	4.004597	-1.082689	-2.620593	-0.490586	-0.890380	0.023682	0.039795	-0.011292	0.999901	-0.013103	-0.002453	-0.004452	
48950	    0	3.201199	-6.195687	-15.170544	-4.549012	-2.861946	-0.732702	0.033929	-0.065500	-0.149766	0.999632	-0.022742	-0.014308	-0.003663	
48951	    0	13.137745	-0.681745	-27.035103	-2.037900	-2.279571	-1.038406	0.134399	-0.010254	-0.268738	0.999869	-0.010189	-0.011397	-0.005192	
48952	    0	32.672287	-11.651542	-13.728936	-0.474747	1.669338	-0.905624	0.325030	-0.118320	-0.139728	0.999951	-0.002374	0.008347	-0.004528	
48953	    0	59.333281	-13.386116	2.340667	1.036853	1.792368	0.181583	0.593628	-0.133423	0.017395	0.999946	0.005184	0.008962	0.000908	
48954	    0	16.310886	-7.703396	9.046323	3.339360	0.605613	-0.568418	0.163157	-0.078988	0.088661	0.999851	0.016696	0.003028	-0.002842	
48955	    0	8.735042	10.976634	-0.509591	3.265008	-0.730178	-1.857871	0.088379	0.109009	-0.002991	0.999817	0.016324	-0.003651	-0.009289	
48956	    0	13.815947	21.707183	-1.756695	0.491923	-1.429037	-2.532860	0.141012	0.215339	-0.016035	0.999890	0.002460	-0.007145	-0.012664	
48957	    0	13.793457	18.155553	-10.432964	-1.065122	-1.741696	-3.002332	0.141541	0.178894	-0.104065	0.999835	-0.005325	-0.008708	-0.015011	
48958	    0	12.548253	15.517794	-12.735063	-2.074355	-0.391982	-2.941674	0.127985	0.151978	-0.128689	0.999836	-0.010371	-0.001960	-0.014708	
48959	    0	14.046076	6.029023	-6.045496	-2.020359	0.416012	-2.658969	0.141113	0.057800	-0.061340	0.999858	-0.010101	0.002080	-0.013294	
48960	    0	16.177624	0.503243	-2.673313	-1.421598	0.261698	-2.551742	0.161786	0.002777	-0.026970	0.999892	-0.007108	0.001308	-0.012758	
48961	    0	19.136751	-1.537428	-1.275938	-0.861384	-0.118068	-2.503278	0.191162	-0.017822	-0.012573	0.999911	-0.004307	-0.000590	-0.012516	
48962	    0	21.355194	-1.904597	-1.739238	-0.541322	-0.366222	-2.658546	0.213305	-0.021929	-0.016945	0.999906	-0.002707	-0.001831	-0.013292	
48963	    0	21.580481	-1.610379	-1.817867	-0.709369	-0.327313	-2.836711	0.215576	-0.019226	-0.017761	0.999891	-0.003547	-0.001637	-0.014183	
48964	    0	22.384717	-1.122774	-1.361195	-1.062625	-0.152975	-2.866094	0.223665	-0.014505	-0.013370	0.999883	-0.005313	-0.000765	-0.014330	
48965	    0	23.227735	-0.505573	-1.105039	-1.601482	-0.109678	-2.877175	0.232178	-0.008484	-0.010864	0.999864	-0.008007	-0.000548	-0.014385	
48966	    0	21.860494	-1.906670	-0.698500	-2.226948	-0.111204	-2.793842	0.218313	-0.022193	-0.006628	0.999840	-0.011134	-0.000556	-0.013968	
48967	    0	18.262510	-3.989758	-0.822728	-2.413117	0.095373	-2.662039	0.182068	-0.042419	-0.007812	0.999838	-0.012065	0.000477	-0.013309	
48968	    0	13.681184	-4.883323	-1.379054	-2.303232	0.374621	-2.431412	0.136178	-0.050648	-0.013470	0.999858	-0.011516	0.001873	-0.012156	
48969	    0	9.299517	-5.196440	-0.674522	-2.311616	0.588252	-2.159212	0.092407	-0.053040	-0.006409	0.999870	-0.011558	0.002941	-0.010796	
48970	    0	5.997868	-4.787465	0.021272	-2.343460	0.542853	-1.887967	0.059525	-0.048432	0.000616	0.999883	-0.011717	0.002714	-0.009439	
48971	    0	3.210206	-4.845727	-1.492126	-2.356611	0.360883	-1.635036	0.031677	-0.048889	-0.014404	0.999895	-0.011783	0.001804	-0.008175	
48972	    0	1.306299	-5.762834	-1.851519	-2.314450	0.375950	-1.447533	0.012610	-0.057930	-0.017870	0.999905	-0.011572	0.001880	-0.007237	
48973	    0	1.401150	-6.812795	-0.819253	-2.062850	0.272376	-1.322208	0.013550	-0.068298	-0.007507	0.999924	-0.010314	0.001362	-0.006611	
48974	    0	2.795584	-8.009279	0.035482	-1.692039	-0.037957	-1.171705	0.027486	-0.080248	0.001039	0.999947	-0.008460	-0.000190	-0.005858	
48975	    0	4.183264	-8.773516	0.378672	-1.276411	-0.227168	-0.876626	0.041443	-0.087891	0.004395	0.999969	-0.006382	-0.001136	-0.004383	
48976	    0	5.522643	-8.753370	0.125023	-0.738528	-0.175667	-0.571825	0.054975	-0.087686	0.001622	0.999989	-0.003693	-0.000878	-0.002859	
48977	    0	6.276303	-8.362696	-0.880199	-0.217438	0.054359	-0.331116	0.062622	-0.083740	-0.008728	0.999997	-0.001087	0.000272	-0.001656	
48978	    0	6.561166	-8.057589	-1.922854	0.113869	0.280190	-0.150108	0.065524	-0.080614	-0.019366	0.999998	0.000569	0.001401	-0.000751	
48979	    0	6.469903	-6.978462	-2.103938	0.304413	0.481606	-0.033569	0.064636	-0.069763	-0.021301	0.999995	0.001522	0.002408	-0.000168	
48980	    0	6.152352	-5.041389	-1.358945	0.494767	0.588419	0.009346	0.061485	-0.050377	-0.013895	0.999992	0.002474	0.002942	0.000047	
48981	    0	5.744790	-3.371823	-0.562891	0.710490	0.598147	0.021362	0.057434	-0.033691	-0.005920	0.999989	0.003552	0.002991	0.000107	
48982	    0	4.962412	-2.341854	-0.125076	0.827602	0.576212	0.053787	0.049626	-0.023399	-0.001491	0.999987	0.004138	0.002881	0.000269	
48983	    0	4.136733	-1.649762	0.182464	0.779727	0.543406	0.119782	0.041382	-0.016479	0.001648	0.999988	0.003899	0.002717	0.000599	
48984	    0	3.802188	-1.176505	0.463801	0.624086	0.485803	0.252915	0.038048	-0.011731	0.004509	0.999990	0.003120	0.002429	0.001265	
48985	    0	3.767900	-1.038512	0.755453	0.377084	0.470735	0.447084	0.037720	-0.010315	0.007446	0.999992	0.001885	0.002354	0.002235	
48986	    0	3.740168	-1.161837	0.671453	0.051117	0.446321	0.659944	0.037455	-0.011497	0.006628	0.999991	0.000256	0.002232	0.003300	
48987	    0	3.935426	-1.543850	0.293115	-0.224114	0.404360	0.895695	0.039429	-0.015259	0.002869	0.999987	-0.001121	0.002022	0.004478	
48988	    0	4.396885	-1.998483	-0.046877	-0.269701	0.430873	1.101501	0.044077	-0.019743	-0.000537	0.999981	-0.001348	0.002154	0.005507	
48989	    0	5.296127	-2.316113	-0.226527	-0.135041	0.492290	1.264963	0.053101	-0.022827	-0.002380	0.999976	-0.000675	0.002461	0.006325	
48990	    0	6.201002	-2.271856	-0.107260	0.095178	0.534635	1.438727	0.062168	-0.022271	-0.001249	0.999969	0.000476	0.002673	0.007194	
48991	    0	6.588393	-2.054049	-0.103210	0.326542	0.471693	1.573200	0.066040	-0.020020	-0.001221	0.999965	0.001633	0.002358	0.007866	
48992	    0	6.879351	-1.954113	-0.517986	0.453383	0.373846	1.746202	0.068951	-0.018928	-0.005352	0.999957	0.002267	0.001869	0.008731	
48993	    0	7.307762	-1.903109	-0.913405	0.422103	0.284581	1.915772	0.073242	-0.018311	-0.009277	0.999950	0.002110	0.001423	0.009579	
48994	    0	7.922115	-1.901245	-0.936483	0.267606	0.193218	2.100412	0.079406	-0.018167	-0.009466	0.999943	0.001338	0.000966	0.010502	
48995	    0	8.862444	-2.244866	-1.263511	0.049020	0.123599	2.302602	0.088867	-0.021423	-0.012695	0.999933	0.000245	0.000618	0.011513	
48996	    0	9.983069	-2.739559	-2.689241	-0.118449	-0.069048	2.440132	0.100164	-0.026191	-0.026842	0.999925	-0.000592	-0.000345	0.012200	
48997	    0	12.002351	-2.837990	-5.296205	-0.148014	-0.446141	2.497168	0.120483	-0.026917	-0.052673	0.999919	-0.000740	-0.002231	0.012486	
48998	    0	14.911922	-3.117695	-8.248013	0.169378	-0.986891	2.454448	0.149891	-0.029271	-0.081767	0.999911	0.000847	-0.004934	0.012272	
48999	    0	18.045011	-5.699873	-12.004095	0.826478	-0.908687	2.341529	0.181641	-0.054382	-0.119446	0.999912	0.004132	-0.004543	0.011707	
49000	    0	22.734155	-6.903927	-10.551351	1.217302	-0.040246	2.216589	0.228105	-0.065870	-0.105875	0.999920	0.006086	-0.000201	0.011083	
49001	    0	28.247672	-5.690946	-7.395467	1.580858	0.702116	2.059999	0.282776	-0.053406	-0.075378	0.999909	0.007904	0.003510	0.010300	
49002	    0	33.601970	-2.237823	-6.068869	1.821004	0.810458	1.911415	0.335959	-0.018605	-0.062231	0.999905	0.009105	0.004052	0.009557	
49003	    0	31.460232	2.190377	-5.958299	1.971503	0.261888	2.076793	0.314270	0.025757	-0.059753	0.999896	0.009857	0.001309	0.010384	
49004	    0	24.315296	4.046072	-6.661804	1.936428	-0.285162	2.663924	0.242674	0.044335	-0.065855	0.999863	0.009682	-0.001426	0.013319	
49005	    0	22.589971	4.713753	-7.568220	1.815328	-0.624883	3.169432	0.225342	0.051392	-0.074524	0.999828	0.009076	-0.003124	0.015846	
49006	    0	21.923092	6.380908	-7.561682	1.707956	-0.934665	3.546957	0.218394	0.068324	-0.074024	0.999795	0.008539	-0.004673	0.017734	
49007	    0	21.495724	7.962617	-7.073866	1.531518	-1.175009	3.628795	0.213867	0.084045	-0.068848	0.999788	0.007657	-0.005875	0.018143	
49008	    0	19.904209	8.214180	-6.223645	1.383300	-1.268660	3.485907	0.197952	0.086020	-0.060392	0.999804	0.006916	-0.006343	0.017428	
49009	    0	17.940468	7.468978	-5.152218	1.236984	-1.321484	3.151876	0.178528	0.077820	-0.049866	0.999834	0.006185	-0.006607	0.015759	
49010	    0	15.752341	6.033637	-4.352960	1.237922	-1.306208	2.655715	0.156980	0.062687	-0.042120	0.999871	0.006189	-0.006531	0.013278	
49011	    0	13.127968	3.828298	-2.775116	1.380967	-1.324317	2.114940	0.131042	0.039856	-0.026611	0.999898	0.006905	-0.006621	0.010574	
49012	    0	10.774844	1.962952	-1.004004	1.745085	-1.286736	1.575326	0.107650	0.020560	-0.009171	0.999909	0.008725	-0.006433	0.007876	
49013	    0	9.432227	1.867676	-0.377289	2.289656	-1.196900	1.086461	0.094238	0.019226	-0.002991	0.999902	0.011448	-0.005984	0.005432	
49014	    0	9.059553	3.100593	-0.840592	2.715212	-1.082842	0.631737	0.090539	0.031398	-0.007491	0.999887	0.013576	-0.005414	0.003159	
49015	    0	8.279833	5.601371	-2.210639	2.577482	-0.930053	0.259408	0.082825	0.056396	-0.020996	0.999905	0.012887	-0.004650	0.001297	
49016	    0	6.984227	8.072072	-3.596977	1.886208	-0.645457	-0.027276	0.069967	0.081044	-0.034981	0.999949	0.009431	-0.003227	-0.000136	
49017	    0	4.645415	10.129377	-2.736528	1.368152	-0.259402	-0.159456	0.046570	0.101440	-0.026611	0.999975	0.006841	-0.001297	-0.000797	
49018	    0	2.144488	12.700734	-2.634168	0.587083	-0.019455	-0.116730	0.021522	0.127071	-0.025967	0.999995	0.002935	-0.000097	-0.000584	
49019	    0	0.819001	14.240028	-2.748822	-0.469781	0.230408	-0.028992	0.008179	0.142334	-0.027832	0.999996	-0.002349	0.001152	-0.000145	
49020	    0	0.582600	13.124033	-1.333218	-1.022536	0.590900	0.081826	0.005732	0.131172	-0.014020	0.999982	-0.005113	0.002954	0.000409	
49021	    0	0.997900	9.606915	-0.073922	-1.441780	0.666816	0.181582	0.009888	0.096069	-0.001465	0.999968	-0.007209	0.003334	0.000908	
49022	    0	1.424092	6.131936	1.094535	-1.535432	0.454717	0.195696	0.014205	0.061415	0.010442	0.999967	-0.007677	0.002274	0.000978	
49023	    0	2.067942	1.343667	3.252508	-0.665857	0.090790	0.048065	0.020691	0.013550	0.032471	0.999994	-0.003329	0.000454	0.000240	
49024	    0	2.232019	-4.218766	1.949887	-0.127792	-0.442696	-0.181008	0.022239	-0.042195	0.019575	0.999996	-0.000639	-0.002213	-0.000905	
49025	    0	1.886965	-7.071623	-2.073376	-0.387575	-0.943570	-0.474551	0.018799	-0.070801	-0.020508	0.999984	-0.001938	-0.004718	-0.002373	
49026	    0	2.035476	-5.447717	-4.760354	-0.952923	-1.193633	-0.700577	0.020446	-0.054774	-0.047221	0.999965	-0.004765	-0.005968	-0.003503	
49027	    0	3.219178	-2.616634	-4.283753	-1.185435	-1.241321	-0.814069	0.032349	-0.026550	-0.042480	0.999954	-0.005927	-0.006207	-0.004070	
49028	    0	5.197122	-2.347210	-2.673630	-0.852975	-0.961504	-0.848206	0.051998	-0.023806	-0.026385	0.999969	-0.004265	-0.004807	-0.004241	
49029	    0	6.860830	-3.846979	-1.741291	-0.138855	-0.330163	-0.804141	0.068481	-0.038757	-0.017273	0.999990	-0.000694	-0.001651	-0.004021	
49030	    0	7.775240	-6.191400	-1.955963	0.249291	0.137902	-0.688554	0.077525	-0.062157	-0.019691	0.999992	0.001246	0.000690	-0.003443	
49031	    0	8.182396	-7.685313	-2.446989	0.276185	0.200844	-0.507356	0.081604	-0.077026	-0.024658	0.999995	0.001381	0.001004	-0.002537	
49032	    0	8.383492	-7.835240	-2.558965	0.295449	0.079346	-0.312805	0.083702	-0.078445	-0.025739	0.999997	0.001477	0.000397	-0.001564	
49033	    0	7.961870	-6.856659	-2.305519	0.414467	0.143433	-0.213623	0.079529	-0.068604	-0.023254	0.999996	0.002072	0.000717	-0.001068	
49034	    0	6.954588	-4.982267	-1.545587	0.591089	0.411416	-0.196648	0.069465	-0.049845	-0.015746	0.999992	0.002955	0.002057	-0.000983	
49035	    0	5.905530	-2.760630	-0.283231	0.696757	0.624087	-0.180054	0.059021	-0.027649	-0.003113	0.999989	0.003484	0.003120	-0.000900	
49036	    0	5.039173	-0.915186	0.527826	0.671199	0.671008	-0.179673	0.050401	-0.009214	0.005078	0.999988	0.003356	0.003355	-0.000898	
49037	    0	4.452767	0.695601	0.707786	0.628664	0.635721	-0.166321	0.044556	0.006897	0.006958	0.999990	0.003143	0.003179	-0.000832	
49038	    0	3.996292	1.856058	0.972358	0.467111	0.535394	-0.202561	0.040008	0.018497	0.009660	0.999992	0.002336	0.002677	-0.001013	
49039	    0	3.686250	2.917119	1.305276	0.135994	0.390625	-0.263214	0.036926	0.029114	0.013000	0.999996	0.000680	0.001953	-0.001316	
49040	    0	3.220284	4.236765	1.720783	-0.315857	0.269509	-0.313759	0.032292	0.042344	0.017097	0.999996	-0.001579	0.001348	-0.001569	
49041	    0	2.569422	5.569112	2.444003	-0.685121	0.141335	-0.382234	0.025818	0.055725	0.024231	0.999991	-0.003426	0.000707	-0.001911	
49042	    0	1.929149	6.709808	2.934983	-1.055914	0.036240	-0.536350	0.019477	0.067200	0.028992	0.999982	-0.005280	0.000181	-0.002682	
49043	    0	1.963290	7.540580	2.731409	-1.276410	-0.232508	-0.784309	0.019897	0.075500	0.026855	0.999970	-0.006382	-0.001163	-0.003922	
49044	    0	4.167767	6.236158	0.586878	-1.401728	-0.395207	-0.889789	0.041944	0.062215	0.005515	0.999963	-0.007009	-0.001976	-0.004449	
49045	    0	4.576232	-4.512093	-9.877186	-3.817098	-2.041788	-0.562331	0.046631	-0.047119	-0.097412	0.999762	-0.019084	-0.010208	-0.002811	
49046	    0	12.665125	-10.928934	-28.341282	-4.735679	-3.515562	-0.049598	0.131547	-0.115954	-0.278436	0.999565	-0.023675	-0.017575	-0.000248	
49047	    0	30.648960	-16.045552	-13.100877	-0.028229	1.713774	0.008392	0.305359	-0.160461	-0.133606	0.999963	-0.000141	0.008569	0.000042	
49048	    0	54.180764	-3.511515	9.982036	1.793553	2.449135	0.745804	0.543101	-0.033945	0.092867	0.999877	0.008967	0.012245	0.003729	
49049	    0	22.347538	-1.375505	7.968253	2.903855	0.601409	-0.263224	0.223694	-0.015198	0.078796	0.999888	0.014519	0.003007	-0.001316	
49050	    0	9.342596	8.359290	2.055162	2.065525	-0.823807	-1.316489	0.093884	0.082755	0.021795	0.999916	0.010327	-0.004119	-0.006582	
49051	    0	13.088521	22.074802	-3.813217	-0.383768	-1.444089	-1.893662	0.133240	0.219421	-0.037598	0.999927	-0.001919	-0.007220	-0.009468	
49052	    0	12.904227	17.328501	-12.170527	-1.465675	-1.618460	-2.519343	0.132190	0.170740	-0.121902	0.999861	-0.007328	-0.008092	-0.012596	
49053	    0	11.458507	15.840322	-14.492389	-2.459093	-0.408768	-2.716218	0.117004	0.155029	-0.146606	0.999829	-0.012295	-0.002044	-0.013580	
49054	    0	12.805868	8.711576	-9.931104	-2.243734	0.402663	-2.758746	0.129032	0.084217	-0.100526	0.999840	-0.011218	0.002013	-0.013793	
49055	    0	13.715481	3.697499	-6.831187	-1.539486	0.206002	-2.766534	0.137573	0.034546	-0.068726	0.999874	-0.007697	0.001030	-0.013832	
49056	    0	17.312750	0.717042	-4.054219	-0.903542	0.073245	-2.726458	0.173187	0.004626	-0.040630	0.999896	-0.004518	0.000366	-0.013632	
49057	    0	21.500569	-1.040074	-3.557629	-0.091556	-0.044824	-2.745142	0.214844	-0.013367	-0.035522	0.999906	-0.000458	-0.000224	-0.013725	
49058	    0	24.381089	-2.333897	-4.167073	-0.193221	-0.204284	-2.856543	0.243486	-0.026858	-0.041397	0.999897	-0.000966	-0.001021	-0.014282	
49059	    0	25.298987	-2.449750	-4.010197	-0.538466	-0.233469	-3.036620	0.252625	-0.028442	-0.039734	0.999880	-0.002692	-0.001167	-0.015182	
49060	    0	24.398093	-2.054446	-3.084806	-1.170978	-0.268949	-3.194773	0.243650	-0.024617	-0.030384	0.999854	-0.005855	-0.001345	-0.015973	
49061	    0	22.176041	-2.646244	-1.948475	-1.600735	-0.244726	-3.248012	0.221313	-0.030212	-0.018982	0.999835	-0.008003	-0.001224	-0.016239	
49062	    0	18.821250	-3.824978	-3.378730	-1.597489	-0.131042	-3.176475	0.187593	-0.041500	-0.033341	0.999842	-0.007987	-0.000655	-0.015882	
49063	    0	14.647469	-4.858382	-3.517625	-1.709070	0.142868	-3.019866	0.145691	-0.051086	-0.034851	0.999848	-0.008545	0.000714	-0.015099	
49064	    0	10.429251	-5.036364	-2.824345	-2.061184	0.313012	-2.775522	0.103534	-0.052093	-0.027875	0.999849	-0.010305	0.001565	-0.013877	
49065	    0	7.282874	-4.786397	-2.060359	-2.577346	0.286308	-2.447639	0.072205	-0.049011	-0.020081	0.999841	-0.012886	0.001431	-0.012238	
49066	    0	4.286983	-5.627232	-1.943645	-2.819591	0.316255	-2.130239	0.042235	-0.056992	-0.018703	0.999843	-0.014097	0.001581	-0.010651	
49067	    0	1.963913	-6.671309	-1.910700	-2.660297	0.350968	-1.864707	0.018982	-0.067139	-0.018250	0.999866	-0.013301	0.001755	-0.009323	
49068	    0	1.994696	-7.945371	-0.639994	-2.505202	0.163466	-1.545390	0.019327	-0.079677	-0.005419	0.999891	-0.012526	0.000817	-0.007727	
49069	    0	3.588174	-10.080706	-0.017298	-2.158220	0.004578	-1.195556	0.035278	-0.101013	0.000916	0.999924	-0.010791	0.000023	-0.005978	
49070	    0	4.760560	-12.062930	-0.242218	-1.486224	-0.043488	-0.834666	0.047102	-0.120840	-0.001514	0.999963	-0.007431	-0.000217	-0.004173	
49071	    0	5.835979	-13.220499	-1.165622	-0.765994	0.068856	-0.470735	0.058044	-0.132385	-0.011169	0.999990	-0.003830	0.000344	-0.002354	
49072	    0	6.530246	-13.359800	-1.732582	-0.036621	0.301933	-0.181389	0.065155	-0.133660	-0.017400	0.999998	-0.000183	0.001510	-0.000907	
49073	    0	6.932582	-12.633723	-1.339468	0.462533	0.485230	0.068665	0.069336	-0.126282	-0.013855	0.999994	0.002313	0.002426	0.000343	
49074	    0	7.248461	-10.397910	-0.728855	0.867657	0.601390	0.267602	0.072600	-0.103848	-0.007957	0.999985	0.004338	0.003007	0.001338	
49075	    0	7.200359	-7.080840	0.182468	1.252185	0.616460	0.383762	0.072144	-0.070679	0.001160	0.999973	0.006261	0.003082	0.001919	
49076	    0	6.575907	-4.254103	0.914331	1.517886	0.589187	0.482374	0.065887	-0.042449	0.008627	0.999964	0.007589	0.002946	0.002412	
49077	    0	5.543304	-2.240611	1.459806	1.355186	0.592047	0.593573	0.055542	-0.022339	0.014282	0.999968	0.006776	0.002960	0.002968	
49078	    0	4.631902	-0.840257	1.906785	0.963982	0.632863	0.733953	0.046410	-0.008324	0.018881	0.999976	0.004820	0.003164	0.003670	
49079	    0	4.412636	-0.120256	1.675808	0.584607	0.694280	0.967414	0.044189	-0.001038	0.016602	0.999977	0.002923	0.003471	0.004837	
49080	    0	4.475736	-0.179216	1.336839	0.089455	0.762183	1.249325	0.044818	-0.001518	0.013197	0.999972	0.000447	0.003811	0.006247	
49081	    0	4.622670	-0.849013	0.896003	-0.419432	0.813304	1.528951	0.046326	-0.008118	0.008789	0.999960	-0.002097	0.004066	0.007645	
49082	    0	4.969203	-1.642021	0.341285	-0.738729	0.812354	1.738960	0.049846	-0.015975	0.003270	0.999947	-0.003694	0.004062	0.008695	
49083	    0	5.703333	-2.464286	-0.402283	-0.796525	0.784509	1.924936	0.057251	-0.024109	-0.004150	0.999938	-0.003983	0.003922	0.009624	
49084	    0	6.605399	-2.765653	-0.580679	-0.618948	0.764482	2.068374	0.066313	-0.026990	-0.005976	0.999934	-0.003095	0.003822	0.010342	
49085	    0	7.488599	-2.535419	-0.640006	-0.259405	0.759333	2.202657	0.075134	-0.024536	-0.006653	0.999930	-0.001297	0.003797	0.011013	
49086	    0	8.261836	-2.091390	-0.703205	0.101474	0.752659	2.352965	0.082829	-0.019937	-0.007354	0.999923	0.000507	0.003763	0.011765	
49087	    0	8.438245	-1.815467	-0.160847	0.432027	0.726340	2.510144	0.084595	-0.017090	-0.001953	0.999912	0.002160	0.003632	0.012550	
49088	    0	8.336158	-1.767677	0.119450	0.785282	0.645850	2.666182	0.083591	-0.016567	0.000858	0.999898	0.003926	0.003229	0.013330	
49089	    0	8.287254	-1.939079	0.055628	1.010169	0.525112	2.752787	0.083130	-0.018250	0.000244	0.999888	0.005051	0.002625	0.013763	
49090	    0	8.472134	-2.241861	-0.043900	0.980033	0.349439	2.817451	0.085025	-0.021219	-0.000693	0.999887	0.004900	0.001747	0.014087	
49091	    0	9.217355	-2.190439	-0.445448	0.739315	0.230607	2.855024	0.092468	-0.020569	-0.004639	0.999890	0.003696	0.001153	0.014275	
49092	    0	10.336667	-1.562618	-1.680712	0.497455	0.190551	2.915680	0.103563	-0.014075	-0.016942	0.999889	0.002487	0.000953	0.014578	
49093	    0	11.966211	-0.775549	-4.403678	0.391593	0.029756	2.921401	0.119751	-0.005920	-0.044067	0.999891	0.001958	0.000149	0.014606	
49094	    0	13.862248	-1.155760	-7.664919	0.397695	-0.377477	2.762504	0.138907	-0.009488	-0.076407	0.999901	0.001988	-0.001887	0.013812	
49095	    0	16.270615	-4.282711	-12.961865	0.555438	-1.011499	2.523885	0.163879	-0.040405	-0.128906	0.999904	0.002777	-0.005057	0.012619	
49096	    0	19.581711	-7.975799	-17.243523	0.884462	-0.959805	2.249209	0.197517	-0.076782	-0.171834	0.999915	0.004422	-0.004799	0.011246	
49097	    0	24.609038	-6.894400	-15.121891	1.722196	0.003052	2.039398	0.246765	-0.065125	-0.151794	0.999910	0.008611	0.000015	0.010197	
49098	    0	31.124281	-3.753859	-9.803671	2.516663	0.672941	1.857074	0.311233	-0.033402	-0.099522	0.999871	0.012583	0.003365	0.009285	
49099	    0	33.040148	1.366098	-8.054137	2.646177	0.293744	1.762465	0.330139	0.017639	-0.080811	0.999872	0.013230	0.001469	0.008812	
49100	    0	26.545347	5.720127	-8.815102	2.469941	-0.359361	2.225217	0.264944	0.061230	-0.086935	0.999860	0.012349	-0.001797	0.011126	
49101	    0	22.973076	6.757573	-10.219353	2.243931	-0.659026	2.834480	0.229065	0.071960	-0.100647	0.999831	0.011219	-0.003295	0.014172	
49102	    0	22.173838	8.066538	-10.560457	2.055878	-0.682877	3.374326	0.220680	0.085469	-0.103988	0.999799	0.010279	-0.003414	0.016870	
49103	    0	21.416902	8.985660	-8.622035	1.714633	-0.777489	3.595980	0.212830	0.094421	-0.084595	0.999794	0.008573	-0.003887	0.017979	
49104	    0	19.860239	8.962756	-6.172401	1.342089	-1.039756	3.334621	0.197382	0.093332	-0.060078	0.999825	0.006710	-0.005198	0.016672	
49105	    0	17.062638	8.008471	-4.401250	1.000258	-1.248796	2.826052	0.169739	0.082703	-0.042542	0.999867	0.005001	-0.006244	0.014130	
49106	    0	13.723102	6.915215	-2.681228	0.680753	-1.396794	2.202101	0.136640	0.070747	-0.025618	0.999908	0.003404	-0.006984	0.011010	
49107	    0	10.833949	5.229852	-0.623968	0.894376	-1.508366	1.551091	0.107971	0.053162	-0.005188	0.999931	0.004472	-0.007542	0.007755	
49108	    0	8.702518	3.168559	0.975176	1.551853	-1.407082	0.964377	0.086799	0.032024	0.010611	0.999933	0.007759	-0.007035	0.004822	
49109	    0	7.255912	1.928126	1.971713	2.131900	-1.279483	0.440991	0.072388	0.019226	0.020386	0.999920	0.010659	-0.006397	0.002205	
49110	    0	6.734520	2.809745	2.296123	2.456169	-1.171339	0.010491	0.067206	0.027813	0.023698	0.999907	0.012280	-0.005857	0.000052	
49111	    0	6.757341	5.152209	2.838524	2.564325	-1.117553	-0.366986	0.067505	0.051025	0.029419	0.999900	0.012821	-0.005588	-0.001835	
49112	    0	6.031000	8.007073	0.776485	2.145628	-0.849935	-0.695627	0.060552	0.079769	0.008879	0.999927	0.010728	-0.004250	-0.003478	
49113	    0	3.944740	11.081564	-0.192263	1.208699	-0.472264	-0.842294	0.039917	0.110657	-0.001160	0.999969	0.006043	-0.002361	-0.004211	
49114	    0	2.345912	13.117600	0.425075	-0.080681	-0.193597	-0.933460	0.024067	0.131066	0.004221	0.999989	-0.000403	-0.000968	-0.004667	
49115	    0	1.855747	12.802571	1.024296	-1.107607	0.132753	-0.939187	0.019165	0.127991	0.009521	0.999973	-0.005538	0.000664	-0.004696	
49116	    0	2.065132	10.409224	1.406855	-1.800186	0.457581	-0.803007	0.021100	0.104129	0.013083	0.999949	-0.009001	0.002288	-0.004015	
49117	    0	2.589948	6.503247	2.021030	-1.851496	0.585948	-0.696576	0.026184	0.065125	0.019531	0.999947	-0.009257	0.002930	-0.003483	
49118	    0	3.423142	1.155646	3.115054	-1.265729	0.459675	-0.705344	0.034344	0.011632	0.030998	0.999970	-0.006329	0.002298	-0.003527	
49119	    0	3.878792	-4.087649	2.730579	-0.605777	0.129128	-0.832371	0.038635	-0.040955	0.027405	0.999986	-0.003029	0.000646	-0.004162	
49120	    0	3.495395	-7.101248	-0.002639	-0.738531	-0.270655	-1.025970	0.034589	-0.071190	0.000283	0.999979	-0.003693	-0.001353	-0.005130	
49121	    0	3.381892	-6.314994	-2.757296	-1.559473	-0.600252	-1.044481	0.033569	-0.063538	-0.026978	0.999951	-0.007797	-0.003001	-0.005222	
49122	    0	4.108374	-4.160570	-3.852390	-2.180728	-0.808164	-0.880455	0.041053	-0.042202	-0.037900	0.999922	-0.010903	-0.004041	-0.004402	
49123	    0	5.629339	-3.861926	-4.082527	-2.134756	-0.878737	-0.693529	0.056335	-0.039246	-0.040161	0.999927	-0.010674	-0.004394	-0.003468	
49124	    0	7.637800	-6.384685	-3.932484	-1.399627	-0.515180	-0.583083	0.076291	-0.064342	-0.038679	0.999968	-0.006998	-0.002576	-0.002915	
49125	    0	8.425749	-10.548539	-4.504380	-0.737574	-0.088501	-0.438692	0.084045	-0.105835	-0.044617	0.999990	-0.003688	-0.000443	-0.002193	
49126	    0	8.220987	-12.645340	-5.698258	-0.411606	0.031662	-0.237847	0.082050	-0.126668	-0.056735	0.999997	-0.002058	0.000158	-0.001189	
49127	    0	8.210501	-11.793438	-6.233384	0.053406	0.030708	-0.005341	0.082092	-0.117920	-0.062378	0.999999	0.000267	0.000154	-0.000027	
49128	    0	7.890470	-9.179616	-4.962444	0.629808	0.160408	0.160981	0.078938	-0.091576	-0.049976	0.999994	0.003149	0.000802	0.000805	
49129	    0	7.093041	-6.195573	-2.422364	0.972753	0.549510	0.193788	0.070923	-0.061768	-0.024719	0.999984	0.004864	0.002748	0.000969	
49130	    0	6.035948	-3.466247	-0.328811	1.085862	0.834472	0.204851	0.060380	-0.034581	-0.003728	0.999975	0.005429	0.004172	0.001024	
49131	    0	4.938870	-1.240629	0.798061	1.037797	0.914009	0.228884	0.049438	-0.012390	0.007690	0.999975	0.005189	0.004570	0.001144	
49132	    0	3.966814	-0.386074	1.316657	0.823598	0.876432	0.247766	0.039730	-0.003865	0.012977	0.999981	0.004118	0.004382	0.001239	
49133	    0	3.283572	0.024277	1.472722	0.555422	0.854687	0.255586	0.032898	0.000244	0.014587	0.999986	0.002777	0.004273	0.001278	
49134	    0	2.872123	0.128817	1.702052	0.231934	0.834659	0.224496	0.028790	0.001301	0.016902	0.999990	0.001160	0.004173	0.001122	
49135	    0	2.476615	0.704137	2.158376	-0.178528	0.750162	0.157166	0.024841	0.007080	0.021484	0.999991	-0.000893	0.003751	0.000786	
49136	    0	1.999718	2.306623	2.295313	-0.465585	0.634767	0.013924	0.020068	0.023121	0.022836	0.999991	-0.002328	0.003174	0.000070	
49137	    0	1.533703	4.633207	2.306902	-0.598718	0.545503	-0.182343	0.015442	0.046387	0.022888	0.999990	-0.002994	0.002728	-0.000912	
49138	    0	1.324683	7.301989	2.314472	-0.730899	0.413515	-0.495913	0.013475	0.073071	0.022850	0.999988	-0.003654	0.002068	-0.002480	
49139	    0	1.955647	9.285730	1.611573	-0.782590	0.054169	-0.856786	0.019958	0.092834	0.015747	0.999983	-0.003913	0.000271	-0.004284	
49140	    0	4.943469	10.029539	1.091153	-1.250472	-0.180247	-1.108183	0.049980	0.100085	0.010330	0.999964	-0.006252	-0.000901	-0.005541	
49141	    0	5.448176	-5.359594	-5.834732	-4.499473	-1.306846	-0.618038	0.054688	-0.055054	-0.056763	0.999721	-0.022495	-0.006534	-0.003090	
49142	    0	16.882009	-22.475154	-27.242589	-5.898728	-2.514127	0.439529	0.172675	-0.232235	-0.263494	0.999483	-0.029489	-0.012568	0.002197	
49143	    0	45.632204	-23.239930	-10.866171	0.447288	2.629177	0.949891	0.455933	-0.229980	-0.115173	0.999899	0.002236	0.013145	0.004749	
49144	    0	54.503655	-10.039529	7.147264	2.366721	1.452878	0.810079	0.545934	-0.098990	0.066332	0.999895	0.011833	0.007264	0.004050	
49145	    0	10.849284	6.804863	10.485066	3.635611	-0.145539	-0.497464	0.108582	0.065857	0.106140	0.999831	0.018177	-0.000728	-0.002487	
49146	    0	9.155921	21.748819	-4.734763	0.787754	-1.949738	-1.110675	0.093216	0.217155	-0.045588	0.999928	0.003939	-0.009748	-0.005553	
49147	    0	13.761429	30.332501	-7.596457	-0.887897	-1.709035	-1.844842	0.141052	0.301697	-0.076111	0.999910	-0.004439	-0.008545	-0.009224	
49148	    0	8.601105	19.683230	-19.730475	-3.013422	-0.483544	-2.461400	0.088881	0.192750	-0.200017	0.999807	-0.015066	-0.002418	-0.012306	
49149	    0	9.448042	12.177466	-12.890270	-3.535750	0.957758	-2.481281	0.095337	0.118286	-0.131470	0.999755	-0.017677	0.004788	-0.012405	
49150	    0	11.329726	5.512299	-7.653002	-2.412371	0.738380	-2.871688	0.113779	0.052560	-0.077594	0.999817	-0.012061	0.003692	-0.014358	
49151	    0	12.643569	0.248597	-4.141263	-0.678090	0.234995	-3.034333	0.126404	0.000427	-0.041565	0.999878	-0.003390	0.001175	-0.015171	
49152	    0	18.686653	-2.059000	-3.484124	0.519965	-0.198182	-3.122270	0.186550	-0.023414	-0.034715	0.999874	0.002600	-0.000991	-0.015611	
49153	    0	24.933293	-1.059123	-4.204790	1.093536	-0.395985	-3.193818	0.249207	-0.014343	-0.041626	0.999855	0.005467	-0.001980	-0.015968	
49154	    0	26.559930	-0.308448	-5.311599	0.899360	-0.572042	-3.293393	0.265654	-0.007222	-0.052382	0.999849	0.004497	-0.002860	-0.016466	
49155	    0	25.322624	1.321754	-3.293366	0.190935	-0.453972	-3.471552	0.253479	0.008850	-0.032349	0.999846	0.000955	-0.002270	-0.017357	
49156	    0	24.392120	0.868385	0.063845	-0.742382	-0.436998	-3.575908	0.244022	0.004325	0.001150	0.999830	-0.003712	-0.002185	-0.017879	
49157	    0	23.364536	-1.071215	0.352267	-1.157447	-0.418688	-3.547877	0.233398	-0.014832	0.004089	0.999824	-0.005787	-0.002093	-0.017738	
49158	    0	20.997574	-2.492863	-0.685592	-1.299171	-0.111205	-3.509726	0.209498	-0.028651	-0.006561	0.999825	-0.006495	-0.000556	-0.017548	
49159	    0	17.543450	-2.730653	-0.363238	-1.638893	0.308437	-3.424279	0.174927	-0.030334	-0.003662	0.999818	-0.008194	0.001542	-0.017120	
49160	    0	13.030715	-3.525406	-0.293719	-2.254439	0.448256	-3.170597	0.129720	-0.037346	-0.002815	0.999808	-0.011271	0.002241	-0.015852	
49161	    0	9.611200	-4.539413	-0.121824	-2.820584	0.349450	-2.813908	0.095459	-0.046753	-0.000732	0.999800	-0.014102	0.001747	-0.014069	
49162	    0	6.678241	-5.472029	-1.089908	-2.928914	0.223746	-2.484284	0.066083	-0.055696	-0.010162	0.999815	-0.014644	0.001119	-0.012421	
49163	    0	3.838851	-7.702895	-0.561274	-2.885595	0.105482	-2.195860	0.037537	-0.077515	-0.004517	0.999835	-0.014427	0.000527	-0.010979	
49164	    0	2.081456	-10.187010	1.354863	-2.672506	0.077060	-1.890076	0.019857	-0.101868	0.014902	0.999866	-0.013362	0.000385	-0.009450	
49165	    0	2.047802	-11.471140	1.880248	-2.432335	-0.057795	-1.535087	0.019592	-0.114624	0.020203	0.999896	-0.012161	-0.000289	-0.007675	
49166	    0	3.085134	-12.694324	1.353337	-2.099660	-0.217443	-1.165037	0.030096	-0.126968	0.014899	0.999927	-0.010498	-0.001087	-0.005825	
49167	    0	4.374966	-13.585635	-0.313743	-1.565382	-0.271610	-0.794230	0.043213	-0.136047	-0.002014	0.999960	-0.007827	-0.001358	-0.003971	
49168	    0	5.334111	-13.269648	-2.588274	-0.934033	-0.080490	-0.444986	0.053056	-0.132934	-0.025241	0.999986	-0.004670	-0.000402	-0.002225	
49169	    0	5.942038	-11.914933	-3.126610	-0.391961	0.321961	-0.176239	0.059265	-0.119263	-0.031128	0.999996	-0.001960	0.001610	-0.000881	
49170	    0	6.327337	-9.323111	-2.247902	0.293923	0.604440	0.045014	0.063226	-0.093184	-0.022807	0.999994	0.001470	0.003022	0.000225	
49171	    0	6.663435	-6.523951	-1.199154	0.866704	0.715069	0.184632	0.066650	-0.065125	-0.012512	0.999984	0.004333	0.003575	0.000923	
49172	    0	6.506016	-4.728461	0.375592	1.222622	0.839432	0.272944	0.065139	-0.047216	0.003194	0.999971	0.006113	0.004197	0.001365	
49173	    0	6.000879	-3.051354	1.492927	1.246656	0.911150	0.289920	0.060120	-0.030518	0.014465	0.999969	0.006233	0.004556	0.001450	
49174	    0	5.361004	-1.184197	2.192771	0.773816	0.922972	0.267793	0.053726	-0.011854	0.021634	0.999981	0.003869	0.004615	0.001339	
49175	    0	4.758798	0.486403	2.003367	0.444986	0.873569	0.264741	0.047668	0.004883	0.019836	0.999987	0.002225	0.004368	0.001324	
49176	    0	4.715389	1.454325	1.261342	0.128556	0.812724	0.439645	0.047173	0.014639	0.012431	0.999989	0.000643	0.004064	0.002198	
49177	    0	4.998753	1.213044	1.013339	-0.443080	0.874334	0.706486	0.049988	0.012329	0.009888	0.999981	-0.002215	0.004372	0.003532	
49178	    0	5.171107	0.259580	1.103213	-0.899134	0.921259	0.921259	0.051748	0.002883	0.010781	0.999969	-0.004496	0.004606	0.004606	
49179	    0	5.315986	-0.714453	0.588508	-0.914775	0.904284	1.061261	0.053223	-0.006836	0.005676	0.999965	-0.004574	0.004521	0.005306	
49180	    0	5.723690	-1.417275	-0.208333	-0.655754	0.883685	1.218047	0.057312	-0.013831	-0.002291	0.999966	-0.003279	0.004418	0.006090	
49181	    0	6.154408	-1.842369	-0.530909	-0.293735	0.882159	1.383988	0.061646	-0.018005	-0.005554	0.999965	-0.001469	0.004411	0.006920	
49182	    0	6.453398	-1.730162	-0.493676	0.031853	0.852023	1.518078	0.064641	-0.016810	-0.005215	0.999962	0.000159	0.004260	0.007590	
49183	    0	6.444313	-1.256878	-0.691089	0.337224	0.839437	1.652551	0.064514	-0.012024	-0.007202	0.999955	0.001686	0.004197	0.008263	
49184	    0	6.086860	-0.831131	-0.652387	0.608455	0.792136	1.790460	0.060913	-0.007746	-0.006789	0.999947	0.003042	0.003961	0.008952	
49185	    0	5.761019	-0.860728	-0.251624	0.882166	0.672926	1.869238	0.057678	-0.008057	-0.002747	0.999941	0.004411	0.003365	0.009346	
49186	    0	5.456337	-1.414726	-0.082677	1.064705	0.520336	1.947636	0.054695	-0.013610	-0.001042	0.999934	0.005323	0.002602	0.009738	
49187	    0	5.409534	-2.319192	-0.114769	1.021598	0.289351	1.995892	0.054321	-0.022644	-0.001343	0.999936	0.005108	0.001447	0.009979	
49188	    0	5.956223	-2.854756	-0.882339	0.695814	0.087549	2.045481	0.059846	-0.027905	-0.008947	0.999941	0.003479	0.000438	0.010227	
49189	    0	7.197996	-2.746059	-1.166628	0.286871	0.038338	2.137798	0.072266	-0.026672	-0.011719	0.999942	0.001434	0.000192	0.010689	
49190	    0	8.909342	-2.280162	-1.233854	0.003243	0.042153	2.271510	0.089342	-0.021788	-0.012358	0.999935	0.000016	0.000211	0.011357	
49191	    0	11.188293	-1.620132	-2.617766	0.000191	0.011444	2.336937	0.112061	-0.014893	-0.026184	0.999931	0.000001	0.000057	0.011684	
49192	    0	13.711744	-1.269580	-4.953951	0.107005	-0.178532	2.308134	0.137296	-0.011086	-0.049423	0.999932	0.000535	-0.000893	0.011540	
49193	    0	15.727388	-2.531609	-7.904389	0.403795	-0.608076	2.182055	0.157776	-0.023438	-0.078613	0.999933	0.002019	-0.003040	0.010910	
49194	    0	18.689826	-6.484188	-11.922059	0.866336	-0.777070	1.920931	0.187968	-0.062525	-0.118766	0.999936	0.004332	-0.003885	0.009604	
49195	    0	23.443714	-7.670713	-12.735768	1.265167	-0.280004	1.639587	0.235229	-0.073975	-0.127502	0.999945	0.006326	-0.001400	0.008198	
49196	    0	29.672740	-5.398392	-9.833754	1.978545	0.296791	1.519052	0.296974	-0.050750	-0.099291	0.999921	0.009892	0.001484	0.007595	
49197	    0	33.119032	-1.306700	-7.970582	2.451416	0.404564	1.657929	0.331116	-0.009338	-0.080505	0.999888	0.012257	0.002023	0.008289	
49198	    0	28.861161	3.118107	-7.172172	2.623307	0.028039	2.239338	0.288221	0.035347	-0.071317	0.999851	0.013116	0.000140	0.011196	
49199	    0	25.125046	6.178143	-8.117305	2.552961	-0.504145	2.969553	0.250488	0.066528	-0.079712	0.999804	0.012764	-0.002521	0.014847	
49200	    0	24.985485	7.612567	-9.599787	2.277173	-0.844069	3.620625	0.248809	0.081715	-0.094037	0.999762	0.011385	-0.004220	0.018102	
49201	    0	23.967166	9.083686	-8.378340	1.931362	-1.009459	4.075985	0.238159	0.096497	-0.081665	0.999733	0.009656	-0.005047	0.020378	
49202	    0	22.664663	8.981299	-6.062094	1.432731	-1.281275	4.083980	0.225123	0.094845	-0.058508	0.999744	0.007163	-0.006406	0.020418	
49203	    0	20.681234	8.149210	-4.181071	1.060752	-1.523699	3.692890	0.205566	0.085510	-0.039795	0.999786	0.005303	-0.007618	0.018463	
49204	    0	17.973280	6.956258	-2.914134	0.742381	-1.741315	3.109341	0.178864	0.072452	-0.027316	0.999834	0.003712	-0.008706	0.015546	
49205	    0	15.218202	4.740227	-1.596901	0.612667	-2.024739	2.460588	0.151733	0.049316	-0.014282	0.999867	0.003063	-0.010123	0.012302	
49206	    0	12.208755	1.809986	0.399262	1.028482	-2.161490	1.854395	0.121860	0.019205	0.005407	0.999885	0.005142	-0.010807	0.009272	
49207	    0	10.049845	0.230471	2.456725	1.937181	-2.078903	1.247456	0.100220	0.002686	0.025635	0.999879	0.009686	-0.010394	0.006237	
49208	    0	9.628011	0.962276	2.042043	2.785436	-1.828473	0.725972	0.096052	0.009678	0.021434	0.999854	0.013927	-0.009142	0.003630	
49209	    0	9.620499	3.788411	1.578498	3.209287	-1.580133	0.342578	0.096008	0.037781	0.017151	0.999838	0.016046	-0.007900	0.001713	
49210	    0	9.078200	6.283937	-0.377736	2.882313	-1.261763	0.052454	0.090783	0.062903	-0.002298	0.999876	0.014411	-0.006309	0.000262	
49211	    0	7.081932	8.916127	-2.768707	1.837379	-0.720227	-0.151064	0.070984	0.089355	-0.026611	0.999950	0.009187	-0.003601	-0.000755	
49212	    0	3.833091	11.707255	-1.992158	0.493432	-0.255204	-0.156021	0.038447	0.117091	-0.019584	0.999995	0.002467	-0.001276	-0.000780	
49213	    0	1.737359	13.722871	-0.488583	-0.447083	-0.052452	-0.118256	0.017456	0.137207	-0.005188	0.999997	-0.002235	-0.000262	-0.000591	
49214	    0	1.304582	12.694919	0.423520	-0.761034	0.281907	-0.166321	0.013157	0.126953	0.003734	0.999991	-0.003805	0.001410	-0.000832	
49215	    0	1.461709	9.124362	0.323134	-1.241312	0.551800	-0.185396	0.014709	0.091248	0.002625	0.999976	-0.006207	0.002759	-0.000927	
49216	    0	1.984957	6.030905	0.027568	-1.732278	0.560578	-0.207332	0.019912	0.060287	-0.000302	0.999958	-0.008661	0.002803	-0.001037	
49217	    0	2.446786	2.747623	1.287544	-1.430334	0.362400	-0.328830	0.024536	0.027527	0.012634	0.999971	-0.007152	0.001812	-0.001644	
49218	    0	2.759377	-1.474340	2.163522	-0.636293	0.016403	-0.530626	0.027556	-0.014748	0.021680	0.999991	-0.003181	0.000082	-0.002653	
49219	    0	3.066045	-4.871705	1.079001	-0.159264	-0.231934	-0.784304	0.030457	-0.048828	0.010864	0.999990	-0.000796	-0.001160	-0.003922	
49220	    0	3.353143	-5.541190	-0.414267	-0.244905	-0.380899	-0.990491	0.033264	-0.055582	-0.004011	0.999985	-0.001225	-0.001904	-0.004952	
49221	    0	3.804888	-4.378188	-0.871869	-0.628667	-0.510219	-1.042183	0.037842	-0.044006	-0.008484	0.999978	-0.003143	-0.002551	-0.005211	
49222	    0	4.963123	-4.001724	-0.032141	-0.870521	-0.518803	-0.980004	0.049435	-0.040260	-0.000018	0.999974	-0.004353	-0.002594	-0.004900	
49223	    0	6.521651	-4.738398	0.160509	-0.565913	-0.280763	-0.889592	0.065002	-0.047668	0.001831	0.999985	-0.002830	-0.001404	-0.004448	
49224	    0	7.516828	-6.216403	-1.109655	0.007629	0.068474	-0.754549	0.074929	-0.062447	-0.011125	0.999992	0.000038	0.000342	-0.003773	
49225	    0	7.409661	-8.071196	-3.592898	0.238037	0.126076	-0.547791	0.073853	-0.080872	-0.036072	0.999995	0.001190	0.000630	-0.002739	
49226	    0	7.076791	-9.456357	-5.827421	0.192452	-0.068474	-0.269127	0.070661	-0.094603	-0.058341	0.999998	0.000962	-0.000342	-0.001346	
49227	    0	7.529674	-8.964218	-6.292669	0.292397	-0.022125	0.030518	0.075317	-0.089539	-0.063049	0.999998	0.001462	-0.000111	0.000153	
49228	    0	8.028316	-7.212590	-4.447942	0.305939	0.198174	0.310898	0.080351	-0.071933	-0.044669	0.999996	0.001530	0.000991	0.001554	
49229	    0	7.835787	-5.194782	-1.795783	0.182534	0.467683	0.442506	0.078430	-0.051758	-0.018188	0.999994	0.000913	0.002338	0.002213	
49230	    0	7.048460	-3.687788	-0.025262	0.060082	0.550271	0.527574	0.070580	-0.036692	-0.000458	0.999992	0.000300	0.002751	0.002638	
49231	    0	6.227730	-2.961158	0.423295	-0.057221	0.487710	0.614168	0.062378	-0.029419	0.004089	0.999991	-0.000286	0.002439	0.003071	
49232	    0	5.536832	-2.715542	0.506017	-0.214577	0.486375	0.701525	0.055475	-0.026956	0.004954	0.999990	-0.001073	0.002432	0.003508	
49233	    0	5.077355	-2.840414	0.827370	-0.426485	0.610545	0.740818	0.050903	-0.028198	0.008179	0.999986	-0.002132	0.003053	0.003704	
49234	    0	4.560291	-2.594161	1.440142	-0.678639	0.691990	0.708203	0.045744	-0.025731	0.014331	0.999982	-0.003393	0.003460	0.003541	
49235	    0	3.615136	-1.082678	2.204269	-0.890356	0.649456	0.600437	0.036255	-0.010620	0.021973	0.999980	-0.004452	0.003247	0.003002	
49236	    0	2.324212	1.608631	2.978181	-0.818447	0.516131	0.441363	0.023283	0.016259	0.029655	0.999986	-0.004092	0.002581	0.002207	
49237	    0	1.097300	4.953767	3.120535	-0.462914	0.431062	0.216675	0.010986	0.049622	0.031067	0.999994	-0.002315	0.002155	0.001083	
49238	    0	0.230143	8.226032	2.475136	-0.156021	0.354386	-0.113297	0.002392	0.082278	0.024683	0.999997	-0.000780	0.001772	-0.000566	
49239	    0	0.092076	10.985587	0.789891	-0.267792	0.061226	-0.541688	0.001221	0.109863	0.007751	0.999995	-0.001339	0.000306	-0.002708	
49240	    0	1.243198	14.201324	-0.672571	-0.495913	-0.289346	-0.913052	0.013090	0.141937	-0.007059	0.999985	-0.002480	-0.001447	-0.004565	
49241	    0	4.401738	14.104772	-0.980203	-2.126935	-0.035859	-1.108578	0.044800	0.140686	-0.011292	0.999928	-0.010634	-0.000179	-0.005543	
49242	    0	4.963919	-6.929089	-7.872595	-6.476980	-0.778336	-0.206793	0.049866	-0.071838	-0.076233	0.999467	-0.032379	-0.003891	-0.001034	
49243	    0	17.233171	-25.666713	-28.664999	-6.608977	-1.987100	1.162957	0.176636	-0.264893	-0.276245	0.999388	-0.033038	-0.009933	0.005814	
49244	    0	50.553650	-22.691841	-10.993160	0.873801	2.961501	1.654328	0.505676	-0.222231	-0.118397	0.999846	0.004369	0.014807	0.008271	
49245	    0	54.687307	-19.794303	1.046982	1.261927	1.321628	1.200128	0.548096	-0.194702	0.005615	0.999940	0.006310	0.006608	0.006001	
49246	    0	8.461984	2.094658	20.983623	2.775664	0.310526	-0.159841	0.084961	0.017965	0.209968	0.999902	0.013878	0.001553	-0.000799	
49247	    0	11.830985	21.040023	0.775770	1.602971	-1.264790	-1.022361	0.119324	0.209717	0.010193	0.999934	0.008015	-0.006324	-0.005112	
49248	    0	15.942120	28.814198	-4.791802	0.151257	-1.837973	-1.834349	0.162485	0.286696	-0.046217	0.999915	0.000756	-0.009190	-0.009171	
49249	    0	11.437682	14.938332	-15.824122	-2.246978	-0.600275	-2.756650	0.116882	0.145996	-0.159546	0.999837	-0.011234	-0.003001	-0.013783	
49250	    0	6.861339	16.803492	-13.107519	-3.539953	0.498623	-2.696644	0.070518	0.164736	-0.134185	0.999749	-0.017698	0.002493	-0.013482	
49251	    0	8.330373	9.221240	-11.612670	-3.407570	0.760904	-2.772752	0.084106	0.089050	-0.117981	0.999751	-0.017036	0.003804	-0.013863	
49252	    0	12.654689	1.910871	-6.233933	-2.418295	0.757839	-3.045090	0.126573	0.016422	-0.063028	0.999804	-0.012091	0.003789	-0.015224	
49253	    0	19.800311	-2.245284	-5.341172	-0.897826	0.476094	-2.975586	0.197510	-0.025635	-0.053772	0.999876	-0.004489	0.002380	-0.014877	
49254	    0	27.145355	-5.074575	-3.722409	0.495546	0.250253	-2.793979	0.270663	-0.054438	-0.037695	0.999898	0.002478	0.001251	-0.013969	
49255	    0	28.979735	-6.384086	-4.158847	1.284273	-0.269329	-2.929813	0.288879	-0.067810	-0.041626	0.999870	0.006421	-0.001347	-0.014648	
49256	    0	26.327576	-3.524737	-3.340771	1.111473	-0.526457	-3.417203	0.262712	-0.039556	-0.032928	0.999835	0.005557	-0.002632	-0.017085	
49257	    0	23.769873	-1.399240	-1.160702	0.580631	-0.666658	-3.663089	0.237427	-0.018311	-0.010864	0.999822	0.002903	-0.003333	-0.018314	
49258	    0	22.147907	-1.680999	-0.144269	0.029184	-0.713580	-3.648777	0.221127	-0.020846	-0.000656	0.999826	0.000146	-0.003568	-0.018243	
49259	    0	19.316064	-1.090597	-0.815685	-0.523217	-0.510437	-3.730236	0.192932	-0.014526	-0.007629	0.999819	-0.002616	-0.002552	-0.018650	
49260	    0	16.549908	-0.178373	-1.888504	-1.291739	-0.034525	-3.700302	0.165430	-0.004967	-0.018831	0.999807	-0.006458	-0.000173	-0.018500	
49261	    0	13.290557	0.288368	-2.250760	-1.941624	0.463899	-3.548677	0.132874	0.000305	-0.022827	0.999792	-0.009707	0.002319	-0.017742	
49262	    0	10.337631	-1.040379	-1.020040	-2.460660	0.582547	-3.349550	0.103151	-0.012259	-0.010358	0.999780	-0.012302	0.002913	-0.016747	
49263	    0	8.164856	-2.293877	-1.254016	-2.814699	0.458752	-3.195435	0.081238	-0.024414	-0.012390	0.999770	-0.014072	0.002294	-0.015976	
49264	    0	5.849439	-4.140312	-1.973943	-2.997054	0.386268	-3.022805	0.057819	-0.042571	-0.019219	0.999771	-0.014984	0.001931	-0.015113	
49265	    0	3.406101	-7.206890	0.014067	-2.983297	0.361849	-2.712435	0.033081	-0.072510	0.001160	0.999795	-0.014915	0.001809	-0.013561	
49266	    0	2.690185	-10.522734	2.379814	-2.740049	0.221836	-2.214547	0.025764	-0.105178	0.025210	0.999844	-0.013700	0.001109	-0.011072	
49267	    0	3.316592	-13.764250	3.230916	-2.372061	0.031472	-1.639614	0.032043	-0.137512	0.033936	0.999896	-0.011860	0.000157	-0.008198	
49268	    0	4.291571	-16.380530	1.764849	-1.981968	-0.210957	-1.034568	0.042048	-0.163838	0.019317	0.999936	-0.009910	-0.001055	-0.005173	
49269	    0	4.979817	-17.825446	-1.834155	-1.581592	-0.095941	-0.549323	0.049316	-0.178528	-0.016907	0.999965	-0.007908	-0.000480	-0.002747	
49270	    0	4.928517	-16.222616	-1.969900	-0.618173	0.346185	-0.270272	0.049032	-0.162353	-0.019282	0.999992	-0.003091	0.001731	-0.001351	
49271	    0	4.604982	-11.970629	-2.173286	0.859264	0.399782	-0.077057	0.045959	-0.119629	-0.022339	0.999989	0.004296	0.001999	-0.000385	
49272	    0	4.551217	-8.496579	-2.627440	1.962694	0.272183	0.115587	0.045525	-0.084676	-0.027168	0.999950	0.009813	0.001361	0.000578	
49273	    0	4.916506	-6.628468	-1.762830	2.334841	0.381479	0.378427	0.049255	-0.065979	-0.018494	0.999928	0.011674	0.001907	0.001892	
49274	    0	5.404255	-4.946287	0.212623	2.093933	0.709931	0.583852	0.054193	-0.049322	0.001417	0.999934	0.010469	0.003550	0.002919	
49275	    0	5.719519	-2.659160	1.969537	1.518463	0.933852	0.657664	0.057373	-0.026550	0.019226	0.999954	0.007592	0.004669	0.003288	
49276	    0	5.564406	-0.604768	2.757764	0.639539	0.982674	0.698858	0.055799	-0.005940	0.027285	0.999976	0.003198	0.004913	0.003494	
49277	    0	5.192074	0.680518	2.446572	-0.017357	0.901037	0.814824	0.052002	0.007019	0.024231	0.999981	-0.000087	0.004505	0.004074	
49278	    0	5.220454	1.043047	1.456885	-0.557523	0.812728	1.036653	0.052208	0.010741	0.014327	0.999973	-0.002788	0.004064	0.005183	
49279	    0	5.217552	0.572221	1.165513	-1.082435	0.801860	1.223009	0.052185	0.006104	0.011414	0.999958	-0.005412	0.004009	0.006115	
49280	    0	5.432789	-0.115603	0.387822	-1.246473	0.801863	1.357483	0.054349	-0.000764	0.003666	0.999949	-0.006232	0.004009	0.006787	
49281	    0	5.891214	-0.986665	-0.592500	-1.149770	0.792899	1.496150	0.058960	-0.009460	-0.006104	0.999948	-0.005749	0.003964	0.007481	
49282	    0	6.640009	-1.675179	-0.958961	-0.849738	0.802816	1.595142	0.066492	-0.016263	-0.009787	0.999950	-0.004249	0.004014	0.007976	
49283	    0	7.110333	-1.913713	-0.811500	-0.421149	0.804341	1.685359	0.071228	-0.018555	-0.008362	0.999953	-0.002106	0.004022	0.008427	
49284	    0	7.091456	-1.687370	-0.769275	0.087739	0.784505	1.775197	0.071030	-0.016240	-0.007978	0.999952	0.000439	0.003922	0.008876	
49285	    0	6.892950	-1.533648	-1.043675	0.613606	0.753036	1.899755	0.069031	-0.014648	-0.010742	0.999943	0.003068	0.003765	0.009499	
49286	    0	6.759569	-1.893634	-1.040301	0.994896	0.708406	2.008294	0.067743	-0.018204	-0.010735	0.999930	0.004974	0.003542	0.010041	
49287	    0	6.513576	-2.490423	-0.796839	1.247629	0.551620	2.092797	0.065369	-0.024170	-0.008301	0.999922	0.006238	0.002758	0.010464	
49288	    0	6.349493	-3.248741	-1.248762	1.392975	0.315103	2.133810	0.063816	-0.031719	-0.012811	0.999917	0.006965	0.001575	0.010669	
49289	    0	6.189405	-3.979663	-2.460827	1.414721	0.053407	2.189698	0.062317	-0.038940	-0.024902	0.999914	0.007073	0.000267	0.010948	
49290	    0	6.314091	-4.620073	-3.777636	1.370279	-0.164037	2.262563	0.063687	-0.045222	-0.038036	0.999911	0.006851	-0.000820	0.011312	
49291	    0	6.761764	-4.722412	-4.633471	1.420639	-0.279054	2.388078	0.068237	-0.046082	-0.046570	0.999902	0.007103	-0.001395	0.011940	
49292	    0	8.024064	-4.459830	-5.203877	1.596511	-0.349630	2.539159	0.080886	-0.043158	-0.052246	0.999886	0.007982	-0.001748	0.012695	
49293	    0	10.684592	-3.696055	-7.342400	1.798330	-0.593403	2.700928	0.107544	-0.034851	-0.073425	0.999864	0.008991	-0.002967	0.013504	
49294	    0	13.250918	-4.514200	-10.769927	2.019611	-1.302027	2.713543	0.133795	-0.042248	-0.107267	0.999835	0.010098	-0.006510	0.013567	
49295	    0	16.174966	-8.805563	-16.859719	2.341815	-2.063132	2.643769	0.164612	-0.083923	-0.167908	0.999790	0.011708	-0.010315	0.013218	
49296	    0	21.912288	-9.248765	-20.848498	2.847684	-1.522936	2.592844	0.221857	-0.086658	-0.208064	0.999785	0.014237	-0.007614	0.012963	
49297	    0	28.414433	-5.506294	-15.374100	3.585340	-0.163854	2.524006	0.284912	-0.048706	-0.154419	0.999759	0.017925	-0.000819	0.012619	
49298	    0	33.566145	-2.556186	-9.474650	3.713717	0.504916	2.305408	0.335671	-0.019917	-0.095999	0.999758	0.018567	0.002524	0.011526	
49299	    0	33.401455	2.653334	-7.142047	3.154381	0.166331	2.262258	0.333618	0.031433	-0.071228	0.999811	0.015771	0.000832	0.011311	
49300	    0	28.729711	4.991498	-7.143565	2.909474	-0.293751	2.740280	0.286672	0.054873	-0.070240	0.999799	0.014546	-0.001469	0.013700	
49301	    0	25.525305	5.345988	-8.643305	2.727907	-0.449406	3.257999	0.254517	0.058777	-0.085083	0.999771	0.013638	-0.002247	0.016289	
49302	    0	24.444422	7.980492	-8.364357	2.359958	-0.457800	3.632833	0.243118	0.085204	-0.082102	0.999763	0.011799	-0.002289	0.018163	
49303	    0	23.088604	10.334345	-5.656287	1.876214	-0.602578	3.843225	0.229004	0.108276	-0.054871	0.999766	0.009380	-0.003013	0.019215	
49304	    0	21.280145	9.846304	-2.711083	1.124643	-0.946677	3.593671	0.211108	0.102413	-0.025540	0.999811	0.005623	-0.004733	0.017967	
49305	    0	18.516193	8.170862	-1.270862	0.181778	-1.322231	2.919895	0.184021	0.084412	-0.011414	0.999870	0.000909	-0.006611	0.014599	
49306	    0	15.353008	5.488935	-0.150426	-0.234993	-1.675851	2.229954	0.152911	0.056596	-0.000287	0.999902	-0.001175	-0.008379	0.011149	
49307	    0	12.493292	1.346906	1.296002	0.256545	-1.796767	1.625101	0.124695	0.014465	0.014099	0.999926	0.001283	-0.008984	0.008125	
49308	    0	10.516426	-1.252984	2.685461	1.295118	-1.618421	0.984595	0.105003	-0.012190	0.027625	0.999933	0.006475	-0.008092	0.004923	
49309	    0	9.634259	-0.596052	2.526951	2.260655	-1.280822	0.431836	0.096191	-0.006042	0.025818	0.999913	0.011303	-0.006404	0.002159	
49310	    0	9.208478	2.213643	2.528587	2.670001	-1.144449	0.059893	0.091930	0.021819	0.026105	0.999894	0.013350	-0.005722	0.000299	
49311	    0	8.414402	4.727498	1.605620	2.355259	-0.993947	-0.193029	0.084106	0.046997	0.017029	0.999917	0.011776	-0.004970	-0.000965	
49312	    0	6.852682	7.094554	-0.123852	1.710152	-0.509460	-0.362020	0.068657	0.070827	-0.000458	0.999958	0.008551	-0.002547	-0.001810	
49313	    0	4.381998	9.651620	-0.134913	0.758555	-0.030518	-0.386049	0.044006	0.096436	-0.000977	0.999990	0.003793	-0.000153	-0.001930	
49314	    0	2.812021	12.157114	0.161575	-0.355721	0.078011	-0.359726	0.028339	0.121523	0.001389	0.999996	-0.001779	0.000390	-0.001799	
49315	    0	2.687436	11.925804	-0.059422	-0.995450	0.244905	-0.379946	0.027100	0.119202	-0.001221	0.999985	-0.004977	0.001225	-0.001900	
49316	    0	3.242993	8.969253	0.299018	-1.157197	0.588612	-0.393108	0.032614	0.089643	0.002376	0.999976	-0.005786	0.002943	-0.001966	
49317	    0	3.276205	6.442421	0.497322	-1.227581	0.744826	-0.368503	0.032898	0.064392	0.004456	0.999972	-0.006138	0.003724	-0.001842	
49318	    0	3.387255	3.904078	0.915007	-0.999266	0.618557	-0.371554	0.033973	0.039022	0.008850	0.999981	-0.004996	0.003093	-0.001858	
49319	    0	3.602785	0.803460	1.455305	-0.568391	0.360299	-0.444795	0.036072	0.007996	0.014465	0.999991	-0.002842	0.001801	-0.002224	
49320	    0	3.888792	-2.013584	0.469439	-0.412560	0.064469	-0.590326	0.038830	-0.020241	0.004724	0.999993	-0.002063	0.000322	-0.002952	
49321	    0	4.108113	-3.637930	-0.805128	-0.724796	-0.221826	-0.741581	0.040955	-0.036560	-0.007874	0.999986	-0.003624	-0.001109	-0.003708	
49322	    0	4.071515	-3.519582	-2.072040	-1.375405	-0.533110	-0.819979	0.040625	-0.035503	-0.020369	0.999964	-0.006877	-0.002666	-0.004100	
49323	    0	4.112781	-2.757116	-2.882926	-1.973767	-0.840587	-0.789660	0.041138	-0.028015	-0.028381	0.999934	-0.009869	-0.004203	-0.003948	
49324	    0	4.549155	-2.916700	-3.001023	-2.160889	-0.925850	-0.700587	0.045526	-0.029647	-0.029481	0.999925	-0.010804	-0.004629	-0.003503	
49325	    0	5.076815	-3.793952	-3.482197	-1.730947	-0.745404	-0.603495	0.050781	-0.038391	-0.034302	0.999950	-0.008655	-0.003727	-0.003017	
49326	    0	5.717356	-4.819156	-4.701058	-0.908856	-0.361826	-0.478938	0.057142	-0.048541	-0.046687	0.999985	-0.004544	-0.001809	-0.002395	
49327	    0	6.089648	-5.952505	-5.365535	-0.243378	0.020027	-0.335694	0.060791	-0.059692	-0.053589	0.999997	-0.001217	0.000100	-0.001678	
49328	    0	6.247576	-6.908402	-5.404034	0.021935	0.203705	-0.126457	0.062377	-0.069118	-0.054111	0.999999	0.000110	0.001019	-0.000632	
49329	    0	6.438106	-7.395141	-4.674656	0.087166	0.299072	0.054169	0.064331	-0.073914	-0.046875	0.999998	0.000436	0.001495	0.000271	
49330	    0	6.590876	-7.241317	-3.042540	0.144005	0.445748	0.189972	0.065909	-0.072329	-0.030624	0.999996	0.000720	0.002229	0.000950	
49331	    0	6.379915	-6.270607	-0.888187	0.263215	0.598336	0.225831	0.063843	-0.062622	-0.009155	0.999993	0.001316	0.002992	0.001129	
49332	    0	6.032337	-4.803526	0.639958	0.376321	0.684740	0.242806	0.060403	-0.047974	0.006103	0.999991	0.001882	0.003424	0.001214	
49333	    0	5.503492	-3.270335	1.153585	0.385285	0.658609	0.259400	0.055115	-0.032654	0.011292	0.999991	0.001926	0.003293	0.001297	
49334	    0	4.968727	-1.979738	1.065179	0.309373	0.591279	0.284386	0.049747	-0.019743	0.010474	0.999993	0.001547	0.002956	0.001422	
49335	    0	4.457974	-0.866462	0.994246	0.080109	0.503731	0.280762	0.044617	-0.008606	0.009827	0.999995	0.000401	0.002519	0.001404	
49336	    0	4.087600	0.123393	1.182754	-0.248337	0.421715	0.241661	0.040899	0.001298	0.011740	0.999996	-0.001242	0.002109	0.001208	
49337	    0	4.025949	1.107223	1.830028	-0.589563	0.392152	0.215912	0.040283	0.011169	0.018188	0.999992	-0.002948	0.001961	0.001080	
49338	    0	3.989939	2.198293	2.378161	-0.868991	0.416948	0.140572	0.039933	0.022114	0.023602	0.999988	-0.004345	0.002085	0.000703	
49339	    0	3.608741	3.350459	2.477438	-0.970463	0.416758	0.035095	0.036133	0.033630	0.024536	0.999986	-0.004852	0.002084	0.000175	
49340	    0	3.086118	4.698836	2.189270	-1.039701	0.423815	-0.111580	0.030933	0.047084	0.021583	0.999984	-0.005198	0.002119	-0.000558	
49341	    0	2.708015	6.335911	1.734206	-1.189431	0.428966	-0.331118	0.027222	0.063416	0.016907	0.999978	-0.005947	0.002145	-0.001656	
49342	    0	2.738251	7.762735	1.122714	-1.291668	0.289920	-0.655752	0.027653	0.077607	0.010686	0.999972	-0.006458	0.001450	-0.003279	
49343	    0	5.170524	7.606672	0.592559	-1.678493	-0.083734	-0.948348	0.052063	0.075867	0.005310	0.999953	-0.008392	-0.000419	-0.004742	
49344	    0	9.002122	-4.263910	-1.902929	-4.684120	-0.264574	-0.493477	0.089939	-0.043289	-0.017901	0.999722	-0.023418	-0.001323	-0.002467	
49345	    0	14.514604	-33.072367	-19.629882	-8.665463	-2.716066	1.408119	0.150024	-0.337708	-0.179749	0.998944	-0.043312	-0.013576	0.007038	
49346	    0	38.575735	-40.625034	-28.451039	0.141720	1.700834	2.085177	0.387524	-0.402013	-0.288087	0.999908	0.000709	0.008504	0.010426	
49347	    0	47.801390	-17.445540	8.125418	2.222005	1.885337	2.449184	0.480835	-0.169434	0.074829	0.999819	0.011109	0.009426	0.012245	
49348	    0	21.328607	4.061170	17.916954	3.983964	0.114640	0.862372	0.213222	0.037953	0.179821	0.999792	0.019918	0.000573	0.004312	
49349	    0	11.562374	25.379659	-1.302696	2.575217	-1.779248	-0.247203	0.116028	0.253784	-0.008728	0.999876	0.012876	-0.008896	-0.001236	
49350	    0	14.727896	29.638817	-9.183572	0.393876	-1.794662	-1.276234	0.149980	0.295615	-0.089915	0.999937	0.001969	-0.008973	-0.006381	
49351	    0	8.306852	18.273892	-19.754127	-1.947678	-0.625637	-2.487290	0.085938	0.179749	-0.199036	0.999870	-0.009738	-0.003128	-0.012436	
49352	    0	3.804854	15.328908	-11.158597	-3.285284	0.509302	-2.789907	0.039876	0.150880	-0.114178	0.999764	-0.016425	0.002546	-0.013948	
49353	    0	4.602602	11.595760	-13.000569	-3.686124	0.416797	-3.152014	0.047546	0.112793	-0.132202	0.999703	-0.018429	0.002084	-0.015759	
49354	    0	9.977715	6.100009	-10.099603	-2.734575	0.148021	-3.173488	0.100638	0.058019	-0.101877	0.999780	-0.013672	0.000740	-0.015866	
49355	    0	16.767677	1.750501	-7.330116	-0.894781	0.065616	-3.303689	0.167908	0.014404	-0.073425	0.999853	-0.004474	0.000328	-0.016518	
49356	    0	22.947222	-0.074624	-4.500673	0.511192	-0.040247	-3.242829	0.229430	-0.004352	-0.044969	0.999865	0.002556	-0.000201	-0.016213	
49357	    0	30.254111	-3.662405	-6.857217	1.620752	-0.472282	-2.948903	0.302124	-0.040527	-0.068176	0.999855	0.008103	-0.002361	-0.014744	
49358	    0	32.936676	-3.674705	-6.575947	1.271697	-0.681532	-3.270896	0.328934	-0.041715	-0.064893	0.999840	0.006358	-0.003407	-0.016354	
49359	    0	28.375070	-2.553252	-2.452015	0.696606	-0.878006	-3.661570	0.283325	-0.030640	-0.023376	0.999816	0.003483	-0.004390	-0.018307	
49360	    0	24.355845	-2.219328	-0.393047	0.369479	-1.146015	-3.922547	0.243078	-0.026958	-0.002584	0.999789	0.001847	-0.005730	-0.019611	
49361	    0	21.790750	-1.922010	-0.397801	-0.395995	-0.923034	-4.094236	0.217468	-0.023682	-0.002930	0.999778	-0.001980	-0.004615	-0.020470	
49362	    0	19.982616	0.035329	-0.731208	-1.068004	-0.358799	-4.083557	0.199790	-0.003764	-0.006941	0.999775	-0.005340	-0.001794	-0.020416	
49363	    0	17.306415	1.366421	-1.141857	-1.865536	0.154317	-3.953868	0.173279	0.010132	-0.011658	0.999761	-0.009327	0.000772	-0.019768	
49364	    0	14.094196	0.561142	-0.554548	-2.871784	0.492524	-3.756114	0.140999	0.002880	-0.005947	0.999717	-0.014358	0.002462	-0.018779	
49365	    0	11.465108	-1.063492	-0.136871	-3.431090	0.526481	-3.448830	0.114441	-0.012634	-0.001465	0.999701	-0.017154	0.002632	-0.017242	
49366	    0	9.138108	-3.379850	-0.413454	-3.605234	0.470016	-3.121865	0.090829	-0.035289	-0.003721	0.999713	-0.018024	0.002350	-0.015608	
49367	    0	5.988857	-6.477192	-0.455175	-3.388490	0.323703	-2.821580	0.058960	-0.065674	-0.003540	0.999755	-0.016941	0.001618	-0.014107	
49368	    0	3.499129	-9.301874	0.020173	-3.074847	0.070004	-2.499172	0.033826	-0.093429	0.001624	0.999804	-0.015373	0.000350	-0.012495	
49369	    0	3.705211	-11.207483	0.870487	-2.968569	-0.028993	-2.070731	0.035889	-0.112305	0.010376	0.999836	-0.014842	-0.000145	-0.010353	
49370	    0	4.320343	-13.356785	1.028942	-2.913799	-0.042727	-1.580120	0.042145	-0.133735	0.012246	0.999862	-0.014568	-0.000214	-0.007900	
49371	    0	4.871069	-14.963021	-0.702563	-2.639097	-0.179869	-1.071966	0.047913	-0.149963	-0.005005	0.999898	-0.013195	-0.000899	-0.005360	
49372	    0	5.725545	-15.449089	-2.659096	-1.877816	0.010681	-0.664531	0.056740	-0.154921	-0.025141	0.999949	-0.009389	0.000053	-0.003323	
49373	    0	5.800662	-14.792953	-2.175627	-0.889401	0.492861	-0.372316	0.057678	-0.148132	-0.021240	0.999985	-0.004447	0.002464	-0.001862	
49374	    0	5.851377	-12.336263	-1.333980	0.210190	0.761416	-0.123597	0.058386	-0.123384	-0.013692	0.999991	0.001051	0.003807	-0.000618	
49375	    0	5.909561	-8.930693	-0.912309	1.180277	0.805099	0.056458	0.059082	-0.089233	-0.009888	0.999974	0.005901	0.004025	0.000282	
49376	    0	5.918151	-6.553553	-0.567129	1.697565	0.729953	0.196269	0.059223	-0.065425	-0.006443	0.999956	0.008488	0.003650	0.000981	
49377	    0	5.660649	-5.262820	0.253254	1.666283	0.714312	0.333409	0.056702	-0.052551	0.001892	0.999957	0.008331	0.003572	0.001667	
49378	    0	5.663846	-3.882645	1.428145	1.181423	0.856789	0.430302	0.056782	-0.038787	0.013809	0.999970	0.005907	0.004284	0.002151	
49379	    0	5.691570	-1.343647	2.503113	0.492862	0.978285	0.459292	0.057068	-0.013367	0.024719	0.999982	0.002464	0.004891	0.002296	
49380	    0	5.233611	0.469991	2.594459	-0.042916	0.941853	0.465777	0.052446	0.004827	0.025697	0.999986	-0.000215	0.004709	0.002329	
49381	    0	4.842606	1.159783	1.779734	-0.432398	0.800327	0.593570	0.048462	0.011780	0.017578	0.999985	-0.002162	0.004002	0.002968	
49382	    0	4.836158	0.820250	0.558957	-0.798422	0.781638	0.801856	0.048349	0.008418	0.005367	0.999976	-0.003992	0.003908	0.004009	
49383	    0	4.937581	0.006673	0.076521	-1.025211	0.869761	0.952922	0.049377	0.000305	0.000549	0.999966	-0.005126	0.004349	0.004765	
49384	    0	5.035284	-0.945589	-0.526710	-0.989163	0.921070	1.072325	0.050378	-0.009212	-0.005453	0.999962	-0.004946	0.004605	0.005362	
49385	    0	5.304700	-1.833598	-1.222395	-0.797091	0.898753	1.200881	0.053101	-0.018066	-0.012390	0.999964	-0.003985	0.004494	0.006004	
49386	    0	5.808011	-2.193943	-1.408584	-0.440984	0.886164	1.342026	0.058163	-0.021581	-0.014296	0.999965	-0.002205	0.004431	0.006710	
49387	    0	6.142708	-2.231302	-1.472977	0.073434	0.900280	1.486225	0.061523	-0.021851	-0.015015	0.999962	0.000367	0.004501	0.007431	
49388	    0	6.147041	-2.203991	-1.373346	0.658618	0.888076	1.615550	0.061584	-0.021497	-0.014078	0.999951	0.003293	0.004440	0.008078	
49389	    0	5.772871	-2.261034	-1.329176	1.167322	0.866145	1.721228	0.057861	-0.022034	-0.013672	0.999936	0.005836	0.004331	0.008606	
49390	    0	5.725358	-2.639254	-1.404707	1.466026	0.797674	1.829957	0.057434	-0.025763	-0.014466	0.999923	0.007330	0.003988	0.009150	
49391	    0	5.927106	-3.085136	-1.629472	1.538318	0.656909	1.926474	0.059509	-0.030151	-0.016724	0.999918	0.007691	0.003284	0.009632	
49392	    0	5.974958	-3.312826	-2.113970	1.397169	0.500883	1.988462	0.060020	-0.032383	-0.021518	0.999923	0.006986	0.002504	0.009942	
49393	    0	5.692037	-3.103831	-2.088877	1.165799	0.393114	2.034807	0.057190	-0.030334	-0.021179	0.999928	0.005829	0.001966	0.010174	
49394	    0	5.868522	-2.741366	-1.913098	0.972961	0.341232	2.099848	0.058935	-0.026702	-0.019362	0.999931	0.004865	0.001706	0.010499	
49395	    0	6.870013	-2.205927	-1.609532	0.840779	0.321396	2.181295	0.068909	-0.021240	-0.016296	0.999930	0.004204	0.001607	0.010906	
49396	    0	8.651123	-1.668722	-1.977283	0.817129	0.339707	2.291356	0.086660	-0.015614	-0.019985	0.999924	0.004086	0.001698	0.011456	
49397	    0	10.878977	-1.154504	-4.181136	0.884461	0.134281	2.368227	0.108887	-0.010071	-0.041931	0.999920	0.004422	0.000671	0.011841	
49398	    0	13.449641	-2.132378	-7.106434	0.975636	-0.400364	2.354878	0.134874	-0.019391	-0.070892	0.999916	0.004878	-0.002002	0.011774	
49399	    0	16.289238	-6.672242	-12.534221	1.262705	-0.993188	2.253795	0.164246	-0.064087	-0.124939	0.999904	0.006313	-0.004966	0.011269	
49400	    0	20.508350	-9.568744	-16.684654	1.768550	-0.626202	2.021854	0.206550	-0.092128	-0.167027	0.999905	0.008842	-0.003131	0.010109	
49401	    0	27.008997	-7.685627	-14.030909	2.588761	0.337424	1.772382	0.270508	-0.072632	-0.141724	0.999875	0.012943	0.001687	0.008862	
49402	    0	34.278587	-4.815942	-8.782843	2.982099	0.785486	1.604352	0.342800	-0.044080	-0.089852	0.999848	0.014910	0.003927	0.008021	
49403	    0	34.118844	0.542340	-7.416129	2.887105	0.461029	1.807493	0.340942	0.009583	-0.074829	0.999852	0.014435	0.002305	0.009037	
49404	    0	26.939644	4.595278	-8.211850	2.729575	-0.232901	2.547222	0.268867	0.050491	-0.081137	0.999825	0.013647	-0.001164	0.012735	
49405	    0	25.656952	6.490469	-9.653422	2.639404	-0.561567	3.383901	0.255676	0.070496	-0.094910	0.999765	0.013196	-0.002808	0.016918	
49406	    0	25.479858	8.274591	-9.720221	2.380023	-0.650658	4.060555	0.253345	0.089042	-0.095342	0.999718	0.011899	-0.003253	0.020301	
49407	    0	24.238033	9.338994	-7.522847	1.935766	-0.764349	4.361386	0.240540	0.099365	-0.073364	0.999707	0.009678	-0.003821	0.021805	
49408	    0	22.688754	8.634930	-5.749485	1.459055	-1.002587	4.147881	0.225308	0.091444	-0.055708	0.999745	0.007295	-0.005013	0.020738	
49409	    0	19.979606	7.187004	-4.356655	0.898799	-1.245768	3.577649	0.198730	0.075623	-0.041992	0.999810	0.004494	-0.006228	0.017887	
49410	    0	16.941942	5.151489	-2.648257	0.519586	-1.654131	2.883093	0.168863	0.054018	-0.024946	0.999858	0.002598	-0.008270	0.014415	
49411	    0	13.543614	2.321708	-1.646055	0.599884	-1.938703	2.240839	0.135315	0.024780	-0.015076	0.999886	0.002999	-0.009693	0.011204	
49412	    0	10.904003	0.300735	0.699809	1.225513	-2.007743	1.619585	0.108933	0.003842	0.008114	0.999898	0.006127	-0.010038	0.008098	
49413	    0	10.440354	0.981974	1.761547	2.167783	-1.827308	0.979651	0.104187	0.010132	0.018677	0.999887	0.010839	-0.009136	0.004898	
49414	    0	10.608675	3.996859	2.066946	2.917810	-1.608925	0.547054	0.105803	0.039943	0.022104	0.999857	0.014588	-0.008044	0.002735	
49415	    0	10.338414	6.547553	1.117784	2.939737	-1.430385	0.261700	0.103210	0.065430	0.012878	0.999866	0.014698	-0.007152	0.001308	
49416	    0	8.936709	8.628102	-1.392454	2.127699	-1.139859	0.023652	0.089431	0.086430	-0.012496	0.999927	0.010638	-0.005699	0.000118	
49417	    0	6.293819	10.488522	-2.167806	1.223955	-0.513462	-0.108338	0.063049	0.104980	-0.020874	0.999977	0.006120	-0.002567	-0.000542	
49418	    0	3.559332	11.978558	-0.724587	0.235558	-0.127983	-0.112915	0.035666	0.119774	-0.007082	0.999998	0.001178	-0.000640	-0.000565	
49419	    0	2.295252	12.847898	0.325726	-0.701143	-0.006676	-0.090027	0.023010	0.128479	0.002808	0.999993	-0.003506	-0.000033	-0.000450	
49420	    0	2.244972	11.724561	0.895470	-0.998311	0.372126	-0.123788	0.022538	0.117274	0.008327	0.999985	-0.004992	0.001861	-0.000619	
49421	    0	2.583545	8.840352	2.320973	-1.037415	0.823218	-0.161744	0.026001	0.088501	0.022644	0.999977	-0.005187	0.004116	-0.000809	
49422	    0	2.879536	6.147222	2.760186	-1.147280	0.860031	-0.207140	0.028976	0.061599	0.027124	0.999973	-0.005736	0.004300	-0.001036	
49423	    0	3.138770	3.053138	3.734034	-0.862126	0.628856	-0.330355	0.031555	0.030640	0.037109	0.999984	-0.004311	0.003144	-0.001652	
49424	    0	3.232754	-0.405295	4.646914	-0.253678	0.246621	-0.512505	0.032374	-0.004077	0.046434	0.999994	-0.001268	0.001233	-0.002563	
49425	    0	3.544300	-3.340633	2.572460	-0.199128	-0.339318	-0.722506	0.035278	-0.033508	0.025818	0.999991	-0.000996	-0.001697	-0.003613	
49426	    0	3.641508	-4.660718	-0.834516	-0.642591	-0.914581	-0.816352	0.036262	-0.046782	-0.008029	0.999975	-0.003213	-0.004573	-0.004082	
49427	    0	3.356393	-4.741986	-4.035323	-1.136035	-1.347945	-0.852980	0.033630	-0.047791	-0.039856	0.999951	-0.005680	-0.006740	-0.004265	
49428	    0	3.351345	-4.409936	-6.399500	-1.287674	-1.406504	-0.831047	0.033776	-0.044649	-0.063472	0.999946	-0.006438	-0.007032	-0.004155	
49429	    0	3.892366	-4.127015	-6.977119	-1.095404	-1.061262	-0.811015	0.039124	-0.041809	-0.069336	0.999962	-0.005477	-0.005306	-0.004055	
49430	    0	5.157645	-4.539995	-5.597563	-0.716976	-0.503352	-0.743679	0.051547	-0.045792	-0.055682	0.999983	-0.003585	-0.002517	-0.003718	
49431	    0	6.735229	-5.765263	-3.392900	-0.018120	0.216675	-0.611879	0.067139	-0.057861	-0.033997	0.999994	-0.000091	0.001083	-0.003059	
49432	    0	7.598422	-6.908976	-2.047068	0.532915	0.663188	-0.372507	0.075787	-0.069176	-0.020906	0.999989	0.002665	0.003316	-0.001863	
49433	    0	7.668838	-7.425453	-2.041576	0.573923	0.640108	-0.061798	0.076599	-0.074219	-0.020874	0.999990	0.002870	0.003201	-0.000309	
49434	    0	6.998268	-7.068747	-2.159482	0.307084	0.429154	0.210190	0.070010	-0.070580	-0.021853	0.999995	0.001535	0.002146	0.001051	
49435	    0	6.459724	-6.202436	-1.587367	0.049782	0.315857	0.404358	0.064697	-0.061890	-0.015991	0.999996	0.000249	0.001579	0.002022	
49436	    0	6.251108	-4.924193	-0.592051	-0.086403	0.332642	0.507737	0.062626	-0.049086	-0.006003	0.999995	-0.000432	0.001663	0.002539	
49437	    0	5.823333	-3.686124	0.293755	-0.234032	0.383759	0.602724	0.058350	-0.036682	0.002869	0.999992	-0.001170	0.001919	0.003014	
49438	    0	5.058097	-2.962120	0.949514	-0.415231	0.363732	0.626757	0.050691	-0.029443	0.009464	0.999990	-0.002076	0.001819	0.003134	
49439	    0	4.410347	-2.227389	1.182629	-0.639155	0.254823	0.640109	0.044189	-0.022095	0.011841	0.999989	-0.003196	0.001274	0.003201	
49440	    0	4.045542	-1.483706	1.622168	-0.879292	0.200082	0.588420	0.040515	-0.014647	0.016246	0.999985	-0.004396	0.001000	0.002942	
49441	    0	3.811204	-0.236277	2.329012	-1.163300	0.254824	0.478366	0.038147	-0.002136	0.023254	0.999979	-0.005816	0.001274	0.002392	
49442	    0	3.677685	1.407057	2.862019	-1.369870	0.332644	0.322154	0.036801	0.014325	0.028461	0.999972	-0.006849	0.001663	0.001611	
49443	    0	3.219067	3.488368	2.723348	-1.421942	0.421909	0.120546	0.032227	0.035095	0.026917	0.999971	-0.007110	0.002110	0.000603	
49444	    0	2.622232	5.560140	2.904905	-1.322376	0.484852	-0.084878	0.026316	0.055780	0.028617	0.999974	-0.006612	0.002424	-0.000424	
49445	    0	1.991898	7.692176	2.821946	-1.067931	0.372317	-0.443271	0.020142	0.077026	0.027771	0.999981	-0.005340	0.001862	-0.002216	
49446	    0	2.457091	10.227862	1.699626	-0.728611	-0.028610	-0.843243	0.025000	0.102235	0.016627	0.999984	-0.003643	-0.000143	-0.004216	
49447	    0	3.708863	14.525627	-0.157998	-0.966463	-0.121309	-1.204693	0.037964	0.145020	-0.002258	0.999969	-0.004832	-0.000607	-0.006023	
49448	    0	6.272140	11.443448	-0.637908	-3.561232	0.099760	-1.268844	0.063441	0.113895	-0.008442	0.999821	-0.017805	0.000499	-0.006344	
49449	    0	6.887785	-17.631267	-12.660052	-8.304821	-1.921473	0.029000	0.070068	-0.181335	-0.118469	0.999091	-0.041512	-0.009604	0.000145	
49450	    0	29.397101	-30.665432	-31.370698	-3.985512	-0.643206	1.273823	0.296936	-0.310926	-0.306587	0.999776	-0.019926	-0.003216	0.006369	
49451	    0	60.531889	-27.555859	-4.044485	1.542742	2.315067	2.129473	0.607666	-0.268738	-0.049561	0.999846	0.007713	0.011575	0.010647	
49452	    0	35.244103	-10.941399	11.587531	1.313801	1.140420	0.660334	0.353452	-0.108997	0.113145	0.999956	0.006569	0.005702	0.003302	
49453	    0	8.205715	8.366525	12.693621	2.836143	-0.620293	-0.753049	0.081970	0.081543	0.128357	0.999887	0.014180	-0.003101	-0.003765	
49454	    0	16.984066	31.131820	-2.725328	1.435318	-1.520388	-1.417579	0.172232	0.310282	-0.023721	0.999920	0.007176	-0.007602	-0.007088	
49455	    0	15.124120	23.407389	-11.815064	-0.597402	-1.522688	-2.327807	0.154846	0.231934	-0.117676	0.999898	-0.002987	-0.007613	-0.011639	
49456	    0	8.806705	17.119130	-16.895046	-2.895554	0.007439	-2.838520	0.090455	0.167449	-0.171396	0.999794	-0.014477	0.000037	-0.014192	
49457	    0	6.047584	16.129816	-15.697171	-3.517431	0.472488	-2.559103	0.062134	0.157715	-0.159912	0.999761	-0.017586	0.002362	-0.012794	
49458	    0	9.292126	6.889524	-11.085945	-3.375707	0.640730	-2.743370	0.093479	0.065728	-0.112286	0.999758	-0.016877	0.003203	-0.013716	
49459	    0	14.783245	1.353875	-8.088692	-1.653367	0.426694	-2.875653	0.147827	0.010742	-0.081299	0.999860	-0.008266	0.002133	-0.014378	
49460	    0	22.815052	-3.058143	-5.699692	-0.277719	0.173384	-2.796265	0.227643	-0.033846	-0.057149	0.999901	-0.001389	0.000867	-0.013981	
49461	    0	28.446596	-5.928265	-5.069311	0.688386	-0.087741	-2.776431	0.283630	-0.063049	-0.050781	0.999897	0.003442	-0.000439	-0.013882	
49462	    0	30.079184	-4.428410	-5.226874	0.874749	-0.503181	-3.119990	0.300185	-0.048743	-0.051720	0.999866	0.004374	-0.002516	-0.015599	
49463	    0	26.172980	-1.880771	-2.582287	0.413537	-0.645293	-3.627222	0.261414	-0.023499	-0.025024	0.999827	0.002068	-0.003226	-0.018135	
49464	    0	23.702685	-1.586844	-0.769087	-0.213064	-0.791218	-3.807881	0.236695	-0.020385	-0.006734	0.999810	-0.001065	-0.003956	-0.019038	
49465	    0	21.277936	-2.459764	-0.758310	-0.617830	-0.681349	-3.828678	0.212280	-0.028687	-0.006775	0.999805	-0.003089	-0.003407	-0.019142	
49466	    0	18.676076	-2.401176	-1.559917	-0.954499	-0.301381	-3.824102	0.186278	-0.027650	-0.015192	0.999804	-0.004772	-0.001507	-0.019119	
49467	    0	15.371953	-2.947720	-1.270151	-1.383296	0.195516	-3.631058	0.153137	-0.032349	-0.012634	0.999810	-0.006916	0.000978	-0.018154	
49468	    0	11.315079	-3.919240	-0.645173	-1.817238	0.383018	-3.259850	0.112479	-0.041087	-0.006300	0.999824	-0.009086	0.001915	-0.016298	
49469	    0	9.090493	-4.125719	-0.522177	-2.314705	0.195324	-2.981745	0.090271	-0.042664	-0.004822	0.999821	-0.011573	0.000977	-0.014908	
49470	    0	6.559118	-4.443544	-1.861608	-2.800741	0.010110	-2.765071	0.064965	-0.045591	-0.017986	0.999805	-0.014003	0.000051	-0.013824	
49471	    0	3.792975	-6.722450	-1.658934	-3.231840	0.040439	-2.414104	0.037109	-0.067932	-0.015503	0.999796	-0.016158	0.000202	-0.012070	
49472	    0	2.381321	-9.667680	1.050262	-3.186792	0.226606	-1.918332	0.022899	-0.096716	0.012017	0.999825	-0.015933	0.001133	-0.009591	
49473	    0	3.185689	-12.733490	2.459089	-2.745928	0.203141	-1.378686	0.031006	-0.127197	0.026306	0.999881	-0.013729	0.001016	-0.006893	
49474	    0	4.034990	-15.111503	1.972833	-2.278957	0.027467	-0.873587	0.039693	-0.151052	0.021444	0.999925	-0.011395	0.000137	-0.004368	
49475	    0	4.619757	-16.612568	0.219131	-1.683638	-0.047303	-0.432592	0.045837	-0.166199	0.003601	0.999962	-0.008418	-0.000237	-0.002163	
49476	    0	4.985775	-16.617913	-1.974739	-0.845721	0.078774	-0.153351	0.049723	-0.166299	-0.019064	0.999990	-0.004229	0.000394	-0.000767	
49477	    0	5.499886	-13.752636	-2.824363	0.157356	0.329590	-0.029755	0.054932	-0.137512	-0.028442	0.999998	0.000787	0.001648	-0.000149	
49478	    0	5.913081	-9.223093	-2.619487	1.234826	0.404361	-0.001335	0.059076	-0.092067	-0.026883	0.999978	0.006174	0.002022	-0.000007	
49479	    0	6.351591	-5.462179	-2.370924	1.921875	0.379378	0.023652	0.063477	-0.054382	-0.024353	0.999951	0.009609	0.001897	0.000118	
49480	    0	6.397692	-3.161007	-1.417169	2.134175	0.475702	0.069620	0.063953	-0.031433	-0.014660	0.999940	0.010671	0.002378	0.000348	
49481	    0	6.212216	-1.307039	0.214453	1.851684	0.619707	0.086214	0.062134	-0.013062	0.001831	0.999951	0.009258	0.003098	0.000431	
49482	    0	5.872437	0.149574	1.242236	1.119240	0.647359	0.093461	0.058764	0.001454	0.012240	0.999978	0.005596	0.003237	0.000467	
49483	    0	5.501671	1.498116	1.614945	0.239563	0.640298	0.191498	0.055054	0.015015	0.015991	0.999993	0.001198	0.003201	0.000957	
49484	    0	5.351795	2.561545	1.131858	-0.473596	0.650789	0.369073	0.053507	0.025741	0.011084	0.999990	-0.002368	0.003254	0.001845	
49485	    0	5.357924	2.314128	0.445563	-0.947387	0.728613	0.575261	0.053528	0.023315	0.004150	0.999977	-0.004737	0.003643	0.002876	
49486	    0	5.377974	1.116158	0.373320	-1.191153	0.876055	0.731476	0.053754	0.011379	0.003430	0.999966	-0.005956	0.004380	0.003657	
49487	    0	5.528267	0.005962	0.350381	-1.093305	0.968372	0.822458	0.055298	0.000305	0.003235	0.999965	-0.005466	0.004842	0.004112	
49488	    0	5.820067	-0.751288	0.430474	-0.751694	1.047145	0.899324	0.058255	-0.007236	0.004027	0.999969	-0.003758	0.005236	0.004497	
49489	    0	6.027770	-1.068030	0.660024	-0.340083	1.098643	0.972757	0.060364	-0.010376	0.006287	0.999971	-0.001700	0.005493	0.004864	
49490	    0	5.943125	-1.056083	0.710991	-0.011444	1.092921	1.056109	0.059524	-0.010246	0.006785	0.999970	-0.000057	0.005465	0.005280	
49491	    0	5.593990	-0.989040	0.696061	0.257876	1.054584	1.130688	0.056030	-0.009583	0.006653	0.999969	0.001289	0.005273	0.005653	
49492	    0	5.335668	-0.944551	0.533641	0.499731	1.015675	1.199164	0.053438	-0.009138	0.005042	0.999966	0.002499	0.005078	0.005996	
49493	    0	5.162690	-1.212060	-0.136301	0.759898	0.927937	1.296251	0.051697	-0.011780	-0.001648	0.999961	0.003799	0.004640	0.006481	
49494	    0	5.214806	-1.739884	-0.836660	0.988785	0.822843	1.434348	0.052236	-0.016982	-0.008666	0.999953	0.004944	0.004114	0.007172	
49495	    0	5.603130	-2.335249	-1.515905	1.107808	0.771536	1.568632	0.056152	-0.022827	-0.015503	0.999946	0.005539	0.003858	0.007843	
49496	    0	6.245332	-2.860032	-1.651826	1.101897	0.766769	1.715122	0.062631	-0.027971	-0.016913	0.999940	0.005509	0.003834	0.008575	
49497	    0	6.760636	-2.884647	-1.484041	1.065087	0.789087	1.856272	0.067810	-0.028137	-0.015259	0.999934	0.005325	0.003945	0.009281	
49498	    0	6.736713	-2.699446	-1.373838	1.022172	0.811596	1.979684	0.067573	-0.026255	-0.014148	0.999929	0.005111	0.004058	0.009898	
49499	    0	6.398647	-2.666870	-1.268973	0.978112	0.760097	2.075246	0.064209	-0.025940	-0.013062	0.999927	0.004890	0.003800	0.010376	
49500	    0	6.386633	-2.985398	-1.188720	0.865576	0.685327	2.162414	0.064142	-0.029109	-0.012234	0.999926	0.004328	0.003427	0.010812	
49501	    0	6.854475	-3.719750	-1.304893	0.776883	0.687426	2.235469	0.068909	-0.036377	-0.013428	0.999924	0.003884	0.003437	0.011177	
49502	    0	8.349600	-3.807830	-2.494570	0.900293	0.654239	2.316348	0.083846	-0.036995	-0.025388	0.999917	0.004501	0.003271	0.011581	
49503	    0	11.093980	-3.344666	-5.855702	1.132998	0.395405	2.365182	0.111206	-0.031799	-0.058960	0.999911	0.005665	0.001977	0.011826	
49504	    0	14.322335	-4.779920	-9.703815	1.422164	-0.135998	2.361563	0.143835	-0.045412	-0.097269	0.999905	0.007111	-0.000680	0.011807	
49505	    0	17.831911	-8.728764	-15.415837	1.972464	-0.371566	2.259150	0.179565	-0.083740	-0.154663	0.999886	0.009862	-0.001858	0.011295	
49506	    0	23.375263	-9.423004	-16.311347	2.686819	0.274290	2.039053	0.234457	-0.089637	-0.164660	0.999856	0.013433	0.001371	0.010195	
49507	    0	31.954715	-7.884716	-12.422594	3.241933	0.979103	1.884578	0.319641	-0.073792	-0.127014	0.999812	0.016209	0.004895	0.009422	
49508	    0	38.745589	-2.722850	-9.985846	3.014161	0.979097	1.835163	0.387178	-0.022147	-0.102114	0.999832	0.015070	0.004895	0.009175	
49509	    0	34.438211	3.995532	-9.497301	2.682633	0.301567	2.253839	0.343750	0.045105	-0.094910	0.999845	0.013412	0.001508	0.011269	
49510	    0	29.470678	7.240586	-10.796359	2.450911	-0.396182	3.057105	0.293753	0.078212	-0.106446	0.999805	0.012254	-0.001981	0.015285	
49511	    0	28.843879	8.218272	-11.078369	2.138886	-0.717222	3.834087	0.287170	0.088867	-0.108826	0.999752	0.010694	-0.003586	0.019169	
49512	    0	25.687576	8.051262	-8.827680	1.714103	-0.912751	4.315207	0.255445	0.086781	-0.086383	0.999720	0.008570	-0.004563	0.021574	
49513	    0	23.357190	6.248691	-6.081822	1.509236	-1.167216	4.343059	0.232483	0.067993	-0.058960	0.999719	0.007545	-0.005836	0.021713	
49514	    0	23.450711	5.280617	-5.351328	1.280507	-1.497962	3.936132	0.233793	0.057746	-0.051401	0.999758	0.006402	-0.007489	0.019679	
49515	    0	21.667287	5.013696	-4.635124	0.884301	-1.895831	3.232774	0.216248	0.053833	-0.044067	0.999814	0.004421	-0.009479	0.016163	
49516	    0	17.153448	3.246111	-2.636958	1.082475	-2.168002	2.498944	0.171381	0.034739	-0.024327	0.999848	0.005412	-0.010839	0.012494	
49517	    0	13.078727	1.375309	-0.894141	2.122603	-2.049930	1.800627	0.130737	0.015015	-0.007446	0.999850	0.010612	-0.010249	0.009003	
49518	    0	10.795995	1.553525	0.540668	3.072524	-1.513372	1.125587	0.107824	0.016048	0.006467	0.999837	0.015362	-0.007566	0.005628	
49519	    0	9.201858	3.679951	1.692448	3.323732	-1.154389	0.650059	0.091797	0.036804	0.018066	0.999840	0.016618	-0.005772	0.003250	
49520	    0	8.046026	6.408936	1.775981	3.025950	-1.102305	0.356499	0.080243	0.063950	0.019171	0.999868	0.015129	-0.005511	0.001782	
49521	    0	6.633996	8.284236	-0.072074	2.055405	-1.077867	0.133517	0.066284	0.082886	0.000488	0.999932	0.010277	-0.005389	0.000668	
49522	    0	4.546449	10.384407	-1.058430	0.942237	-0.889975	-0.014305	0.045517	0.103889	-0.009892	0.999978	0.004711	-0.004450	-0.000072	
49523	    0	2.624690	11.262156	-0.120477	0.273324	-0.565339	-0.099945	0.026306	0.112610	-0.000977	0.999994	0.001367	-0.002827	-0.000500	
49524	    0	1.764034	10.742803	1.565674	-0.034523	-0.228500	-0.111008	0.017682	0.107421	0.015658	0.999999	-0.000173	-0.001143	-0.000555	
49525	    0	2.076083	9.408447	3.712545	0.113678	0.081825	-0.078583	0.020813	0.094055	0.037170	0.999999	0.000568	0.000409	-0.000393	
49526	    0	3.127265	7.113679	5.880714	0.579644	0.301552	-0.080872	0.031390	0.070953	0.058966	0.999994	0.002898	0.001508	-0.000404	
49527	    0	3.976682	3.782281	6.425436	0.612832	0.194550	-0.141144	0.039856	0.037598	0.064331	0.999994	0.003064	0.000973	-0.000706	
49528	    0	4.393556	0.641355	5.582820	0.300026	0.017548	-0.304985	0.043950	0.006263	0.055834	0.999997	0.001500	0.000088	-0.001525	
49529	    0	4.522376	-1.250073	4.292919	-0.227356	-0.111962	-0.537110	0.045166	-0.012573	0.042969	0.999995	-0.001137	-0.000560	-0.002686	
49530	    0	4.538619	-0.847404	2.965894	-0.930983	-0.340464	-0.691990	0.045306	-0.008492	0.029776	0.999981	-0.004655	-0.001702	-0.003460	
49531	    0	4.512228	0.200275	0.787065	-1.509878	-0.618561	-0.756846	0.045105	0.001892	0.007996	0.999959	-0.007549	-0.003093	-0.003784	
49532	    0	4.329616	0.656949	-2.164921	-1.924363	-0.768295	-0.716414	0.043402	0.006207	-0.021544	0.999940	-0.009622	-0.003841	-0.003582	
49533	    0	3.989597	0.333815	-4.780002	-2.180534	-0.815411	-0.661485	0.040100	0.002686	-0.047668	0.999927	-0.010902	-0.004077	-0.003307	
49534	    0	3.812858	-0.086878	-6.504437	-2.178625	-0.751132	-0.599112	0.038368	-0.001691	-0.064885	0.999928	-0.010893	-0.003756	-0.002995	
49535	    0	4.044775	0.112672	-6.707069	-1.954687	-0.597202	-0.521097	0.040649	0.000366	-0.066956	0.999944	-0.009773	-0.002986	-0.002605	
49536	    0	4.842897	0.219627	-6.220066	-1.867133	-0.460823	-0.372130	0.048575	0.001526	-0.062105	0.999951	-0.009336	-0.002304	-0.001861	
49537	    0	5.615566	-0.884712	-5.404851	-1.804377	-0.253872	-0.233463	0.056213	-0.009399	-0.053894	0.999957	-0.009022	-0.001269	-0.001167	
49538	    0	6.201033	-2.814626	-4.024470	-1.539055	0.068856	-0.134851	0.061977	-0.028497	-0.040048	0.999969	-0.007695	0.000344	-0.000674	
49539	    0	6.180039	-5.337397	-2.412365	-1.267061	0.258638	-0.006867	0.061768	-0.053528	-0.023865	0.999979	-0.006335	0.001293	-0.000034	
49540	    0	5.702138	-7.604547	-1.209891	-1.090437	0.208284	0.084496	0.057041	-0.076086	-0.011744	0.999984	-0.005452	0.001041	0.000422	
49541	    0	5.066555	-8.729291	-0.442934	-0.954441	0.061226	0.128174	0.050720	-0.087280	-0.004028	0.999988	-0.004772	0.000306	0.000641	
49542	    0	4.566339	-8.759263	0.217249	-0.807574	-0.101090	0.138855	0.045723	-0.087551	0.002549	0.999991	-0.004038	-0.000505	0.000694	
49543	    0	4.470120	-7.897296	0.855044	-0.617982	-0.249291	0.122833	0.044739	-0.078918	0.008850	0.999993	-0.003090	-0.001246	0.000614	
49544	    0	4.614725	-6.506570	1.322170	-0.341225	-0.288010	0.088692	0.046157	-0.065022	0.013399	0.999997	-0.001706	-0.001440	0.000443	
49545	    0	4.692822	-5.184977	1.480942	-0.100517	-0.243378	0.099945	0.046936	-0.051819	0.014893	0.999998	-0.000503	-0.001217	0.000500	
49546	    0	4.877579	-4.250870	0.539208	-0.038910	-0.216293	0.134850	0.048799	-0.042475	0.005453	0.999999	-0.000195	-0.001081	0.000674	
49547	    0	5.117537	-3.319025	-0.230181	-0.093079	-0.109673	0.192261	0.051208	-0.033142	-0.002258	0.999999	-0.000465	-0.000548	0.000961	
49548	    0	5.447520	-2.685687	0.071268	-0.135040	0.081444	0.286865	0.054514	-0.026778	0.000709	0.999998	-0.000675	0.000407	0.001434	
49549	    0	5.633601	-2.544980	0.664626	-0.162316	0.266266	0.407410	0.056396	-0.025330	0.006592	0.999996	-0.000812	0.001331	0.002037	
49550	    0	5.765909	-2.469533	0.857270	-0.261117	0.448800	0.496675	0.057739	-0.024541	0.008475	0.999992	-0.001306	0.002244	0.002483	
49551	    0	5.796526	-2.006666	0.832667	-0.449182	0.664523	0.519564	0.058044	-0.019897	0.008179	0.999989	-0.002246	0.003323	0.002598	
49552	    0	5.658602	-1.080866	0.914339	-0.605396	0.850491	0.465205	0.056649	-0.010650	0.008935	0.999983	-0.003027	0.004252	0.002326	
49553	    0	5.025652	0.580977	0.906870	-0.651364	1.036079	0.325014	0.050293	0.005920	0.008789	0.999979	-0.003257	0.005180	0.001625	
49554	    0	4.013294	2.877396	1.267275	-0.686270	1.247035	0.130845	0.040192	0.028843	0.012323	0.999974	-0.003431	0.006235	0.000654	
49555	    0	3.233458	5.275353	3.548781	-0.713164	1.256572	-0.139619	0.032593	0.052856	0.035095	0.999973	-0.003566	0.006283	-0.000698	
49556	    0	4.436978	10.558725	3.747900	-0.579648	1.202021	-0.520520	0.044868	0.105578	0.036904	0.999974	-0.002898	0.006010	-0.002603	
49557	    0	5.217059	12.587070	8.655237	-2.700916	1.404057	-0.717955	0.053223	0.126831	0.084473	0.999877	-0.013504	0.007020	-0.003590	
49558	    0	4.644773	-13.957345	0.180946	-7.648701	-1.571102	0.439565	0.046710	-0.139256	0.007506	0.999235	-0.038234	-0.007854	0.002197	
49559	    0	26.088292	-19.988006	-27.725603	-6.454801	-2.145814	1.256049	0.265076	-0.206970	-0.267822	0.999401	-0.032268	-0.010727	0.006279	
49560	    0	44.051958	-9.900643	-7.751289	-0.598165	2.090716	1.867167	0.440579	-0.095134	-0.081830	0.999897	-0.002991	0.010453	0.009336	
49561	    0	38.931037	-6.459389	9.174571	0.947015	0.510415	1.702147	0.390076	-0.061707	0.090454	0.999949	0.004735	0.002552	0.008511	
49562	    0	19.110634	5.155510	-6.213931	1.206598	-0.549702	-0.288203	0.191350	0.051651	-0.061302	0.999976	0.006033	-0.002748	-0.001441	
49563	    0	10.917037	31.991875	-0.606346	1.019307	-0.955028	-1.643403	0.111816	0.319031	-0.003906	0.999942	0.005096	-0.004775	-0.008217	
49564	    0	9.693017	18.711001	-10.739927	-1.378118	-1.081513	-2.686997	0.100009	0.185037	-0.108144	0.999871	-0.006890	-0.005407	-0.013434	
49565	    0	8.837069	7.255914	-13.521524	-2.937316	-0.180828	-2.620104	0.089417	0.069397	-0.136169	0.999805	-0.014686	-0.000904	-0.013100	
49566	    0	13.830625	7.994262	-12.513521	-1.847741	0.177583	-2.932696	0.139336	0.076743	-0.125978	0.999849	-0.009238	0.000888	-0.014663	
49567	    0	13.341673	7.062969	-6.853990	-0.408955	0.157364	-3.357094	0.134521	0.068237	-0.068787	0.999856	-0.002045	0.000787	-0.016785	
49568	    0	17.193854	5.221905	-6.288920	1.142764	-0.582541	-3.650893	0.173039	0.049423	-0.062099	0.999812	0.005713	-0.002913	-0.018253	
49569	    0	25.358115	3.375921	-7.690422	1.431569	-0.738579	-3.843967	0.254456	0.029419	-0.075745	0.999783	0.007157	-0.003693	-0.019218	
49570	    0	31.898865	2.642854	-9.096588	1.513594	-0.542300	-3.906922	0.319677	0.020871	-0.089928	0.999777	0.007567	-0.002711	-0.019533	
49571	    0	32.546492	2.268762	-7.107936	1.103484	-0.595137	-4.048460	0.326050	0.016479	-0.070007	0.999775	0.005517	-0.002975	-0.020241	
49572	    0	29.169625	1.346005	-4.105821	0.524372	-0.815266	-4.284059	0.292061	0.007312	-0.039844	0.999759	0.002622	-0.004076	-0.021419	
49573	    0	26.821343	-1.162897	-2.616411	0.180259	-0.997244	-4.318591	0.268005	-0.017395	-0.024841	0.999754	0.000901	-0.004986	-0.021591	
49574	    0	26.485220	-4.044193	-1.727250	0.002098	-0.856657	-4.239031	0.263987	-0.046043	-0.016141	0.999765	0.000010	-0.004283	-0.021194	
49575	    0	24.179311	-4.953972	-0.761709	-0.352313	-0.418884	-4.107960	0.240723	-0.054504	-0.007019	0.999784	-0.001761	-0.002094	-0.020538	
49576	    0	19.780597	-4.937778	0.459683	-1.269051	-0.033953	-3.973677	0.196773	-0.053264	0.004960	0.999782	-0.006345	-0.000170	-0.019867	
49577	    0	15.633132	-5.858929	1.084031	-2.356910	0.021555	-3.707421	0.155212	-0.061340	0.011536	0.999759	-0.011784	0.000108	-0.018536	
49578	    0	12.488043	-6.022330	-0.769352	-3.179829	-0.040058	-3.309540	0.123861	-0.062390	-0.006688	0.999736	-0.015898	-0.000200	-0.016546	
49579	    0	8.734640	-6.937862	-1.592525	-3.525854	0.058942	-2.949021	0.086304	-0.070923	-0.014709	0.999736	-0.017628	0.000295	-0.014744	
49580	    0	3.925388	-10.272295	-1.716783	-3.530780	0.155843	-2.532205	0.037934	-0.103491	-0.015375	0.999763	-0.017653	0.000779	-0.012660	
49581	    0	0.068574	-13.607186	-0.735154	-3.446998	0.215163	-1.984537	-0.000671	-0.136169	-0.005005	0.999802	-0.017234	0.001076	-0.009922	
49582	    0	-0.754308	-15.529353	-0.142924	-3.094439	0.156601	-1.347224	-0.008589	-0.155235	0.000979	0.999857	-0.015471	0.000783	-0.006736	
49583	    0	0.828294	-16.465793	0.004852	-2.390162	0.058748	-0.794241	0.007629	-0.164673	0.002014	0.999920	-0.011950	0.000294	-0.003971	
49584	    0	2.740286	-16.457208	-0.547951	-1.689932	0.139810	-0.330929	0.027127	-0.164656	-0.004107	0.999962	-0.008450	0.000699	-0.001655	
49585	    0	4.042545	-15.246956	-1.192175	-0.997166	0.341989	-0.000763	0.040405	-0.152527	-0.011230	0.999986	-0.004986	0.001710	-0.000004	
49586	    0	5.117083	-11.864061	-2.412011	-0.080299	0.507165	0.200653	0.051229	-0.118599	-0.024202	0.999996	-0.000401	0.002536	0.001003	
49587	    0	6.004193	-7.570559	-2.008411	0.691226	0.744060	0.244905	0.060059	-0.075562	-0.020569	0.999986	0.003456	0.003720	0.001225	
49588	    0	6.697221	-4.446615	-1.317484	1.340879	0.749786	0.136568	0.066952	-0.044330	-0.013723	0.999969	0.006704	0.003749	0.000683	
49589	    0	7.144029	-2.455057	-0.884689	1.622793	0.648698	0.003815	0.071411	-0.024475	-0.009277	0.999961	0.008114	0.003243	0.000019	
49590	    0	7.343251	-0.688977	-0.018941	1.318562	0.586133	-0.067711	0.073429	-0.006912	-0.000450	0.999973	0.006593	0.002931	-0.000339	
49591	    0	7.260047	0.919190	1.092199	0.652506	0.577547	-0.003815	0.072632	0.009155	0.010742	0.999990	0.003263	0.002888	-0.000019	
49592	    0	6.921669	2.054944	1.508207	-0.104523	0.629235	0.140953	0.069249	0.020606	0.014853	0.999994	-0.000523	0.003146	0.000705	
49593	    0	6.200864	2.281257	1.170209	-0.672725	0.682071	0.315858	0.062012	0.022949	0.011414	0.999987	-0.003364	0.003410	0.001579	
49594	    0	5.304027	1.541186	0.861485	-0.911719	0.766378	0.511364	0.053033	0.015586	0.008341	0.999978	-0.004559	0.003832	0.002557	
49595	    0	4.917012	0.449620	0.914847	-0.858123	0.884254	0.670629	0.049194	0.004700	0.008911	0.999975	-0.004291	0.004421	0.003353	
49596	    0	4.931483	-0.194597	1.273288	-0.587086	0.930984	0.768095	0.049380	-0.001719	0.012508	0.999977	-0.002935	0.004655	0.003840	
49597	    0	5.248561	0.123822	1.496388	-0.102807	0.965888	0.833899	0.052551	0.001465	0.014709	0.999979	-0.000514	0.004829	0.004169	
49598	    0	5.393415	0.834026	1.354690	0.409511	1.029405	0.948533	0.053963	0.008569	0.013287	0.999973	0.002048	0.005147	0.004743	
49599	    0	5.393975	0.890042	1.180561	0.731859	1.123824	1.102461	0.053955	0.009155	0.011536	0.999962	0.003659	0.005619	0.005512	
49600	    0	5.420859	0.642178	1.379370	0.823606	1.189631	1.230831	0.054249	0.006700	0.013498	0.999954	0.004118	0.005948	0.006154	
49601	    0	5.426525	0.495094	1.513809	0.846305	1.209279	1.330588	0.054321	0.005249	0.014832	0.999950	0.004231	0.006046	0.006653	
49602	    0	5.404544	0.707197	1.394586	0.862518	1.210806	1.388764	0.054078	0.007388	0.013650	0.999948	0.004313	0.006054	0.006944	
49603	    0	5.396096	0.916580	1.066504	0.782217	1.207754	1.470210	0.053955	0.009521	0.010376	0.999947	0.003911	0.006039	0.007351	
49604	    0	5.518541	0.913064	0.527392	0.603495	1.161404	1.541927	0.055142	0.009541	0.004982	0.999949	0.003017	0.005807	0.007710	
49605	    0	5.876073	0.482533	-0.022770	0.457199	1.135274	1.647215	0.058716	0.005310	-0.000549	0.999947	0.002286	0.005676	0.008236	
49606	    0	6.488682	-0.190622	-0.500127	0.415810	1.109716	1.715119	0.064871	-0.001339	-0.005364	0.999946	0.002079	0.005548	0.008575	
49607	    0	7.029623	-0.926548	-1.194577	0.457200	1.033039	1.796756	0.070312	-0.008606	-0.012329	0.999943	0.002286	0.005165	0.008984	
49608	    0	7.467124	-1.586260	-1.970547	0.447854	0.958080	1.897658	0.074721	-0.015109	-0.020098	0.999941	0.002239	0.004790	0.009488	
49609	    0	7.502867	-2.186963	-2.452304	0.437174	0.885982	2.019543	0.075134	-0.021057	-0.024902	0.999936	0.002186	0.004430	0.010098	
49610	    0	7.235218	-2.707353	-2.493396	0.520146	0.840969	2.123881	0.072528	-0.026238	-0.025308	0.999931	0.002601	0.004205	0.010619	
49611	    0	6.642947	-3.394136	-2.080306	0.673692	0.791378	2.186638	0.066711	-0.033142	-0.021179	0.999927	0.003368	0.003957	0.010933	
49612	    0	6.242097	-4.183101	-1.867824	0.737018	0.750942	2.226886	0.062810	-0.041063	-0.019066	0.999924	0.003685	0.003755	0.011134	
49613	    0	6.139704	-4.580644	-2.005705	0.732631	0.725574	2.230891	0.061829	-0.045044	-0.020447	0.999924	0.003663	0.003628	0.011154	
49614	    0	6.938911	-4.159352	-3.260216	0.805494	0.709742	2.222308	0.069728	-0.040688	-0.033014	0.999924	0.004027	0.003549	0.011111	
49615	    0	9.246032	-3.728858	-6.120682	0.868437	0.473797	2.182822	0.092712	-0.036011	-0.061584	0.999928	0.004342	0.002369	0.010914	
49616	    0	12.868326	-4.907292	-10.266872	0.907918	-0.017357	2.114343	0.129198	-0.047242	-0.102875	0.999933	0.004539	-0.000087	0.010571	
49617	    0	15.825145	-7.480762	-15.420927	1.318392	-0.495732	1.995136	0.159363	-0.072205	-0.154297	0.999925	0.006592	-0.002479	0.009975	
49618	    0	20.361899	-8.416479	-18.069209	1.827862	-0.341615	1.758814	0.204648	-0.080714	-0.181091	0.999918	0.009139	-0.001708	0.008794	
49619	    0	26.922830	-7.714570	-15.017154	2.426239	0.444238	1.717441	0.269531	-0.072998	-0.151672	0.999887	0.012131	0.002221	0.008587	
