// Start Time: Unknown
// Update Rate: 100.0Hz
// Filter Profile: human (34.3)
// Firmware Version: 2.1.4
PacketCounter	SampleTimeFine	Acc_X	Acc_Y	Acc_Z	Gyr_X	Gyr_Y	Gyr_Z	VelInc_X	VelInc_Y	VelInc_Z	OriInc_q0	OriInc_q1	OriInc_q2	OriInc_q3	
 9636	    0	13.357757	25.183163	-1.115493	-0.924497	-0.347139	0.510600	0.132955	0.252117	-0.012089	0.999984	-0.004622	-0.001736	0.002553	
 9637	    0	14.916289	20.050621	-0.147307	-0.327303	-0.203515	-0.981908	0.150146	0.199768	-0.001648	0.999986	-0.001637	-0.001018	-0.004910	
 9638	    0	14.021196	18.979089	0.518444	0.303656	-0.203709	-2.189681	0.142273	0.188232	0.005615	0.999938	0.001518	-0.001019	-0.010948	
 9639	    0	13.852681	17.267802	0.221647	0.564405	-0.168616	-2.932086	0.141036	0.170615	0.002818	0.999886	0.002822	-0.000843	-0.014660	
 9640	    0	17.400635	11.840519	-0.305308	0.636322	-0.191316	-3.336686	0.175952	0.115489	-0.002515	0.999855	0.003181	-0.000957	-0.016683	
 9641	    0	16.207158	5.873421	2.292922	0.828601	-0.185977	-3.654694	0.163086	0.055664	0.023315	0.999824	0.004143	-0.000930	-0.018272	
 9642	    0	14.725434	-10.610583	-2.486078	0.841558	-0.448628	-3.063333	0.145663	-0.108240	-0.024985	0.999871	0.004208	-0.002243	-0.015316	
 9643	    0	13.176542	-30.632056	3.311903	0.972959	-0.176243	-2.040907	0.128601	-0.307800	0.031738	0.999935	0.004865	-0.000881	-0.010204	
 9644	    0	14.485495	-12.201839	7.770016	1.530902	0.040247	-2.770921	0.143156	-0.124599	0.076724	0.999874	0.007654	0.000201	-0.013854	
 9645	    0	15.111466	1.875619	7.207779	1.952668	0.128181	-3.207586	0.151428	0.015625	0.072144	0.999823	0.009763	0.000641	-0.016037	
 9646	    0	16.530668	7.390748	0.026561	2.181769	0.045779	-3.319386	0.166503	0.071142	0.001014	0.999803	0.010908	0.000229	-0.016596	
 9647	    0	18.431075	6.474865	-0.704366	1.813035	-0.004578	-3.156455	0.185303	0.061890	-0.006470	0.999834	0.009065	-0.000023	-0.015781	
 9648	    0	14.623098	5.775730	-3.175686	1.525576	-0.350016	-3.136795	0.147170	0.055693	-0.031070	0.999846	0.007627	-0.001750	-0.015683	
 9649	    0	11.365008	7.161875	-7.415958	2.060255	-0.752305	-3.173262	0.115051	0.070557	-0.072998	0.999813	0.010301	-0.003761	-0.015865	
 9650	    0	11.185416	2.380600	-5.861901	1.802919	-0.526455	-2.975808	0.112350	0.022662	-0.058116	0.999845	0.009014	-0.002632	-0.014878	
 9651	    0	8.545250	0.873030	-0.597065	1.347593	-0.419633	-2.665812	0.085571	0.007629	-0.005737	0.999886	0.006738	-0.002098	-0.013329	
 9652	    0	6.170090	3.714207	-1.127142	0.945882	-0.519959	-2.432895	0.062176	0.036440	-0.010937	0.999911	0.004729	-0.002600	-0.012164	
 9653	    0	7.362333	4.265545	-3.638099	0.360878	-0.465212	-2.134748	0.074158	0.041931	-0.036133	0.999938	0.001804	-0.002326	-0.010674	
 9654	    0	8.388567	5.523450	-3.770652	-0.124170	-0.386625	-1.743340	0.084435	0.054477	-0.037578	0.999960	-0.000621	-0.001933	-0.008717	
 9655	    0	8.668964	3.775434	-1.579323	-0.407986	-0.281527	-1.410688	0.086975	0.037109	-0.015747	0.999971	-0.002040	-0.001408	-0.007053	
 9656	    0	9.999842	2.179086	-1.411199	-0.387957	-0.198175	-1.154335	0.100136	0.021186	-0.014054	0.999981	-0.001940	-0.000991	-0.005772	
 9657	    0	11.902642	1.043821	-1.136978	-0.387575	-0.061608	-0.990300	0.119080	0.009827	-0.011353	0.999986	-0.001938	-0.000308	-0.004951	
 9658	    0	13.524481	0.156594	-0.120187	-0.304605	-0.032616	-0.867465	0.135250	0.000978	-0.001182	0.999989	-0.001523	-0.000163	-0.004337	
 9659	    0	13.039454	-0.674530	-0.656429	-0.187684	-0.134850	-0.785067	0.130371	-0.007263	-0.006470	0.999991	-0.000938	-0.000674	-0.003925	
 9660	    0	11.736598	0.294597	-1.867769	-0.096703	-0.154877	-0.776102	0.117391	0.002481	-0.018588	0.999991	-0.000484	-0.000774	-0.003881	
 9661	    0	10.674006	0.075119	-1.756973	-0.080872	-0.098992	-0.708009	0.106750	0.000366	-0.017517	0.999993	-0.000404	-0.000495	-0.003540	
 9662	    0	10.247035	-0.004859	-1.122786	-0.037766	-0.032044	-0.612069	0.102471	-0.000364	-0.011211	0.999995	-0.000189	-0.000160	-0.003060	
 9663	    0	10.457384	1.465084	-0.974360	-0.121308	0.025368	-0.576783	0.104614	0.014343	-0.009766	0.999995	-0.000607	0.000127	-0.002884	
 9664	    0	10.680470	1.716301	-1.870351	-0.400925	0.027275	-0.470162	0.106842	0.016874	-0.018752	0.999994	-0.002005	0.000136	-0.002351	
 9665	    0	10.562099	1.909984	-2.609124	-0.798037	0.032997	-0.372316	0.105652	0.018799	-0.026184	0.999990	-0.003990	0.000165	-0.001862	
 9666	    0	9.912557	1.520831	-3.043624	-1.188095	0.053597	-0.265505	0.099137	0.014895	-0.030552	0.999981	-0.005940	0.000268	-0.001328	
 9667	    0	9.607501	1.121736	-3.313101	-1.483740	0.107575	-0.222017	0.096069	0.010864	-0.033264	0.999971	-0.007419	0.000538	-0.001110	
 9668	    0	9.668285	-0.083142	-3.330466	-1.600092	0.144960	-0.174524	0.096658	-0.001183	-0.033366	0.999967	-0.008000	0.000725	-0.000873	
 9669	    0	10.318096	-0.860106	-3.007295	-1.519790	0.163461	-0.157930	0.103149	-0.008911	-0.030090	0.999970	-0.007599	0.000817	-0.000790	
 9670	    0	11.041734	-0.746002	-1.926303	-1.413930	0.144769	-0.208475	0.110395	-0.007711	-0.019289	0.999973	-0.007070	0.000724	-0.001042	
 9671	    0	11.110585	-1.355313	-0.635229	-1.257905	0.146485	-0.251772	0.111084	-0.013733	-0.006348	0.999979	-0.006289	0.000732	-0.001259	
 9672	    0	10.612071	-0.563651	-0.886320	-1.090819	0.115586	-0.305368	0.106107	-0.005847	-0.008893	0.999984	-0.005454	0.000578	-0.001527	
 9673	    0	10.207170	-0.848838	-1.030886	-0.978093	0.094796	-0.370790	0.102051	-0.008728	-0.010315	0.999986	-0.004890	0.000474	-0.001854	
 9674	    0	9.844767	-0.797752	-0.749756	-0.782779	0.065232	-0.451852	0.098427	-0.008229	-0.007498	0.999990	-0.003914	0.000326	-0.002259	
 9675	    0	9.333360	-0.351957	-0.291800	-0.639154	0.050354	-0.547029	0.093323	-0.003784	-0.002930	0.999990	-0.003196	0.000252	-0.002735	
 9676	    0	8.893288	0.013888	-0.458414	-0.519372	0.028610	-0.637247	0.088932	-0.000156	-0.004597	0.999991	-0.002597	0.000143	-0.003186	
 9677	    0	8.734597	-0.089379	-0.505723	-0.475885	0.025940	-0.720980	0.087341	-0.001221	-0.005066	0.999990	-0.002379	0.000130	-0.003605	
 9678	    0	9.473959	-0.578003	-0.806146	-0.410844	0.030136	-0.801089	0.094714	-0.006176	-0.008063	0.999990	-0.002054	0.000151	-0.004005	
 9679	    0	10.615628	-0.274658	-1.316737	-0.288201	0.038910	-0.884250	0.106140	-0.003235	-0.013184	0.999989	-0.001441	0.000195	-0.004421	
 9680	    0	10.962528	0.545701	-1.493464	-0.251580	0.035095	-0.947002	0.109647	0.004919	-0.014960	0.999988	-0.001258	0.000175	-0.004735	
 9681	    0	10.774918	0.854593	-1.401614	-0.325586	0.016022	-0.978856	0.107788	0.007996	-0.014038	0.999987	-0.001628	0.000080	-0.004894	
 9682	    0	10.466737	0.987186	-1.377286	-0.440600	0.031281	-1.015668	0.104713	0.009310	-0.013810	0.999984	-0.002203	0.000156	-0.005078	
 9683	    0	10.089149	1.216846	-1.013218	-0.552944	0.055695	-1.077277	0.100952	0.011597	-0.010193	0.999981	-0.002765	0.000278	-0.005386	
 9684	    0	10.259230	0.217073	-1.184205	-0.654988	0.103570	-1.158914	0.102596	0.001537	-0.011901	0.999977	-0.003275	0.000518	-0.005795	
 9685	    0	10.689498	-0.114763	-1.395441	-0.645453	0.166513	-1.308453	0.106873	-0.001892	-0.014038	0.999972	-0.003227	0.000833	-0.006542	
 9686	    0	10.727374	-1.014762	-1.801853	-0.652702	0.191881	-1.468865	0.107178	-0.010994	-0.018086	0.999967	-0.003263	0.000959	-0.007344	
 9687	    0	10.828798	-2.040988	-1.862224	-0.545509	0.206950	-1.667044	0.108093	-0.021362	-0.018677	0.999961	-0.002728	0.001035	-0.008335	
 9688	    0	11.101818	-3.097605	-1.787381	-0.374228	0.258450	-1.893646	0.110695	-0.032059	-0.017958	0.999952	-0.001871	0.001292	-0.009468	
 9689	    0	11.671799	-2.693588	-1.668641	-0.155452	0.310522	-2.144665	0.116394	-0.028198	-0.016846	0.999941	-0.000777	0.001553	-0.010723	
 9690	    0	11.932582	-1.835266	-1.126386	-0.017739	0.305374	-2.381382	0.119079	-0.019773	-0.011444	0.999928	-0.000089	0.001527	-0.011907	
 9691	    0	12.093647	-1.436377	-0.541641	0.014687	0.327310	-2.594068	0.120728	-0.015930	-0.005615	0.999914	0.000073	0.001637	-0.012970	
 9692	    0	12.590587	-1.403992	0.056435	-0.026513	0.341045	-2.780052	0.125695	-0.015788	0.000352	0.999902	-0.000133	0.001705	-0.013900	
 9693	    0	13.299579	-1.494272	-0.208044	-0.123601	0.374808	-2.954974	0.132751	-0.016907	-0.002319	0.999888	-0.000618	0.001874	-0.014774	
 9694	    0	14.266035	-1.740423	-0.999922	-0.314344	0.376526	-3.139246	0.142344	-0.019656	-0.010238	0.999873	-0.001572	0.001883	-0.015696	
 9695	    0	14.905378	-2.674189	-1.662558	-0.654633	0.338952	-3.280031	0.148560	-0.029236	-0.016785	0.999858	-0.003273	0.001695	-0.016399	
 9696	    0	15.570635	-3.352503	-1.580200	-1.037654	0.292031	-3.434557	0.155076	-0.036274	-0.015845	0.999838	-0.005188	0.001460	-0.017172	
 9697	    0	16.647700	-6.396067	-1.641403	-1.498315	0.307484	-3.541785	0.165283	-0.067017	-0.016174	0.999813	-0.007491	0.001537	-0.017708	
 9698	    0	19.028029	-6.823059	-2.744616	-1.557839	0.287457	-3.751060	0.188914	-0.071995	-0.027167	0.999792	-0.007789	0.001437	-0.018754	
 9699	    0	21.083728	-8.759670	-4.542194	-1.389226	0.181593	-3.999628	0.208984	-0.092102	-0.044983	0.999775	-0.006946	0.000908	-0.019997	
 9700	    0	21.336800	-10.814634	-4.927446	-0.905486	-0.032427	-4.136204	0.211076	-0.112749	-0.048737	0.999776	-0.004527	-0.000162	-0.020679	
 9701	    0	19.943630	-7.082594	-2.904403	-0.148021	-0.059323	-4.259813	0.197876	-0.075073	-0.028931	0.999772	-0.000740	-0.000297	-0.021297	
 9702	    0	19.801974	0.716316	-5.850843	-0.387602	-0.109108	-4.177782	0.198142	0.002912	-0.058409	0.999780	-0.001938	-0.000546	-0.020887	
 9703	    0	22.438089	-2.741940	-4.603618	-0.536189	-0.050357	-3.800435	0.223816	-0.031799	-0.045898	0.999815	-0.002681	-0.000252	-0.019001	
 9704	    0	18.274138	-3.465389	-4.053720	-0.307290	-0.339907	-3.530880	0.182159	-0.037935	-0.040171	0.999841	-0.001536	-0.001699	-0.017653	
 9705	    0	15.932351	-2.973415	-3.918254	0.395411	-0.612668	-3.230433	0.158936	-0.032227	-0.038757	0.999863	0.001977	-0.003063	-0.016151	
 9706	    0	13.370740	-2.506309	-1.968611	0.268947	-0.335325	-3.081255	0.133333	-0.027093	-0.019498	0.999879	0.001345	-0.001677	-0.015406	
 9707	    0	9.747088	2.890013	0.566185	-0.561356	-0.064853	-3.091558	0.097900	0.027405	0.005615	0.999876	-0.002807	-0.000324	-0.015457	
 9708	    0	10.984417	9.658293	-1.955128	-0.487722	-0.059511	-2.517006	0.111053	0.095142	-0.019752	0.999917	-0.002439	-0.000298	-0.012585	
 9709	    0	12.522735	8.628406	-6.977600	-0.710305	-0.115014	-1.515978	0.125916	0.085083	-0.070007	0.999965	-0.003551	-0.000575	-0.007580	
 9710	    0	11.097156	-2.975207	-5.909474	-1.107604	0.030709	-0.535015	0.110882	-0.030375	-0.058945	0.999981	-0.005538	0.000154	-0.002675	
 9711	    0	7.292668	-6.343972	-3.024201	-0.897029	0.198365	-0.065613	0.072876	-0.063599	-0.030029	0.999989	-0.004485	0.000992	-0.000328	
 9712	    0	4.379458	-5.491238	-0.584164	-0.235558	0.279999	0.304604	0.043870	-0.054852	-0.005838	0.999997	-0.001178	0.001400	0.001523	
 9713	    0	3.317243	-4.350214	0.373101	0.360871	0.309945	0.677492	0.033325	-0.043396	0.003601	0.999991	0.001804	0.001550	0.003387	
 9714	    0	2.969496	-3.046131	0.677622	0.722890	0.379184	1.031883	0.029864	-0.030332	0.006610	0.999978	0.003614	0.001896	0.005159	
 9715	    0	2.789886	-1.463162	0.707781	0.872050	0.403791	1.406877	0.028015	-0.014465	0.006958	0.999963	0.004360	0.002019	0.007034	
 9716	    0	2.539053	-0.296535	0.000180	0.888458	0.373656	1.773292	0.025415	-0.002740	-0.000058	0.999949	0.004442	0.001868	0.008866	
 9717	    0	2.276129	-0.186468	-0.807364	0.794238	0.328262	2.157641	0.022766	-0.001587	-0.008118	0.999932	0.003971	0.001641	0.010788	
 9718	    0	2.049024	-0.668669	-1.570055	0.719092	0.291451	2.547149	0.020550	-0.006369	-0.015754	0.999911	0.003595	0.001457	0.012735	
 9719	    0	2.024882	-1.146640	-1.873308	0.670840	0.276194	2.900804	0.020386	-0.011108	-0.018799	0.999887	0.003354	0.001381	0.014503	
 9720	    0	2.309421	-1.509284	-1.721760	0.674089	0.243961	3.273926	0.023315	-0.014654	-0.017296	0.999859	0.003370	0.001220	0.016369	
 9721	    0	2.829531	-1.587974	-1.304478	0.662269	0.185596	3.627983	0.028564	-0.015320	-0.013123	0.999829	0.003311	0.000928	0.018139	
 9722	    0	3.283974	-1.660264	-0.885717	0.579873	0.164424	3.965071	0.033153	-0.015922	-0.008931	0.999799	0.002899	0.000822	0.019824	
 9723	    0	3.649368	-1.532015	-0.610851	0.483168	0.110635	4.244555	0.036804	-0.014526	-0.006165	0.999771	0.002416	0.000553	0.021221	
 9724	    0	3.944293	-1.631459	-0.686561	0.358994	0.054364	4.504587	0.039795	-0.015409	-0.006905	0.999744	0.001795	0.000272	0.022521	
 9725	    0	4.279122	-1.826269	-1.089858	0.298529	0.002289	4.803167	0.043213	-0.017212	-0.010925	0.999710	0.001493	0.000011	0.024014	
 9726	    0	4.822215	-1.921841	-1.397679	0.306353	-0.071724	5.074857	0.048694	-0.017965	-0.013988	0.999677	0.001532	-0.000359	0.025372	
 9727	    0	5.503969	-2.170918	-1.605377	0.385521	-0.149554	5.325187	0.055603	-0.020203	-0.016052	0.999643	0.001927	-0.000748	0.026623	
 9728	    0	6.621846	-2.270639	-1.761952	0.470032	-0.192477	5.578770	0.066833	-0.020806	-0.017606	0.999607	0.002350	-0.000962	0.027890	
 9729	    0	8.029357	-2.077342	-1.761140	0.560841	-0.215752	5.831218	0.080872	-0.018372	-0.017578	0.999570	0.002804	-0.001079	0.029152	
 9730	    0	9.679325	-1.433242	-1.666672	0.552836	-0.243797	6.088444	0.097189	-0.011332	-0.016582	0.999532	0.002764	-0.001219	0.030437	
 9731	    0	11.428580	-0.860168	-1.588577	0.454788	-0.266883	6.329647	0.114502	-0.004944	-0.015747	0.999496	0.002274	-0.001334	0.031643	
 9732	    0	13.289770	-0.578056	-1.496875	0.396800	-0.302369	6.536319	0.133014	-0.001405	-0.014773	0.999462	0.001984	-0.001512	0.032676	
 9733	    0	15.519101	-0.502702	-1.809147	0.435912	-0.351019	6.739565	0.155273	0.000244	-0.017822	0.999428	0.002179	-0.001755	0.033691	
 9734	    0	18.417446	-0.338090	-2.600685	0.530922	-0.384789	6.910758	0.184193	0.003053	-0.025650	0.999397	0.002654	-0.001924	0.034547	
 9735	    0	21.579837	0.522560	-3.759149	0.592926	-0.418749	6.995308	0.215515	0.012878	-0.037109	0.999381	0.002964	-0.002093	0.034969	
 9736	    0	24.182698	1.962738	-5.316260	0.638522	-0.486856	7.007907	0.241066	0.028253	-0.052494	0.999377	0.003192	-0.002434	0.035032	
 9737	    0	26.031617	4.567978	-6.671689	0.512799	-0.607995	6.911336	0.258728	0.054810	-0.065796	0.999394	0.002563	-0.003039	0.034550	
 9738	    0	26.906171	9.266236	-4.628172	-0.182758	-0.379633	6.664179	0.265864	0.101516	-0.045865	0.999442	-0.000914	-0.001898	0.033315	
 9739	    0	25.818280	7.709628	-4.759840	-0.156428	-0.471382	6.206752	0.255737	0.085022	-0.047058	0.999515	-0.000782	-0.002357	0.031029	
 9740	    0	24.653818	9.752492	-5.990423	0.240356	-0.733469	5.468682	0.243965	0.104291	-0.058884	0.999619	0.001202	-0.003667	0.027340	
 9741	    0	21.800453	17.717984	-5.973938	0.169388	-0.921523	4.547528	0.214172	0.182129	-0.058594	0.999730	0.000847	-0.004607	0.022736	
 9742	    0	17.278926	29.400409	-2.959681	-0.696224	-0.875144	3.607011	0.167582	0.296954	-0.029886	0.999822	-0.003481	-0.004375	0.018034	
 9743	    0	13.310610	33.147268	-0.168685	-1.435139	-0.723101	2.385794	0.129150	0.333008	-0.003601	0.999896	-0.007175	-0.003615	0.011929	
 9744	    0	12.688116	28.129295	-0.346986	-1.376549	-0.453573	0.827227	0.125727	0.281783	-0.005122	0.999965	-0.006883	-0.002268	0.004136	
 9745	    0	14.488949	21.006193	0.384331	-0.671962	-0.215913	-0.826267	0.145752	0.209473	0.003296	0.999985	-0.003360	-0.001080	-0.004131	
 9746	    0	13.907647	18.754337	1.081874	0.238614	-0.216489	-2.214478	0.141129	0.185975	0.011193	0.999937	0.001193	-0.001082	-0.011072	
 9747	    0	13.372735	18.112045	0.691407	0.724823	-0.184448	-3.064855	0.136475	0.179016	0.007690	0.999875	0.003624	-0.000922	-0.015324	
 9748	    0	17.245729	12.489960	0.014225	0.876285	-0.235189	-3.546531	0.174635	0.121813	0.000885	0.999832	0.004381	-0.001176	-0.017732	
 9749	    0	17.183684	4.017090	0.667673	1.026411	-0.312825	-3.795107	0.172546	0.036865	0.007141	0.999805	0.005132	-0.001564	-0.018974	
 9750	    0	13.555783	-21.178549	-0.454211	1.001203	-0.420585	-2.703572	0.132689	-0.213567	-0.005327	0.999893	0.005006	-0.002103	-0.013517	
 9751	    0	15.279054	-28.123296	6.513425	1.441243	-0.099758	-2.494898	0.149231	-0.283569	0.063171	0.999896	0.007206	-0.000499	-0.012474	
 9752	    0	15.314023	-6.789656	8.879851	2.017335	0.027658	-3.249366	0.152013	-0.071263	0.088070	0.999817	0.010086	0.000138	-0.016246	
 9753	    0	14.521504	4.224005	4.082844	2.451708	0.000000	-3.585334	0.145935	0.039124	0.041321	0.999763	0.012258	0.000000	-0.017925	
 9754	    0	17.267009	10.019923	-1.102355	2.331910	-0.000191	-3.558046	0.174417	0.097226	-0.009878	0.999773	0.011659	-0.000001	-0.017789	
 9755	    0	16.420813	9.826404	-4.862555	1.876375	-0.281542	-3.345696	0.165894	0.095947	-0.047485	0.999815	0.009381	-0.001408	-0.016727	
 9756	    0	13.879465	8.854506	-8.768655	2.333427	-0.698521	-3.363660	0.140572	0.087202	-0.086175	0.999784	0.011666	-0.003492	-0.016817	
 9757	    0	12.187284	3.779539	-7.266751	2.144185	-0.606575	-3.182421	0.122681	0.036621	-0.071899	0.999811	0.010720	-0.003033	-0.015911	
 9758	    0	9.114750	2.182860	-0.683275	1.588509	-0.445957	-2.772261	0.091454	0.020615	-0.006462	0.999869	0.007942	-0.002230	-0.013861	
 9759	    0	6.562838	5.418292	0.367915	0.991279	-0.437178	-2.478103	0.066284	0.053345	0.004089	0.999908	0.004956	-0.002186	-0.012390	
 9760	    0	8.460766	5.906049	-2.263625	0.356300	-0.387009	-2.142377	0.085278	0.058189	-0.022367	0.999939	0.001781	-0.001935	-0.010712	
 9761	    0	9.438290	5.634105	-2.844956	-0.256923	-0.295261	-1.738762	0.094910	0.055481	-0.028381	0.999960	-0.001285	-0.001476	-0.008694	
 9762	    0	9.125243	3.921234	-1.171639	-0.595861	-0.266268	-1.365293	0.091533	0.038553	-0.011710	0.999970	-0.002979	-0.001331	-0.006826	
 9763	    0	9.868764	2.228801	-0.719827	-0.588230	-0.246240	-1.090248	0.098816	0.021729	-0.007141	0.999980	-0.002941	-0.001231	-0.005451	
 9764	    0	12.009559	1.229430	-1.023106	-0.529101	-0.136757	-0.868801	0.120154	0.011745	-0.010180	0.999987	-0.002645	-0.000684	-0.004344	
 9765	    0	13.228392	-0.581645	-0.685349	-0.486566	-0.096131	-0.778201	0.132263	-0.006348	-0.006775	0.999989	-0.002433	-0.000481	-0.003891	
 9766	    0	12.806597	-0.617278	-1.104358	-0.318147	-0.168610	-0.722506	0.128052	-0.006653	-0.010925	0.999991	-0.001591	-0.000843	-0.003613	
 9767	    0	11.551096	0.145292	-1.894441	-0.210572	-0.189782	-0.681306	0.115533	0.001040	-0.018836	0.999991	-0.001053	-0.000949	-0.003407	
 9768	    0	10.473924	-0.007366	-1.779095	-0.183106	-0.160027	-0.604058	0.104753	-0.000406	-0.017707	0.999994	-0.000916	-0.000800	-0.003020	
 9769	    0	9.984168	0.221789	-1.542253	-0.134087	-0.086212	-0.509644	0.099854	0.001953	-0.015381	0.999996	-0.000670	-0.000431	-0.002548	
 9770	    0	10.314575	1.568845	-1.500583	-0.200081	0.003624	-0.456238	0.103181	0.015438	-0.015023	0.999996	-0.001000	0.000018	-0.002281	
 9771	    0	10.294815	1.249038	-2.126020	-0.453950	0.025368	-0.337983	0.102966	0.012268	-0.021301	0.999995	-0.002270	0.000127	-0.001690	
 9772	    0	10.057897	1.789073	-3.178851	-0.781443	0.041199	-0.260354	0.100595	0.017635	-0.031878	0.999991	-0.003907	0.000206	-0.001302	
 9773	    0	9.569864	2.123867	-3.688731	-1.179511	0.077248	-0.178529	0.095703	0.020935	-0.037048	0.999982	-0.005898	0.000386	-0.000893	
 9774	    0	9.310040	1.065470	-3.483847	-1.471342	0.109864	-0.114442	0.093087	0.010345	-0.034966	0.999972	-0.007357	0.000549	-0.000572	
 9775	    0	9.425380	-0.108807	-2.687404	-1.607531	0.111581	-0.081635	0.094238	-0.001343	-0.026917	0.999967	-0.008038	0.000558	-0.000408	
 9776	    0	9.770302	-0.870321	-2.399594	-1.568047	0.078584	-0.089646	0.097690	-0.008935	-0.023965	0.999969	-0.007840	0.000393	-0.000448	
 9777	    0	10.035066	-0.716659	-2.139550	-1.483740	0.041962	-0.119783	0.100342	-0.007385	-0.021362	0.999971	-0.007419	0.000210	-0.000599	
 9778	    0	10.329437	-0.584286	-1.900018	-1.459135	0.028992	-0.162698	0.103287	-0.006065	-0.018971	0.999972	-0.007296	0.000145	-0.000813	
 9779	    0	10.903304	-1.740089	-0.648045	-1.308260	0.078583	-0.247957	0.109009	-0.017578	-0.006409	0.999977	-0.006541	0.000393	-0.001240	
 9780	    0	10.173015	-0.871606	-0.792653	-1.129348	0.072861	-0.318148	0.101713	-0.008923	-0.007914	0.999982	-0.005647	0.000364	-0.001591	
 9781	    0	9.766797	-0.463744	-1.086731	-1.046758	0.045204	-0.386049	0.097656	-0.004883	-0.010864	0.999984	-0.005234	0.000226	-0.001930	
 9782	    0	9.254623	-0.164356	-1.024262	-0.901608	0.000954	-0.490954	0.092542	-0.001917	-0.010235	0.999987	-0.004508	0.000005	-0.002455	
 9783	    0	9.115222	-0.959199	-0.932672	-0.767329	-0.025940	-0.570681	0.091125	-0.009888	-0.009277	0.999989	-0.003837	-0.000130	-0.002853	
 9784	    0	9.261660	-0.980869	-0.967441	-0.612452	-0.037384	-0.654795	0.092586	-0.010141	-0.009626	0.999990	-0.003062	-0.000187	-0.003274	
 9785	    0	10.016378	-0.149347	-1.069911	-0.488283	-0.027275	-0.743868	0.100159	-0.001892	-0.010681	0.999990	-0.002441	-0.000136	-0.003719	
 9786	    0	10.486431	0.500613	-1.179625	-0.465967	-0.034142	-0.797465	0.104885	0.004560	-0.011789	0.999989	-0.002330	-0.000171	-0.003987	
 9787	    0	10.648863	0.395631	-1.106093	-0.476839	-0.041771	-0.846866	0.106506	0.003479	-0.011047	0.999988	-0.002384	-0.000209	-0.004234	
 9788	    0	10.697252	0.200670	-1.054741	-0.484850	-0.024986	-0.890354	0.106981	0.001505	-0.010538	0.999987	-0.002424	-0.000125	-0.004452	
 9789	    0	10.593920	0.395913	-0.933218	-0.518801	-0.005913	-0.975805	0.105957	0.003418	-0.009338	0.999984	-0.002594	-0.000030	-0.004879	
 9790	    0	10.620950	0.022425	-1.167147	-0.568012	-0.003433	-1.053053	0.106209	-0.000368	-0.011669	0.999982	-0.002840	-0.000017	-0.005265	
 9791	    0	10.661740	-0.769572	-1.538678	-0.577549	0.032997	-1.166543	0.106567	-0.008362	-0.015381	0.999978	-0.002888	0.000165	-0.005833	
 9792	    0	10.639826	-0.570223	-1.903321	-0.502972	0.060273	-1.340496	0.106351	-0.006463	-0.019050	0.999974	-0.002515	0.000301	-0.006702	
 9793	    0	10.548521	-1.579706	-2.213644	-0.482183	0.111581	-1.541155	0.105347	-0.016663	-0.022156	0.999967	-0.002411	0.000558	-0.007706	
 9794	    0	11.039044	-2.592959	-2.364095	-0.354772	0.181964	-1.757836	0.110135	-0.026940	-0.023694	0.999959	-0.001774	0.000910	-0.008789	
 9795	    0	11.361905	-2.385748	-2.485720	-0.234989	0.238232	-2.005802	0.113342	-0.025024	-0.024963	0.999948	-0.001175	0.001191	-0.010029	
 9796	    0	11.810603	-2.040766	-2.624970	-0.162319	0.260931	-2.239466	0.117833	-0.021749	-0.026386	0.999936	-0.000812	0.001305	-0.011197	
 9797	    0	11.937163	-1.060529	-2.035538	-0.135044	0.268752	-2.458254	0.119202	-0.012085	-0.020508	0.999923	-0.000675	0.001344	-0.012291	
 9798	    0	12.283041	-1.450700	-1.399011	-0.201803	0.304422	-2.635843	0.122603	-0.016138	-0.014161	0.999911	-0.001009	0.001522	-0.013179	
 9799	    0	13.179722	-1.618234	-1.009859	-0.267038	0.364125	-2.842048	0.131531	-0.018066	-0.010315	0.999896	-0.001335	0.001821	-0.014210	
 9800	    0	14.021111	-1.809137	-1.091036	-0.373283	0.392166	-3.031469	0.139894	-0.020234	-0.011148	0.999881	-0.001866	0.001961	-0.015157	
 9801	    0	14.937665	-2.125979	-1.216824	-0.602749	0.390070	-3.198385	0.148987	-0.023682	-0.012390	0.999866	-0.003014	0.001950	-0.015991	
 9802	    0	15.775968	-2.926718	-1.128033	-0.904702	0.379391	-3.366452	0.157215	-0.031968	-0.011438	0.999846	-0.004523	0.001897	-0.016831	
 9803	    0	16.414365	-4.313408	-0.919744	-1.278762	0.375579	-3.531093	0.163330	-0.046082	-0.009216	0.999822	-0.006393	0.001878	-0.017654	
 9804	    0	17.947358	-7.911085	-0.760161	-1.567372	0.409726	-3.646520	0.177976	-0.082423	-0.007330	0.999801	-0.007836	0.002048	-0.018231	
 9805	    0	20.096479	-8.138811	-2.243161	-1.460945	0.399809	-3.901194	0.199280	-0.085449	-0.022217	0.999781	-0.007304	0.001999	-0.019505	
 9806	    0	20.810611	-9.880788	-3.654493	-1.310834	0.272010	-4.158541	0.205939	-0.103343	-0.036159	0.999761	-0.006554	0.001360	-0.020791	
 9807	    0	20.275611	-10.137138	-4.569241	-0.932387	0.081832	-4.285775	0.200500	-0.105896	-0.045288	0.999759	-0.004662	0.000409	-0.021427	
 9808	    0	20.820902	-7.355078	-2.536301	-0.324276	0.140202	-4.401946	0.206505	-0.078150	-0.025384	0.999756	-0.001621	0.000701	-0.022008	
 9809	    0	19.663798	-1.065807	-3.808316	-0.458373	0.283073	-4.346814	0.196289	-0.015015	-0.038330	0.999760	-0.002292	0.001415	-0.021732	
 9810	    0	22.730453	-3.879791	-6.867192	-0.068669	0.177776	-3.946943	0.226418	-0.043296	-0.068859	0.999804	-0.000343	0.000889	-0.019733	
 9811	    0	19.304733	-5.867782	-5.793033	0.807431	-0.200666	-3.773733	0.191956	-0.062073	-0.057983	0.999813	0.004037	-0.001003	-0.018867	
 9812	    0	15.228034	-2.896461	-5.841262	1.524449	-0.587691	-3.520233	0.151916	-0.031197	-0.058198	0.999811	0.007622	-0.002938	-0.017600	
 9813	    0	13.421029	-3.292484	-2.617250	0.983670	-0.234997	-3.344134	0.133667	-0.035034	-0.026184	0.999847	0.004918	-0.001175	-0.016720	
 9814	    0	10.316653	2.021355	1.490768	0.219736	0.034715	-3.262474	0.103480	0.018511	0.014911	0.999866	0.001099	0.000174	-0.016312	
 9815	    0	10.635347	10.592646	-2.132699	0.220687	-0.059511	-2.603986	0.107727	0.104553	-0.021179	0.999914	0.001103	-0.000298	-0.013020	
 9816	    0	10.210534	9.330072	-5.359559	-0.311664	-0.019646	-1.526848	0.102818	0.092434	-0.053730	0.999969	-0.001558	-0.000098	-0.007634	
 9817	    0	9.610207	-2.126164	-5.360877	-0.860409	0.151826	-0.492098	0.096008	-0.021729	-0.053589	0.999987	-0.004302	0.000759	-0.002460	
 9818	    0	6.446052	-6.738043	-4.050364	-0.734713	0.271607	0.041771	0.064420	-0.067515	-0.040343	0.999991	-0.003674	0.001358	0.000209	
 9819	    0	4.032232	-6.048644	-2.000073	-0.204468	0.399209	0.406647	0.040405	-0.060425	-0.020020	0.999995	-0.001022	0.001996	0.002033	
 9820	    0	3.186037	-4.547551	-0.806036	0.313569	0.456430	0.758555	0.032014	-0.045341	-0.008204	0.999989	0.001568	0.002282	0.003793	
 9821	    0	2.890643	-2.806341	-0.326416	0.569348	0.511936	1.108559	0.029053	-0.027893	-0.003418	0.999977	0.002847	0.002560	0.005543	
 9822	    0	2.816866	-1.125753	0.123341	0.683221	0.516898	1.490230	0.028255	-0.011051	0.001122	0.999963	0.003416	0.002584	0.007451	
 9823	    0	2.627046	0.162868	-0.354804	0.593005	0.444802	1.925693	0.026245	0.001892	-0.003601	0.999947	0.002965	0.002224	0.009628	
 9824	    0	2.421316	-0.151568	-1.192272	0.348100	0.391779	2.359638	0.024205	-0.001209	-0.011972	0.999927	0.001740	0.001959	0.011798	
 9825	    0	2.029297	-1.360397	-1.844701	0.170904	0.345051	2.770323	0.020447	-0.013306	-0.018494	0.999902	0.000854	0.001725	0.013851	
 9826	    0	1.962740	-2.044867	-2.146041	0.120359	0.311483	3.122649	0.019910	-0.020126	-0.021503	0.999876	0.000602	0.001557	0.015613	
 9827	    0	2.367488	-1.977240	-2.101823	0.100713	0.243581	3.463919	0.023987	-0.019348	-0.021057	0.999848	0.000504	0.001218	0.017319	
 9828	    0	3.110015	-1.960719	-1.879183	0.070576	0.171863	3.814548	0.031450	-0.019003	-0.018826	0.999817	0.000353	0.000859	0.019072	
 9829	    0	3.657124	-1.809025	-1.524360	-0.030520	0.097091	4.121691	0.036926	-0.017334	-0.015259	0.999787	-0.000153	0.000485	0.020607	
 9830	    0	3.950322	-1.961508	-1.212346	-0.112733	-0.000572	4.396602	0.039922	-0.018747	-0.012113	0.999758	-0.000564	-0.000003	0.021981	
 9831	    0	4.286158	-2.327848	-1.121149	-0.186746	-0.096902	4.678772	0.043396	-0.022278	-0.011169	0.999725	-0.000934	-0.000484	0.023392	
 9832	    0	4.741738	-2.282893	-1.314740	-0.170344	-0.177020	4.966866	0.047976	-0.021653	-0.013086	0.999690	-0.000852	-0.000885	0.024832	
 9833	    0	5.195494	-1.826413	-1.473201	-0.121894	-0.279268	5.227495	0.052429	-0.016907	-0.014648	0.999657	-0.000609	-0.001396	0.026134	
 9834	    0	5.890065	-2.208564	-1.691062	-0.037007	-0.382663	5.517328	0.059512	-0.020452	-0.016793	0.999618	-0.000185	-0.001913	0.027583	
 9835	    0	7.029507	-2.817856	-1.438474	0.042158	-0.477667	5.794578	0.071106	-0.026123	-0.014221	0.999577	0.000211	-0.002388	0.028969	
 9836	    0	8.517574	-2.831949	-1.063277	0.172260	-0.561228	6.039020	0.086008	-0.025722	-0.010415	0.999539	0.000861	-0.002806	0.030190	
 9837	    0	10.293313	-1.991248	-0.848209	0.268790	-0.633345	6.268586	0.103516	-0.016663	-0.008179	0.999502	0.001344	-0.003166	0.031338	
 9838	    0	12.132086	-1.137732	-0.642071	0.302560	-0.695926	6.519343	0.121627	-0.007406	-0.006011	0.999461	0.001513	-0.003479	0.032591	
 9839	    0	14.221506	-0.970759	-0.624435	0.396996	-0.730274	6.760187	0.142456	-0.004883	-0.005737	0.999420	0.001985	-0.003651	0.033794	
 9840	    0	16.886789	-1.135021	-0.860783	0.590256	-0.729711	6.976042	0.169156	-0.005428	-0.008013	0.999380	0.002951	-0.003648	0.034873	
 9841	    0	20.011473	-0.541831	-1.694154	0.793628	-0.707970	7.115945	0.200195	0.001770	-0.016235	0.999352	0.003967	-0.003539	0.035572	
 9842	    0	23.195238	2.313044	-2.343112	0.744217	-0.649974	7.119567	0.231006	0.031451	-0.022573	0.999353	0.003720	-0.003249	0.035590	
 9843	    0	25.836656	6.682061	-1.705036	0.293031	-0.361519	7.124316	0.255798	0.075989	-0.016479	0.999362	0.001465	-0.001807	0.035614	
 9844	    0	26.777870	7.136327	-2.030356	0.124385	-0.183715	7.011707	0.265077	0.080702	-0.020011	0.999384	0.000622	-0.000918	0.035051	
 9845	    0	27.967275	6.858618	-3.863084	0.499246	-0.213663	6.660175	0.277222	0.077942	-0.038147	0.999441	0.002496	-0.001068	0.033295	
 9846	    0	28.475906	8.948935	-5.637790	1.132758	-0.357492	5.960046	0.282018	0.098237	-0.055332	0.999537	0.005663	-0.001787	0.029796	
 9847	    0	25.596045	14.985518	-7.418471	1.543032	-0.573796	4.985619	0.252319	0.156738	-0.072266	0.999655	0.007714	-0.002869	0.024925	
 9848	    0	20.438984	25.092660	-8.935063	1.200575	-0.774632	3.991617	0.199661	0.255470	-0.087047	0.999775	0.006002	-0.003873	0.019957	
 9849	    0	15.362830	34.731659	-5.188527	0.029947	-0.830874	2.958796	0.148682	0.349548	-0.051208	0.999882	0.000150	-0.004154	0.014793	
 9850	    0	14.046803	35.165744	0.051181	-0.827611	-0.681888	1.609064	0.137633	0.352772	-0.000474	0.999952	-0.004138	-0.003409	0.008045	
 9851	    0	13.985165	29.057474	0.285884	-0.732996	-0.402833	0.094605	0.139709	0.290649	0.002075	0.999990	-0.003665	-0.002014	0.000473	
 9852	    0	15.388502	22.391337	-0.717145	-0.054741	-0.158693	-1.344882	0.155392	0.222870	-0.007110	0.999976	-0.000274	-0.000793	-0.006724	
 9853	    0	15.039669	20.046177	-0.599213	0.808932	-0.158696	-2.625357	0.153015	0.198486	-0.005066	0.999905	0.004045	-0.000793	-0.013126	
 9854	    0	14.643677	19.046941	-0.592923	1.179189	-0.188838	-3.466419	0.149714	0.187923	-0.004676	0.999831	0.005896	-0.000944	-0.017331	
 9855	    0	16.697392	11.864457	-0.516501	1.130186	-0.278493	-4.004959	0.169312	0.115295	-0.004272	0.999783	0.005651	-0.001392	-0.020023	
 9856	    0	15.934391	-10.228801	-3.809221	0.813528	-0.530653	-3.449815	0.157651	-0.104862	-0.038095	0.999839	0.004067	-0.002653	-0.017248	
 9857	    0	12.383827	-44.515831	3.065630	0.873580	-0.366789	-1.754027	0.119873	-0.446350	0.028931	0.999949	0.004368	-0.001834	-0.008770	
 9858	    0	12.558406	-16.458829	8.248052	1.611973	-0.037958	-2.868973	0.123184	-0.167025	0.081164	0.999865	0.008060	-0.000190	-0.014344	
 9859	    0	13.377026	5.026304	6.548901	1.794732	0.007630	-3.347980	0.134583	0.047424	0.065918	0.999819	0.008973	0.000038	-0.016739	
 9860	    0	15.094857	9.550027	-0.447592	1.797597	-0.010491	-3.417800	0.152552	0.092937	-0.003625	0.999813	0.008987	-0.000052	-0.017088	
 9861	    0	17.956434	7.428155	-2.679471	1.353522	-0.065425	-3.178564	0.180725	0.071594	-0.026245	0.999850	0.006767	-0.000327	-0.015892	
 9862	    0	14.941448	5.181965	-3.552850	1.080944	-0.363366	-3.105687	0.150261	0.049681	-0.034984	0.999863	0.005404	-0.001817	-0.015528	
 9863	    0	12.015283	8.239499	-8.433901	1.757148	-0.811622	-3.119835	0.121765	0.081238	-0.083130	0.999831	0.008785	-0.004058	-0.015598	
 9864	    0	12.335582	5.497535	-6.632440	1.615603	-0.663980	-2.939940	0.124370	0.053683	-0.065475	0.999853	0.008078	-0.003320	-0.014699	
 9865	    0	10.218037	1.461858	0.005393	0.972207	-0.479904	-2.564322	0.102356	0.013306	0.000366	0.999903	0.004861	-0.002399	-0.012821	
 9866	    0	6.859182	4.210173	-0.303898	0.536932	-0.538458	-2.313290	0.069080	0.041312	-0.002742	0.999926	0.002685	-0.002692	-0.011566	
 9867	    0	7.969010	4.048104	-2.286501	0.020028	-0.389869	-2.026403	0.080139	0.039673	-0.022705	0.999947	0.000100	-0.001949	-0.010132	
 9868	    0	9.191697	4.284293	-1.842411	-0.331120	-0.257686	-1.682684	0.092297	0.042037	-0.018375	0.999962	-0.001656	-0.001288	-0.008413	
 9869	    0	9.367871	2.727807	-0.936492	-0.452999	-0.186159	-1.376355	0.093872	0.026611	-0.009338	0.999973	-0.002265	-0.000931	-0.006882	
 9870	    0	10.250779	1.000730	-1.524212	-0.320246	-0.176049	-1.106459	0.102574	0.009416	-0.015167	0.999983	-0.001601	-0.000880	-0.005532	
 9871	    0	12.170687	1.152113	-1.200175	-0.286676	-0.090027	-0.950626	0.121765	0.010925	-0.011963	0.999987	-0.001433	-0.000450	-0.004753	
 9872	    0	13.343626	0.382855	-0.637999	-0.270272	-0.068283	-0.869754	0.133453	0.003240	-0.006339	0.999990	-0.001351	-0.000341	-0.004349	
 9873	    0	12.464723	-0.549085	-1.309101	-0.173951	-0.137139	-0.769045	0.124634	-0.005981	-0.013000	0.999991	-0.000870	-0.000686	-0.003845	
 9874	    0	11.074679	-0.011654	-1.994337	-0.083161	-0.134278	-0.709726	0.110759	-0.000518	-0.019869	0.999993	-0.000416	-0.000671	-0.003549	
 9875	    0	10.301269	0.264871	-1.859292	-0.055504	-0.075531	-0.629426	0.103027	0.002319	-0.018555	0.999994	-0.000278	-0.000378	-0.003147	
 9876	    0	10.103018	0.373068	-1.796386	-0.059128	-0.012398	-0.538636	0.101041	0.003453	-0.017959	0.999996	-0.000296	-0.000062	-0.002693	
 9877	    0	10.202832	1.125214	-1.992579	-0.218010	0.040436	-0.478364	0.102051	0.010986	-0.019958	0.999996	-0.001090	0.000202	-0.002392	
 9878	    0	10.283471	1.425885	-2.982428	-0.495339	0.074959	-0.389291	0.102851	0.013985	-0.029898	0.999994	-0.002477	0.000375	-0.001946	
 9879	    0	10.070353	1.758372	-3.764961	-0.840762	0.115395	-0.302125	0.100708	0.017273	-0.037781	0.999990	-0.004204	0.000577	-0.001511	
 9880	    0	9.524762	0.915632	-3.606940	-1.170738	0.155450	-0.236703	0.095230	0.008832	-0.036196	0.999981	-0.005854	0.000777	-0.001184	
 9881	    0	9.389823	-0.027502	-2.940086	-1.300821	0.174905	-0.176240	0.093872	-0.000549	-0.029480	0.999978	-0.006504	0.000875	-0.000881	
 9882	    0	9.644837	-0.621871	-2.117520	-1.288996	0.178529	-0.197603	0.096423	-0.006451	-0.021220	0.999978	-0.006445	0.000893	-0.000988	
 9883	    0	9.847318	-1.124732	-2.192439	-1.220711	0.115395	-0.189973	0.098450	-0.011475	-0.021912	0.999980	-0.006104	0.000577	-0.000950	
 9884	    0	9.949934	-1.234002	-2.315325	-1.184089	0.070382	-0.230028	0.099477	-0.012591	-0.023114	0.999981	-0.005920	0.000352	-0.001150	
 9885	    0	9.998929	-0.681110	-2.394710	-1.199158	0.041199	-0.251009	0.099976	-0.007080	-0.023926	0.999981	-0.005996	0.000206	-0.001255	
 9886	    0	10.967348	-1.152845	-0.535420	-1.118857	0.106431	-0.342943	0.109651	-0.011746	-0.005347	0.999982	-0.005594	0.000532	-0.001715	
 9887	    0	10.033891	0.242483	-0.692524	-1.030546	0.041962	-0.382235	0.100342	0.002197	-0.006958	0.999985	-0.005153	0.000210	-0.001911	
 9888	    0	9.719142	-0.308104	-0.794451	-1.029783	0.006104	-0.430682	0.097184	-0.003331	-0.007931	0.999984	-0.005149	0.000031	-0.002153	
 9889	    0	9.314649	-0.229427	-0.476673	-0.979619	0.013161	-0.527957	0.093140	-0.002563	-0.004761	0.999984	-0.004898	0.000066	-0.002640	
 9890	    0	9.413649	-0.944727	-0.196654	-0.893979	-0.013924	-0.601390	0.094108	-0.009739	-0.001917	0.999985	-0.004470	-0.000070	-0.003007	
 9891	    0	9.623833	-1.319576	-0.336852	-0.678256	-0.056267	-0.712588	0.096191	-0.013550	-0.003296	0.999988	-0.003391	-0.000281	-0.003563	
 9892	    0	10.078605	-1.225143	-0.527761	-0.440981	-0.075722	-0.820354	0.100737	-0.012676	-0.005212	0.999989	-0.002205	-0.000379	-0.004102	
 9893	    0	10.439778	-0.647526	-0.743844	-0.240899	-0.086212	-0.907901	0.104370	-0.006958	-0.007385	0.999989	-0.001204	-0.000431	-0.004539	
 9894	    0	10.799338	0.287834	-0.781439	-0.161935	-0.067330	-0.982861	0.108008	0.002341	-0.007780	0.999987	-0.000810	-0.000337	-0.004914	
 9895	    0	10.957171	0.923788	-0.752623	-0.193788	-0.050163	-1.028447	0.109619	0.008667	-0.007507	0.999986	-0.000969	-0.000251	-0.005142	
 9896	    0	10.811323	1.094228	-0.936617	-0.351908	-0.018692	-1.069647	0.108171	0.010347	-0.009375	0.999984	-0.001760	-0.000093	-0.005348	
 9897	    0	10.725933	0.501344	-1.109712	-0.479320	-0.008392	-1.118476	0.107285	0.004387	-0.011104	0.999981	-0.002397	-0.000042	-0.005592	
 9898	    0	10.969255	0.003414	-1.779085	-0.537304	0.033379	-1.225290	0.109687	-0.000686	-0.017808	0.999977	-0.002687	0.000167	-0.006126	
 9899	    0	10.910417	-0.359345	-2.073074	-0.550084	0.059701	-1.364148	0.109070	-0.004395	-0.020752	0.999972	-0.002750	0.000299	-0.006821	
 9900	    0	10.841792	-1.576979	-2.224123	-0.546461	0.097276	-1.516740	0.108283	-0.016652	-0.022249	0.999967	-0.002732	0.000486	-0.007584	
 9901	    0	10.930943	-1.780236	-2.277905	-0.450140	0.164225	-1.731133	0.109131	-0.018799	-0.022827	0.999959	-0.002251	0.000821	-0.008656	
 9902	    0	10.857673	-2.305012	-2.158905	-0.339895	0.214008	-1.969943	0.108319	-0.024155	-0.021665	0.999949	-0.001699	0.001070	-0.009850	
 9903	    0	11.412118	-2.806835	-2.209309	-0.145725	0.254255	-2.236223	0.113770	-0.029358	-0.022217	0.999936	-0.000729	0.001271	-0.011181	
 9904	    0	12.001922	-2.113939	-1.709076	-0.018883	0.267799	-2.491253	0.119720	-0.022634	-0.017249	0.999921	-0.000094	0.001339	-0.012456	
 9905	    0	12.641958	-1.659857	-1.386339	0.009346	0.275430	-2.713097	0.126160	-0.018311	-0.014038	0.999907	0.000047	0.001377	-0.013565	
 9906	    0	13.649859	-1.856043	-0.979864	-0.090412	0.309001	-2.906903	0.136194	-0.020546	-0.010000	0.999892	-0.000452	0.001545	-0.014534	
 9907	    0	14.608933	-2.283057	-1.461283	-0.250826	0.341811	-3.067139	0.145691	-0.025085	-0.014832	0.999880	-0.001254	0.001709	-0.015335	
 9908	    0	15.293616	-1.986451	-1.857251	-0.550677	0.334183	-3.234819	0.152556	-0.022386	-0.018768	0.999864	-0.002753	0.001671	-0.016173	
 9909	    0	15.862483	-2.867031	-1.925700	-0.943042	0.296989	-3.376181	0.158081	-0.031433	-0.019348	0.999845	-0.004715	0.001485	-0.016880	
 9910	    0	16.520121	-4.838655	-1.646868	-1.357160	0.238624	-3.525563	0.164293	-0.051399	-0.016323	0.999821	-0.006785	0.001193	-0.017627	
 9911	    0	17.863815	-8.005076	-0.957392	-1.726650	0.259608	-3.651677	0.177124	-0.083374	-0.009094	0.999795	-0.008633	0.001298	-0.018257	
 9912	    0	19.717024	-7.470119	-2.608335	-1.732575	0.231951	-3.868775	0.195643	-0.078719	-0.025640	0.999774	-0.008662	0.001160	-0.019342	
 9913	    0	21.246784	-8.884175	-4.512794	-1.626717	0.108537	-4.072134	0.210571	-0.093506	-0.044495	0.999759	-0.008133	0.000543	-0.020359	
 9914	    0	20.805491	-10.205218	-5.214437	-1.159759	-0.076681	-4.178375	0.205878	-0.106668	-0.051455	0.999764	-0.005798	-0.000383	-0.020890	
 9915	    0	19.295957	-5.984168	-3.230947	-0.379209	-0.089843	-4.229291	0.191650	-0.063965	-0.032104	0.999774	-0.001896	-0.000449	-0.021145	
 9916	    0	19.575116	0.279922	-6.697547	-0.504720	-0.129518	-4.073238	0.195795	-0.001357	-0.066849	0.999788	-0.002523	-0.000648	-0.020365	
 9917	    0	21.621935	-2.339228	-5.253560	-0.463131	-0.098997	-3.717259	0.215759	-0.027527	-0.052368	0.999824	-0.002316	-0.000495	-0.018585	
 9918	    0	17.807140	-2.836629	-4.692109	-0.329607	-0.439476	-3.478230	0.177644	-0.031535	-0.046480	0.999845	-0.001648	-0.002197	-0.017390	
 9919	    0	15.474166	-4.173457	-3.122085	-0.054743	-0.500511	-3.249506	0.154114	-0.044250	-0.030823	0.999865	-0.000274	-0.002502	-0.016247	
 9920	    0	12.325832	-2.009402	0.142620	-0.460644	-0.254070	-3.137149	0.122921	-0.022020	0.001632	0.999873	-0.002303	-0.001270	-0.015685	
 9921	    0	8.868628	4.313192	-1.231346	-1.008644	-0.169188	-2.829086	0.089294	0.041809	-0.012451	0.999887	-0.005043	-0.000846	-0.014145	
 9922	    0	9.434060	11.314613	-4.105508	-1.071955	-0.262076	-2.076197	0.095561	0.111937	-0.041533	0.999930	-0.005360	-0.001310	-0.010381	
 9923	    0	10.932802	2.842826	-6.748052	-1.461048	-0.102807	-0.968183	0.109497	0.027405	-0.067627	0.999961	-0.007305	-0.000514	-0.004841	
 9924	    0	8.898540	-6.070278	-4.898482	-1.713392	0.046921	-0.146868	0.088929	-0.061185	-0.048483	0.999963	-0.008567	0.000235	-0.000734	
 9925	    0	5.441452	-7.710664	-1.994407	-1.204689	0.190164	0.281526	0.054504	-0.077148	-0.019531	0.999980	-0.006023	0.000951	0.001408	
 9926	    0	3.201514	-6.499386	-0.220406	-0.363542	0.234986	0.670816	0.032230	-0.064890	-0.002124	0.999991	-0.001818	0.001175	0.003354	
 9927	    0	2.742520	-5.256124	0.727127	0.341799	0.293161	1.045233	0.027710	-0.052429	0.007141	0.999984	0.001709	0.001466	0.005226	
 9928	    0	2.763231	-3.324837	1.128056	0.705345	0.315288	1.398101	0.027882	-0.033093	0.011120	0.999968	0.003527	0.001576	0.006990	
 9929	    0	2.923157	-1.298670	0.784750	0.833907	0.290113	1.792938	0.029358	-0.012756	0.007751	0.999949	0.004169	0.001451	0.008965	
 9930	    0	2.757286	-0.500448	0.083763	0.784892	0.224882	2.216772	0.027627	-0.004702	0.000788	0.999929	0.003924	0.001124	0.011084	
 9931	    0	2.464387	-1.109763	-0.854930	0.685332	0.157170	2.636038	0.024780	-0.010742	-0.008606	0.999907	0.003427	0.000786	0.013180	
 9932	    0	2.402892	-2.105635	-1.469564	0.640322	0.115971	2.980729	0.024330	-0.020648	-0.014776	0.999883	0.003201	0.000580	0.014903	
 9933	    0	2.701025	-2.442951	-1.449285	0.683817	0.089268	3.328865	0.027405	-0.023926	-0.014587	0.999855	0.003419	0.000446	0.016644	
 9934	    0	3.260273	-2.341638	-0.900256	0.729412	0.059131	3.661178	0.033021	-0.022781	-0.009096	0.999825	0.003647	0.000296	0.018305	
 9935	    0	3.814433	-1.914453	-0.328522	0.706530	0.030710	3.965264	0.038513	-0.018372	-0.003357	0.999797	0.003532	0.000154	0.019825	
 9936	    0	4.238372	-1.597916	-0.045427	0.579878	-0.009347	4.234827	0.042709	-0.015076	-0.000497	0.999771	0.002899	-0.000047	0.021173	
 9937	    0	4.562960	-1.800194	0.118965	0.457040	-0.041775	4.518516	0.046021	-0.016968	0.001160	0.999742	0.002285	-0.000209	0.022591	
 9938	    0	4.899445	-1.967157	-0.023205	0.408784	-0.095949	4.792103	0.049447	-0.018490	-0.000247	0.999710	0.002044	-0.000480	0.023958	
 9939	    0	5.421357	-2.195800	-0.316652	0.459530	-0.150315	5.064175	0.054749	-0.020569	-0.003174	0.999676	0.002297	-0.000751	0.025318	
 9940	    0	6.163333	-2.469168	-0.389993	0.565214	-0.206781	5.300387	0.062263	-0.023036	-0.003902	0.999644	0.002826	-0.001034	0.026499	
 9941	    0	7.272856	-2.644673	-0.146032	0.706002	-0.229675	5.539661	0.073425	-0.024414	-0.001465	0.999609	0.003530	-0.001148	0.027695	
 9942	    0	8.592053	-2.359589	0.188001	0.840879	-0.223955	5.781425	0.086553	-0.021108	0.001884	0.999572	0.004204	-0.001120	0.028903	
 9943	    0	10.366766	-1.941671	0.339583	0.976142	-0.205263	6.031213	0.104187	-0.016296	0.003418	0.999533	0.004880	-0.001026	0.030151	
 9944	    0	12.401352	-1.339360	0.181919	1.094240	-0.184853	6.270514	0.124351	-0.009508	0.001875	0.999493	0.005470	-0.000924	0.031347	
 9945	    0	14.539449	-1.036959	-0.044534	1.180675	-0.167114	6.528908	0.145630	-0.005615	-0.000366	0.999449	0.005902	-0.000835	0.032639	
 9946	    0	16.709866	-1.118564	-0.268372	1.319573	-0.160058	6.743805	0.167351	-0.005527	-0.002599	0.999409	0.006597	-0.000800	0.033712	
 9947	    0	19.060689	-0.787833	-1.299469	1.521616	-0.149376	6.878559	0.190735	-0.001221	-0.012878	0.999379	0.007607	-0.000747	0.034386	
 9948	    0	21.895996	0.352013	-3.004945	1.648297	-0.113893	6.922657	0.218675	0.011340	-0.029853	0.999367	0.008240	-0.000569	0.034606	
 9949	    0	25.115619	3.482289	-4.705543	1.507878	0.004006	6.861763	0.249756	0.043762	-0.046753	0.999383	0.007538	0.000020	0.034302	
 9950	    0	26.563937	5.985881	-5.894960	1.277029	0.107595	6.726244	0.263387	0.069118	-0.058670	0.999413	0.006384	0.000538	0.033625	
 9951	    0	26.632321	6.953285	-8.202258	1.281395	-0.042732	6.418229	0.263916	0.078552	-0.081482	0.999464	0.006406	-0.000214	0.032085	
 9952	    0	26.329683	9.413190	-9.374705	1.318747	-0.281567	5.838696	0.260519	0.102379	-0.092722	0.999551	0.006593	-0.001408	0.029189	
 9953	    0	23.852632	15.237498	-9.772092	1.158463	-0.578373	5.031389	0.234863	0.158875	-0.096130	0.999662	0.005792	-0.002892	0.025154	
 9954	    0	19.539844	24.828704	-9.197242	0.303292	-0.842733	4.261735	0.190432	0.252519	-0.090782	0.999763	0.001516	-0.004213	0.021307	
 9955	    0	15.893722	32.736323	-3.693375	-1.203221	-0.749819	3.315915	0.153625	0.329712	-0.038330	0.999837	-0.006016	-0.003749	0.016579	
 9956	    0	13.673735	31.097136	-1.521350	-1.946326	-0.555630	2.064586	0.133566	0.312196	-0.017874	0.999895	-0.009731	-0.002778	0.010323	
 9957	    0	12.794627	25.596438	-2.175202	-1.857597	-0.225834	0.653087	0.127136	0.256165	-0.023987	0.999950	-0.009288	-0.001129	0.003265	
 9958	    0	14.523506	20.252016	-2.057018	-1.183329	-0.061417	-0.792129	0.146042	0.201817	-0.021721	0.999974	-0.005917	-0.000307	-0.003961	
 9959	    0	13.635825	19.161173	-1.388693	-0.364692	-0.108149	-2.034796	0.138306	0.190186	-0.014160	0.999946	-0.001823	-0.000541	-0.010174	
 9960	    0	13.416934	18.013202	-1.657560	-0.052263	-0.128751	-2.962602	0.136828	0.178114	-0.016535	0.999889	-0.000261	-0.000644	-0.014812	
 9961	    0	17.033808	12.369547	-1.765901	0.065616	-0.189791	-3.603559	0.172546	0.120605	-0.017456	0.999837	0.000328	-0.000949	-0.018017	
 9962	    0	17.408246	3.864056	1.031992	0.288599	-0.156984	-3.790512	0.174765	0.035317	0.010509	0.999819	0.001443	-0.000785	-0.018951	
 9963	    0	15.932516	-25.922996	3.723585	0.280960	-0.149540	-2.479618	0.156067	-0.261230	0.036987	0.999922	0.001405	-0.000748	-0.012398	
 9964	    0	14.881923	-25.190598	8.651719	1.034768	-0.105289	-2.476194	0.145637	-0.254166	0.085283	0.999909	0.005174	-0.000526	-0.012381	
 9965	    0	14.528699	-1.728994	7.530647	1.534353	-0.050166	-3.219775	0.144958	-0.020203	0.075195	0.999841	0.007671	-0.000251	-0.016098	
 9966	    0	14.248605	8.186550	0.974036	1.807713	-0.087935	-3.523866	0.143893	0.079246	0.010528	0.999804	0.009038	-0.000440	-0.017618	
 9967	    0	18.609055	11.869220	-1.229683	1.571941	-0.029756	-3.461665	0.188110	0.115540	-0.011353	0.999819	0.007859	-0.000149	-0.017307	
 9968	    0	16.965633	8.653144	-6.162890	1.447564	-0.412009	-3.256209	0.171165	0.084194	-0.060662	0.999839	0.007237	-0.002060	-0.016280	
 9969	    0	13.817286	8.018251	-6.586897	1.737506	-0.784348	-3.241921	0.139709	0.078491	-0.064636	0.999823	0.008687	-0.003922	-0.016209	
 9970	    0	11.012661	-0.671995	-4.077634	1.508786	-0.725972	-2.970267	0.110161	-0.008050	-0.040434	0.999854	0.007544	-0.003630	-0.014851	
 9971	    0	6.443048	-1.174380	-1.819020	1.494849	-0.668362	-2.618512	0.064331	-0.012451	-0.018066	0.999880	0.007474	-0.003342	-0.013092	
 9972	    0	5.104983	3.864288	-2.579519	1.078829	-0.543420	-2.406574	0.051580	0.038162	-0.025449	0.999908	0.005394	-0.002717	-0.012033	
 9973	    0	7.503293	6.594637	-4.216929	0.444803	-0.406464	-2.099651	0.075806	0.065247	-0.041870	0.999940	0.002224	-0.002032	-0.010498	
 9974	    0	8.151742	5.326642	-3.742419	-0.202754	-0.261501	-1.696798	0.082014	0.052534	-0.037371	0.999962	-0.001014	-0.001307	-0.008484	
 9975	    0	8.958752	3.779512	-0.856505	-0.537686	-0.132753	-1.340496	0.089844	0.037170	-0.008606	0.999973	-0.002688	-0.000664	-0.006702	
 9976	    0	10.602201	4.000171	0.223858	-0.563816	-0.028420	-1.069457	0.106234	0.039440	0.002142	0.999981	-0.002819	-0.000142	-0.005347	
 9977	    0	12.510709	1.960956	-0.240965	-0.575259	0.059700	-0.796512	0.125183	0.019104	-0.002502	0.999988	-0.002876	0.000299	-0.003983	
 9978	    0	13.834124	-0.205742	-0.351519	-0.458528	0.039673	-0.686838	0.138332	-0.002541	-0.003537	0.999991	-0.002293	0.000198	-0.003434	
 9979	    0	13.157110	-1.300662	-0.754581	-0.256348	-0.032616	-0.625612	0.131531	-0.013428	-0.007507	0.999993	-0.001282	-0.000163	-0.003128	
 9980	    0	11.289758	-0.590239	-2.067933	-0.134278	-0.092125	-0.610543	0.112888	-0.006261	-0.020623	0.999994	-0.000671	-0.000461	-0.003053	
 9981	    0	10.191859	0.315176	-2.167636	-0.082970	-0.019836	-0.537873	0.101929	0.002869	-0.021667	0.999996	-0.000415	-0.000099	-0.002689	
 9982	    0	10.213192	-0.237518	-1.368152	-0.000381	0.025940	-0.467682	0.102124	-0.002614	-0.013695	0.999997	-0.000002	0.000130	-0.002338	
 9983	    0	10.480410	-0.050458	-1.032228	0.008392	0.102425	-0.435639	0.104797	-0.000732	-0.010376	0.999997	0.000042	0.000512	-0.002178	
 9984	    0	10.831029	1.008081	-1.927563	-0.158119	0.142288	-0.361824	0.108315	0.009870	-0.019361	0.999997	-0.000791	0.000711	-0.001809	
 9985	    0	10.669136	1.752268	-3.343398	-0.518609	0.169373	-0.305176	0.106689	0.017273	-0.033569	0.999994	-0.002593	0.000847	-0.001526	
 9986	    0	10.002752	1.444780	-4.115636	-0.944714	0.201989	-0.244523	0.100003	0.014131	-0.041325	0.999987	-0.004724	0.001010	-0.001223	
 9987	    0	9.635305	0.669125	-3.903042	-1.322184	0.231363	-0.176240	0.096313	0.006348	-0.039185	0.999976	-0.006611	0.001157	-0.000881	
 9988	    0	9.507621	0.166911	-3.083080	-1.498618	0.238802	-0.139047	0.095040	0.001371	-0.030955	0.999970	-0.007493	0.001194	-0.000695	
 9989	    0	9.853853	-0.413418	-2.765159	-1.530281	0.185396	-0.098420	0.098511	-0.004395	-0.027710	0.999969	-0.007651	0.000927	-0.000492	
 9990	    0	10.286108	-1.002225	-2.414558	-1.511779	0.139619	-0.130845	0.102838	-0.010272	-0.024140	0.999970	-0.007559	0.000698	-0.000654	
 9991	    0	11.641722	-1.243891	-1.041374	-1.447309	0.196268	-0.205996	0.116394	-0.012634	-0.010437	0.999972	-0.007236	0.000981	-0.001030	
 9992	    0	11.488972	-2.083140	-0.309586	-1.207550	0.180055	-0.297548	0.114856	-0.021021	-0.003073	0.999980	-0.006038	0.000900	-0.001488	
 9993	    0	10.946220	-1.252464	-0.891952	-0.983433	0.098610	-0.343324	0.109436	-0.012756	-0.008911	0.999986	-0.004917	0.000493	-0.001717	
 9994	    0	9.865602	-1.298974	-0.917490	-0.813869	0.018501	-0.441362	0.098626	-0.013245	-0.009130	0.999989	-0.004069	0.000093	-0.002207	
 9995	    0	8.937007	-0.535482	-0.630807	-0.692751	-0.005150	-0.534059	0.089355	-0.005615	-0.006287	0.999990	-0.003464	-0.000026	-0.002670	
 9996	    0	8.253575	-0.161737	-0.552066	-0.634959	-0.004196	-0.646403	0.082530	-0.001902	-0.005513	0.999990	-0.003175	-0.000021	-0.003232	
 9997	    0	9.110764	-1.011718	-1.117092	-0.579836	0.062752	-0.765231	0.091064	-0.010498	-0.011169	0.999988	-0.002899	0.000314	-0.003826	
 9998	    0	10.629488	-1.099939	-1.500177	-0.477221	0.080490	-0.857547	0.106240	-0.011491	-0.015018	0.999988	-0.002386	0.000402	-0.004288	
 9999	    0	10.998277	0.133498	-1.646468	-0.456812	0.022888	-0.916294	0.109985	0.000793	-0.016479	0.999987	-0.002284	0.000114	-0.004581	
10000	    0	10.183606	1.211072	-1.783449	-0.508883	0.012779	-0.963025	0.101892	0.011575	-0.017871	0.999985	-0.002544	0.000064	-0.004815	
10001	    0	9.197646	1.340076	-1.893568	-0.584987	0.017548	-1.014715	0.092041	0.012878	-0.018982	0.999983	-0.002925	0.000088	-0.005074	
10002	    0	8.963493	0.665312	-1.511565	-0.644307	0.029373	-1.068313	0.089666	0.006125	-0.015149	0.999980	-0.003222	0.000147	-0.005342	
10003	    0	9.356694	0.081031	-0.955644	-0.627904	0.052834	-1.145943	0.093567	0.000244	-0.009583	0.999978	-0.003139	0.000264	-0.005730	
10004	    0	9.911615	-0.212586	-0.348116	-0.549511	0.071335	-1.239023	0.099099	-0.002749	-0.003510	0.999976	-0.002748	0.000357	-0.006195	
10005	    0	10.455525	-0.875182	-0.130212	-0.443272	0.116921	-1.350414	0.104492	-0.009460	-0.001343	0.999974	-0.002216	0.000585	-0.006752	
10006	    0	10.736659	-1.361204	-0.013533	-0.265887	0.131227	-1.508346	0.107260	-0.014421	-0.000187	0.999970	-0.001329	0.000656	-0.007542	
10007	    0	10.525443	-0.309539	0.104368	-0.088502	0.130655	-1.657887	0.105225	-0.003967	0.000977	0.999965	-0.000443	0.000653	-0.008289	
10008	    0	10.394923	-0.143135	0.234584	0.012779	0.148012	-1.803804	0.103932	-0.002369	0.002269	0.999959	0.000064	0.000740	-0.009019	
10009	    0	10.762827	-0.811019	0.155348	0.148966	0.152590	-1.940949	0.107544	-0.009155	0.001465	0.999952	0.000745	0.000763	-0.009705	
10010	    0	11.548365	-0.455520	0.017779	0.297933	0.183490	-2.082291	0.115428	-0.005757	0.000064	0.999944	0.001490	0.000917	-0.010411	
10011	    0	12.150358	0.793189	0.097096	0.300795	0.209050	-2.202652	0.121582	0.006592	0.000854	0.999937	0.001504	0.001045	-0.011013	
10012	    0	11.850866	0.297436	-0.286958	0.219731	0.205045	-2.283910	0.118529	0.001624	-0.002989	0.999933	0.001099	0.001025	-0.011419	
10013	    0	11.593295	-0.068931	-0.657651	0.184636	0.234419	-2.401792	0.115906	-0.002075	-0.006714	0.999927	0.000923	0.001172	-0.012009	
10014	    0	11.679268	-0.416848	-1.158900	0.113490	0.251586	-2.538941	0.116713	-0.005644	-0.011739	0.999918	0.000567	0.001258	-0.012694	
10015	    0	12.232859	-0.287696	-1.576119	0.006294	0.276192	-2.682576	0.122253	-0.004517	-0.015930	0.999908	0.000031	0.001381	-0.013412	
10016	    0	12.917897	-0.777170	-2.008596	-0.246819	0.308810	-2.804087	0.129022	-0.009606	-0.020274	0.999899	-0.001234	0.001544	-0.014020	
10017	    0	13.682020	-1.085499	-2.470000	-0.612473	0.350966	-2.938955	0.136597	-0.012939	-0.024902	0.999886	-0.003062	0.001755	-0.014694	
10018	    0	14.839663	-2.030795	-3.165009	-1.021812	0.355355	-3.077834	0.148003	-0.022750	-0.031801	0.999866	-0.005109	0.001777	-0.015388	
10019	    0	16.078120	-4.770915	-4.330922	-1.432875	0.323694	-3.219773	0.159912	-0.050598	-0.043213	0.999843	-0.007164	0.001618	-0.016098	
10020	    0	17.563149	-6.223287	-5.865033	-1.665023	0.270478	-3.375826	0.174463	-0.065671	-0.058350	0.999822	-0.008325	0.001352	-0.016878	
10021	    0	18.886230	-6.691920	-7.097649	-1.703567	0.119026	-3.618863	0.187561	-0.070923	-0.070496	0.999800	-0.008517	0.000595	-0.018093	
10022	    0	19.710373	-7.995176	-7.126346	-1.562993	-0.067525	-3.830229	0.195541	-0.084260	-0.070550	0.999785	-0.007814	-0.000338	-0.019150	
10023	    0	19.450947	-5.932121	-7.243139	-1.304723	-0.256176	-3.993520	0.193359	-0.063660	-0.071777	0.999778	-0.006523	-0.001281	-0.019966	
10024	    0	20.387520	-3.691646	-6.939520	-1.117786	-0.480495	-3.949637	0.203254	-0.041320	-0.068684	0.999786	-0.005589	-0.002402	-0.019747	
10025	    0	22.165517	-3.632459	-4.262062	-0.917114	-0.515590	-3.845470	0.221008	-0.040771	-0.041870	0.999801	-0.004585	-0.002578	-0.019226	
10026	    0	20.260862	-0.355448	-2.587284	-1.142003	-0.691840	-3.684661	0.202583	-0.007432	-0.025137	0.999807	-0.005710	-0.003459	-0.018422	
10027	    0	18.185401	-0.997703	-3.112163	-1.731210	-0.683443	-3.235814	0.181763	-0.013184	-0.030396	0.999825	-0.008656	-0.003417	-0.016178	
10028	    0	16.247223	-1.709619	-1.797607	-2.221235	-0.419641	-2.941491	0.162232	-0.019679	-0.017426	0.999827	-0.011106	-0.002098	-0.014707	
10029	    0	15.204399	-0.401792	-1.310072	-2.297150	-0.208294	-2.869577	0.151978	-0.006348	-0.012878	0.999830	-0.011485	-0.001041	-0.014347	
10030	    0	12.853158	5.528060	-4.100322	-2.364283	-0.366802	-2.631135	0.129315	0.053095	-0.041403	0.999842	-0.011821	-0.001834	-0.013155	
10031	    0	14.269318	4.912422	-8.376069	-2.152136	-0.403609	-1.881474	0.143311	0.046875	-0.083984	0.999895	-0.010760	-0.002018	-0.009407	
10032	    0	13.632251	-6.106830	-4.571828	-1.754219	-0.148013	-1.042003	0.136034	-0.062175	-0.045075	0.999948	-0.008771	-0.000740	-0.005210	
10033	    0	11.272338	-6.584146	1.615338	-1.139840	0.089455	-0.735479	0.112488	-0.066162	0.016479	0.999976	-0.005699	0.000447	-0.003677	
10034	    0	8.369709	-5.120170	4.892338	-0.026512	0.152779	-0.341797	0.083647	-0.051338	0.048866	0.999998	-0.000133	0.000764	-0.001709	
10035	    0	5.721439	-4.183136	5.441303	0.997929	0.228311	0.170136	0.057312	-0.042053	0.054138	0.999986	0.004990	0.001142	0.000851	
10036	    0	4.890984	-2.724557	3.920043	1.691652	0.284199	0.684748	0.049059	-0.027408	0.038899	0.999957	0.008458	0.001421	0.003424	
10037	    0	4.924271	-1.761098	1.960539	2.060940	0.309761	1.192503	0.049377	-0.017517	0.019348	0.999928	0.010304	0.001549	0.005962	
10038	    0	4.386694	-1.420319	0.955896	2.209162	0.333034	1.627592	0.043997	-0.013949	0.009331	0.999904	0.011045	0.001665	0.008138	
10039	    0	3.871653	-1.463103	0.921168	2.281469	0.385300	2.014239	0.038879	-0.014343	0.008972	0.999882	0.011407	0.001926	0.010071	
10040	    0	3.646249	-1.241054	1.290072	2.325742	0.429937	2.429316	0.036638	-0.012115	0.012680	0.999856	0.011628	0.002150	0.012146	
10041	    0	3.323646	-0.802996	1.677013	2.290663	0.472286	2.815404	0.033386	-0.007751	0.016602	0.999832	0.011453	0.002361	0.014076	
10042	    0	3.013769	-0.471509	1.770021	2.168220	0.515207	3.196346	0.030255	-0.004423	0.017573	0.999809	0.010840	0.002576	0.015981	
10043	    0	2.824257	-0.586499	1.362499	1.986263	0.567667	3.573099	0.028381	-0.005493	0.013489	0.999786	0.009931	0.002838	0.017864	
10044	    0	2.986251	-1.133975	0.807508	1.765963	0.619747	3.939750	0.030104	-0.010818	0.007885	0.999762	0.008829	0.003098	0.019697	
10045	    0	3.384596	-1.845942	0.367536	1.596210	0.667059	4.257577	0.034241	-0.017761	0.003418	0.999736	0.007980	0.003335	0.021286	
10046	    0	3.843631	-2.221502	0.008408	1.455256	0.674694	4.523330	0.038925	-0.021338	-0.000204	0.999712	0.007276	0.003373	0.022614	
10047	    0	4.320171	-1.953898	-0.210627	1.352259	0.674508	4.735290	0.043640	-0.018494	-0.002380	0.999691	0.006761	0.003372	0.023674	
10048	    0	4.741200	-1.366964	-0.428878	1.251549	0.670697	4.928748	0.047714	-0.012468	-0.004529	0.999671	0.006257	0.003353	0.024641	
10049	    0	5.326636	-1.241358	-0.976946	1.111923	0.660783	5.134419	0.053528	-0.010986	-0.010010	0.999649	0.005559	0.003304	0.025669	
10050	    0	6.271502	-1.418548	-1.340660	0.943683	0.687304	5.354216	0.063017	-0.012437	-0.013684	0.999624	0.004718	0.003436	0.026768	
10051	    0	7.396572	-1.483437	-1.664838	0.782118	0.719740	5.589285	0.074280	-0.012695	-0.016968	0.999595	0.003910	0.003598	0.027943	
10052	    0	8.761392	-1.074735	-2.169858	0.678159	0.683310	5.772270	0.087799	-0.008141	-0.022029	0.999572	0.003390	0.003416	0.028857	
10053	    0	10.323805	0.033251	-2.539145	0.579158	0.603767	5.957167	0.103088	0.003479	-0.025696	0.999547	0.002895	0.003018	0.029781	
10054	    0	11.908463	0.878456	-3.419588	0.627236	0.428840	6.135010	0.118665	0.012537	-0.034415	0.999522	0.003136	0.002144	0.030670	
10055	    0	13.534683	1.353335	-4.344650	0.753338	0.288439	6.293017	0.134766	0.017944	-0.043579	0.999496	0.003766	0.001442	0.031460	
10056	    0	15.235857	1.912221	-5.536271	0.956128	0.175697	6.364205	0.151593	0.024220	-0.055388	0.999481	0.004780	0.000878	0.031816	
10057	    0	17.063153	3.188984	-7.138378	1.237131	0.005342	6.344183	0.169495	0.037720	-0.071167	0.999477	0.006185	0.000027	0.031715	
10058	    0	18.894268	5.476659	-9.147954	1.490090	-0.194011	6.297067	0.187168	0.061357	-0.090857	0.999475	0.007449	-0.000970	0.031480	
10059	    0	20.573518	8.599870	-10.963531	1.527664	-0.472912	6.183912	0.203186	0.093140	-0.108459	0.999490	0.007637	-0.002364	0.030914	
10060	    0	22.058334	14.074743	-8.918794	0.835928	-0.453827	5.972056	0.216444	0.147622	-0.088086	0.999542	0.004179	-0.002269	0.029856	
10061	    0	21.734645	13.444164	-5.826682	0.454199	-0.482241	5.576294	0.213623	0.140564	-0.057434	0.999605	0.002271	-0.002411	0.027878	
10062	    0	22.316760	13.419672	-4.827786	0.607552	-0.563297	4.865950	0.219947	0.139719	-0.047236	0.999695	0.003037	-0.002816	0.024327	
10063	    0	21.528226	15.408938	-4.120262	0.779776	-0.517117	3.880568	0.212341	0.158386	-0.040039	0.999801	0.003899	-0.002585	0.019402	
10064	    0	18.854634	18.946636	-4.819635	0.758391	-0.474376	2.883258	0.185900	0.192339	-0.047028	0.999886	0.003792	-0.002372	0.014416	
10065	    0	15.712897	21.956856	-5.881009	0.367744	-0.462159	2.024879	0.155029	0.221252	-0.058044	0.999944	0.001839	-0.002311	0.010124	
10066	    0	12.640738	23.992124	-6.069434	-0.210001	-0.453380	1.247988	0.125045	0.240641	-0.060662	0.999977	-0.001050	-0.002267	0.006240	
10067	    0	11.632451	23.731764	-4.812465	-0.854496	-0.430109	0.440981	0.115906	0.237366	-0.048889	0.999986	-0.004272	-0.002151	0.002205	
10068	    0	12.392672	20.896627	-2.548909	-1.282130	-0.393108	-0.403408	0.124399	0.208548	-0.026583	0.999975	-0.006411	-0.001966	-0.002017	
10069	    0	14.712321	17.279985	0.101366	-1.316088	-0.327115	-1.172654	0.148132	0.171936	0.000122	0.999959	-0.006580	-0.001636	-0.005863	
10070	    0	17.286181	12.993295	1.597065	-1.043342	-0.382622	-1.956600	0.174092	0.128316	0.015631	0.999936	-0.005217	-0.001913	-0.009783	
10071	    0	14.680318	13.527927	3.468372	-0.682662	-0.184637	-2.668084	0.148560	0.133423	0.034363	0.999905	-0.003413	-0.000923	-0.013340	
10072	    0	17.293828	5.551820	1.341435	-0.607513	-0.090793	-2.923311	0.173719	0.053023	0.013330	0.999888	-0.003037	-0.000454	-0.014616	
10073	    0	16.843618	-14.247262	3.475145	-0.751326	0.161748	-2.472756	0.166687	-0.144409	0.035156	0.999916	-0.003757	0.000809	-0.012363	
10074	    0	17.619152	-17.726078	4.948366	-0.179868	0.080683	-2.521201	0.173959	-0.179419	0.049574	0.999920	-0.000899	0.000403	-0.012606	
10075	    0	16.768486	-4.469959	2.883419	0.726350	-0.171478	-3.134291	0.166931	-0.047424	0.028809	0.999869	0.003632	-0.000857	-0.015671	
10076	    0	19.008345	8.747950	2.055461	1.168517	-0.131806	-3.743412	0.191661	0.083779	0.021177	0.999807	0.005842	-0.000659	-0.018716	
10077	    0	17.697794	12.151930	-3.995613	1.661992	-0.435670	-3.779874	0.179321	0.118469	-0.038574	0.999784	0.008309	-0.002178	-0.018898	
10078	    0	14.969248	5.271473	-4.943421	2.132199	-0.735149	-3.661247	0.150809	0.050480	-0.048335	0.999768	0.010660	-0.003675	-0.018305	
10079	    0	8.349965	-1.948577	-2.347844	1.720536	-0.810102	-3.374692	0.083252	-0.020691	-0.023315	0.999812	0.008602	-0.004050	-0.016872	
10080	    0	2.821911	1.064682	-2.681434	1.717082	-0.920724	-2.888063	0.028494	0.010466	-0.026593	0.999847	0.008585	-0.004603	-0.014440	
10081	    0	3.244358	5.573067	-4.263493	1.407677	-0.781089	-2.575020	0.033325	0.055603	-0.042114	0.999885	0.007038	-0.003905	-0.012875	
10082	    0	5.740881	9.797484	-5.563499	0.885413	-0.693911	-2.165848	0.058659	0.097589	-0.055000	0.999925	0.004427	-0.003469	-0.010829	
10083	    0	5.910260	8.837652	-5.424393	0.154116	-0.536162	-1.564044	0.059937	0.087952	-0.054016	0.999965	0.000771	-0.002681	-0.007820	
10084	    0	8.461273	5.536311	-3.552134	-0.683790	-0.168229	-1.161775	0.084962	0.054749	-0.035638	0.999976	-0.003419	-0.000841	-0.005809	
10085	    0	12.785298	4.112710	0.337296	-1.161968	0.132181	-0.965891	0.128052	0.040527	0.003052	0.999970	-0.005810	0.000661	-0.004829	
10086	    0	15.285433	0.610461	1.924489	-1.065643	0.044060	-0.729184	0.152880	0.005650	0.019180	0.999979	-0.005328	0.000220	-0.003646	
10087	    0	14.874150	-1.754364	0.462099	-0.650599	-0.109864	-0.641634	0.148682	-0.018005	0.004761	0.999989	-0.003253	-0.000549	-0.003208	
10088	    0	12.631433	-1.811385	-1.546722	-0.220490	-0.171090	-0.683405	0.126265	-0.018562	-0.015339	0.999992	-0.001102	-0.000855	-0.003417	
10089	    0	10.743965	-1.099965	-2.291707	0.053406	-0.172997	-0.668336	0.107422	-0.011353	-0.022827	0.999993	0.000267	-0.000865	-0.003342	
10090	    0	10.102705	-0.131198	-2.715466	0.135613	-0.127983	-0.601388	0.101040	-0.001597	-0.027091	0.999994	0.000678	-0.000640	-0.003007	
10091	    0	10.256770	1.125863	-2.064476	0.122070	-0.015831	-0.555421	0.102600	0.010986	-0.020630	0.999995	0.000610	-0.000079	-0.002777	
10092	    0	10.760732	1.626404	-1.830176	-0.002480	0.085068	-0.458718	0.107636	0.016017	-0.018348	0.999997	-0.000012	0.000425	-0.002294	
10093	    0	11.290435	1.553173	-2.053013	-0.192261	0.150490	-0.340271	0.112915	0.015320	-0.020630	0.999997	-0.000961	0.000752	-0.001701	
10094	    0	11.246738	2.110085	-3.181056	-0.432015	0.181008	-0.251961	0.112465	0.020890	-0.031958	0.999996	-0.002160	0.000905	-0.001260	
10095	    0	11.013900	2.610450	-4.455595	-0.817874	0.250436	-0.188447	0.110107	0.025818	-0.044800	0.999990	-0.004089	0.001252	-0.000942	
10096	    0	10.575162	1.818805	-4.942143	-1.297388	0.311854	-0.090409	0.105682	0.017818	-0.049703	0.999977	-0.006487	0.001559	-0.000452	
10097	    0	9.773811	0.905669	-4.663086	-1.695845	0.347142	0.014496	0.097656	0.008667	-0.046875	0.999962	-0.008479	0.001736	0.000072	
10098	    0	10.045286	-0.231930	-4.619856	-1.923782	0.321584	0.117495	0.100380	-0.002706	-0.046335	0.999951	-0.009619	0.001608	0.000587	
10099	    0	11.368688	-1.422932	-3.722621	-2.001034	0.263219	0.132754	0.113647	-0.014526	-0.037231	0.999949	-0.010005	0.001316	0.000664	
10100	    0	12.143610	-0.741574	-3.122559	-2.008472	0.201610	0.127413	0.121409	-0.007652	-0.031272	0.999949	-0.010042	0.001008	0.000637	
10101	    0	13.366092	-1.383887	0.449850	-1.918632	0.262455	0.003052	0.133667	-0.013794	0.004456	0.999952	-0.009593	0.001312	0.000015	
10102	    0	12.704979	-1.765494	0.734748	-1.723693	0.185587	-0.016594	0.127055	-0.017602	0.007381	0.999962	-0.008618	0.000928	-0.000083	
10103	    0	11.383521	-1.297110	0.325125	-1.596659	0.103761	-0.097657	0.113831	-0.013000	0.003296	0.999968	-0.007983	0.000519	-0.000488	
10104	    0	9.949931	-0.804250	0.211431	-1.533142	0.013542	-0.182344	0.099492	-0.008117	0.002170	0.999969	-0.007666	0.000068	-0.000912	
10105	    0	9.461784	-0.894735	0.676405	-1.516548	-0.007629	-0.290683	0.094604	-0.009033	0.006836	0.999969	-0.007583	-0.000038	-0.001453	
10106	    0	9.203461	-1.090056	1.416098	-1.398862	0.017166	-0.427250	0.092012	-0.010998	0.014230	0.999972	-0.006994	0.000086	-0.002136	
10107	    0	9.176268	-1.123231	1.315286	-1.164063	0.077057	-0.562290	0.091736	-0.011414	0.013184	0.999979	-0.005820	0.000385	-0.002811	
10108	    0	9.224278	-0.943548	0.922082	-0.886350	0.067139	-0.709538	0.092212	-0.009722	0.009233	0.999984	-0.004432	0.000336	-0.003548	
10109	    0	9.187936	-0.492479	0.293837	-0.588229	0.052071	-0.857548	0.091858	-0.005310	0.002930	0.999986	-0.002941	0.000260	-0.004288	
10110	    0	9.264208	-0.320308	0.052883	-0.391962	0.050926	-0.999455	0.092625	-0.003665	0.000512	0.999985	-0.001960	0.000255	-0.004997	
10111	    0	9.106956	-1.113188	0.177978	-0.182344	0.044441	-1.158912	0.091003	-0.011658	0.001770	0.999982	-0.000912	0.000222	-0.005795	
10112	    0	9.235796	-1.999598	0.064122	0.044060	0.053025	-1.313791	0.092224	-0.020602	0.000612	0.999978	0.000220	0.000265	-0.006569	
10113	    0	9.566748	-1.111244	0.317178	0.210573	0.097848	-1.516739	0.095581	-0.011841	0.003113	0.999970	0.001053	0.000489	-0.007584	
10114	    0	9.863546	-0.423216	0.322113	0.262455	0.112154	-1.732849	0.098596	-0.005091	0.003160	0.999961	0.001312	0.000561	-0.008664	
10115	    0	9.816322	-0.809147	0.502213	0.273900	0.135233	-1.905852	0.098083	-0.009033	0.004944	0.999953	0.001369	0.000676	-0.009529	
10116	    0	9.750500	-0.815830	0.409527	0.317961	0.159457	-2.087823	0.097416	-0.009182	0.004004	0.999944	0.001590	0.000797	-0.010439	
10117	    0	9.896216	-0.160837	0.314975	0.402269	0.188450	-2.288107	0.098938	-0.002747	0.003052	0.999931	0.002011	0.000942	-0.011440	
10118	    0	10.248217	-0.326060	-0.233777	0.441944	0.240523	-2.438227	0.102429	-0.004504	-0.002470	0.999922	0.002210	0.001203	-0.012191	
10119	    0	10.717784	-0.718348	-1.290251	0.494399	0.259598	-2.602463	0.107056	-0.008545	-0.013062	0.999911	0.002472	0.001298	-0.013012	
10120	    0	11.285840	-0.330730	-2.222162	0.497644	0.266656	-2.761742	0.112769	-0.004809	-0.022383	0.999900	0.002488	0.001333	-0.013808	
10121	    0	11.729311	-0.788716	-2.894663	0.357259	0.257883	-2.877909	0.117126	-0.009521	-0.029114	0.999893	0.001786	0.001289	-0.014389	
10122	    0	12.398104	-0.426451	-3.611594	0.096325	0.252352	-2.978245	0.123854	-0.006092	-0.036275	0.999887	0.000482	0.001262	-0.014891	
10123	    0	12.953326	-0.428818	-3.798163	-0.299657	0.268566	-3.093845	0.129395	-0.006348	-0.038147	0.999878	-0.001498	0.001343	-0.015469	
10124	    0	13.158720	-1.270690	-4.121673	-0.667029	0.237666	-3.169199	0.131313	-0.014927	-0.041326	0.999867	-0.003335	0.001188	-0.015845	
10125	    0	13.408702	-1.439093	-4.280874	-0.907179	0.164994	-3.285377	0.133789	-0.016785	-0.042847	0.999854	-0.004536	0.000825	-0.016426	
10126	    0	13.791444	-2.580351	-4.240641	-1.111662	0.054172	-3.407661	0.137434	-0.028383	-0.042291	0.999839	-0.005558	0.000271	-0.017037	
10127	    0	14.798811	-2.831631	-4.056727	-1.251867	-0.045779	-3.548641	0.147461	-0.031189	-0.040344	0.999823	-0.006259	-0.000229	-0.017742	
10128	    0	15.546241	-4.545942	-3.830016	-1.427358	-0.176250	-3.598820	0.154641	-0.048518	-0.037825	0.999812	-0.007136	-0.000881	-0.017993	
10129	    0	16.684110	-4.525046	-2.902391	-1.393978	-0.228706	-3.621902	0.166016	-0.048462	-0.028503	0.999810	-0.006969	-0.001143	-0.018108	
10130	    0	17.937714	-0.074003	-2.846931	-1.577675	-0.240914	-3.705658	0.179354	-0.004287	-0.028229	0.999796	-0.007888	-0.001204	-0.018527	
10131	    0	20.643788	-1.542830	-4.136592	-1.860744	-0.294514	-3.548670	0.206177	-0.019470	-0.040894	0.999798	-0.009303	-0.001472	-0.017742	
10132	    0	22.302879	-6.569779	-3.145831	-1.402936	-0.293749	-3.444681	0.221896	-0.069743	-0.030652	0.999825	-0.007014	-0.001469	-0.017222	
10133	    0	20.132903	-5.131005	-2.164870	-0.997025	-0.322741	-3.441806	0.200439	-0.054871	-0.021057	0.999838	-0.004985	-0.001614	-0.017208	
10134	    0	18.261420	-3.500061	-2.502995	-1.088956	-0.297751	-3.156428	0.182067	-0.038012	-0.024557	0.999859	-0.005445	-0.001489	-0.015781	
10135	    0	16.763637	-3.625101	-1.685816	-1.100773	-0.130468	-2.813828	0.167114	-0.038696	-0.016541	0.999886	-0.005504	-0.000652	-0.014069	
10136	    0	14.602811	-1.354504	-0.223524	-1.178977	0.094608	-2.794182	0.145819	-0.015596	-0.002216	0.999885	-0.005895	0.000473	-0.013970	
10137	    0	10.755454	4.372329	-1.469262	-1.019135	0.080875	-2.840531	0.108154	0.042114	-0.014954	0.999886	-0.005095	0.000404	-0.014202	
10138	    0	9.809587	8.209314	-6.941740	-0.600066	0.017548	-2.262739	0.099009	0.080768	-0.069670	0.999930	-0.003000	0.000088	-0.011313	
10139	    0	12.765600	2.359279	-8.575962	-0.317957	0.221254	-1.081091	0.127686	0.022766	-0.085938	0.999983	-0.001590	0.001106	-0.005405	
10140	    0	12.020639	-7.404810	-2.773681	-0.383951	0.659945	-0.436594	0.119952	-0.074364	-0.027990	0.999990	-0.001920	0.003300	-0.002183	
10141	    0	10.383964	-7.418911	1.036314	0.275422	0.718882	-0.148011	0.103821	-0.074280	0.009888	0.999991	0.001377	0.003594	-0.000740	
10142	    0	6.916958	-6.161607	1.946711	1.404205	0.691231	0.388531	0.069355	-0.061615	0.018795	0.999967	0.007021	0.003456	0.001943	
10143	    0	5.353714	-4.777846	2.383736	2.080585	0.773830	0.859853	0.053833	-0.047791	0.023132	0.999928	0.010403	0.003869	0.004299	
10144	    0	5.525771	-1.668430	1.418726	2.264855	0.826098	1.253739	0.055419	-0.016495	0.013771	0.999907	0.011324	0.004130	0.006269	
10145	    0	5.783259	0.930602	-0.280296	2.188186	0.804357	1.693021	0.057739	0.009827	-0.002930	0.999896	0.010941	0.004022	0.008465	
10146	    0	5.207545	1.190776	-1.616407	1.980667	0.746946	2.179039	0.051880	0.012634	-0.016235	0.999885	0.009903	0.003735	0.010895	
10147	    0	4.492929	0.461088	-2.187003	1.699332	0.729021	2.670024	0.044781	0.005396	-0.021990	0.999866	0.008496	0.003645	0.013350	
10148	    0	4.440199	-0.172744	-1.941163	1.430013	0.733604	3.133745	0.044349	-0.000893	-0.019583	0.999845	0.007150	0.003668	0.015668	
10149	    0	4.700135	-0.349352	-1.482243	1.223258	0.743149	3.568488	0.046997	-0.002563	-0.015015	0.999815	0.006116	0.003716	0.017841	
10150	    0	5.205116	-0.685325	-1.361068	0.980066	0.753075	3.948112	0.052120	-0.005757	-0.013837	0.999785	0.004900	0.003765	0.019739	
10151	    0	5.673218	-1.318008	-1.340625	0.788181	0.763193	4.306385	0.056946	-0.011902	-0.013672	0.999753	0.003941	0.003816	0.021530	
10152	    0	5.970915	-1.814052	-1.236176	0.618038	0.731917	4.597896	0.060059	-0.016724	-0.012634	0.999723	0.003090	0.003659	0.022987	
10153	    0	6.196983	-2.171494	-1.261870	0.503400	0.679085	4.854121	0.062428	-0.020171	-0.012882	0.999695	0.002517	0.003395	0.024268	
10154	    0	6.607506	-2.510158	-1.244288	0.449611	0.626250	5.043195	0.066640	-0.023397	-0.012705	0.999674	0.002248	0.003131	0.025213	
10155	    0	7.304013	-2.457348	-1.194218	0.493678	0.564830	5.174082	0.073608	-0.022644	-0.012207	0.999658	0.002468	0.002824	0.025867	
10156	    0	8.180138	-1.975737	-1.611285	0.602794	0.480137	5.279595	0.082245	-0.017541	-0.016365	0.999643	0.003014	0.002400	0.026395	
10157	    0	9.233368	-1.265320	-2.139807	0.686922	0.369309	5.422889	0.092590	-0.010071	-0.021606	0.999624	0.003434	0.001846	0.027111	
10158	    0	10.018936	-0.886066	-1.824443	0.687117	0.274313	5.573053	0.100358	-0.006002	-0.018406	0.999604	0.003435	0.001371	0.027862	
10159	    0	10.625381	-1.146650	-1.959753	0.824851	0.146695	5.681628	0.106506	-0.008362	-0.019714	0.999587	0.004124	0.000733	0.028404	
10160	    0	11.666811	-1.400626	-2.294564	1.068841	0.028233	5.765597	0.117002	-0.010513	-0.023025	0.999570	0.005343	0.000141	0.028824	
10161	    0	13.367980	-1.229768	-2.977835	1.380365	-0.088324	5.845758	0.133972	-0.008179	-0.029785	0.999549	0.006901	-0.000442	0.029224	
10162	    0	15.132579	-0.070726	-3.768202	1.639052	-0.230825	5.917717	0.151296	0.004078	-0.037487	0.999528	0.008194	-0.001154	0.029584	
10163	    0	16.087054	1.934454	-4.556061	1.745126	-0.395839	5.977837	0.160278	0.024536	-0.045044	0.999513	0.008724	-0.001979	0.029884	
10164	    0	16.748258	2.949024	-5.555374	1.792638	-0.584129	6.076121	0.166635	0.035055	-0.054769	0.999494	0.008962	-0.002920	0.030375	
10165	    0	17.477507	3.146625	-6.602847	1.945833	-0.781958	6.097706	0.173950	0.037415	-0.065002	0.999480	0.009727	-0.003909	0.030483	
10166	    0	18.935859	4.229568	-6.849398	2.206425	-0.923318	6.022744	0.188268	0.048722	-0.067109	0.999475	0.011030	-0.004616	0.030108	
10167	    0	22.447587	9.781156	-3.351951	1.871973	-0.630286	5.784745	0.221619	0.104553	-0.031860	0.999533	0.009358	-0.003151	0.028919	
10168	    0	23.330104	9.808815	-1.272124	1.671444	-0.412234	5.420271	0.230552	0.104461	-0.011389	0.999596	0.008356	-0.002061	0.027098	
10169	    0	22.857350	10.612922	-2.660903	1.870177	-0.382848	4.856661	0.225952	0.111877	-0.025146	0.999660	0.009350	-0.001914	0.024281	
10170	    0	21.146224	12.799821	-4.627134	1.990298	-0.319699	4.056324	0.208875	0.132702	-0.044631	0.999743	0.009951	-0.001598	0.020280	
10171	    0	18.426968	17.431340	-6.837474	1.783285	-0.296801	3.295329	0.181458	0.177917	-0.066528	0.999823	0.008916	-0.001484	0.016476	
10172	    0	14.726107	23.031026	-7.793572	0.955994	-0.341999	2.597130	0.144382	0.232566	-0.076579	0.999903	0.004780	-0.001710	0.012985	
10173	    0	12.009649	25.580969	-7.058704	-0.194552	-0.369077	1.846341	0.117859	0.256836	-0.070618	0.999955	-0.000973	-0.001845	0.009232	
10174	    0	11.553330	23.791398	-4.234368	-1.100169	-0.324252	0.989733	0.114425	0.238245	-0.043468	0.999970	-0.005501	-0.001621	0.004949	
10175	    0	12.374321	20.781273	-1.425173	-1.455702	-0.224878	0.099183	0.123657	0.207764	-0.015625	0.999972	-0.007278	-0.001124	0.000496	
10176	    0	13.169669	18.823018	0.239602	-1.523036	-0.102998	-0.670632	0.132326	0.187799	0.001033	0.999965	-0.007615	-0.000515	-0.003353	
10177	    0	13.107863	16.979284	0.455659	-1.507594	-0.022698	-1.328300	0.132202	0.168945	0.003296	0.999949	-0.007538	-0.000113	-0.006641	
10178	    0	12.540146	15.295438	-0.257698	-1.523437	0.002480	-1.890610	0.126840	0.151734	-0.003737	0.999926	-0.007617	0.000012	-0.009453	
10179	    0	12.169111	13.420466	-1.251320	-1.511240	-0.050356	-2.305676	0.123230	0.132690	-0.013489	0.999905	-0.007556	-0.000252	-0.011528	
10180	    0	12.054251	10.834201	-1.384535	-1.417785	-0.130086	-2.622702	0.121958	0.106647	-0.014526	0.999888	-0.007089	-0.000650	-0.013113	
10181	    0	12.415079	8.229125	-0.146195	-1.194620	-0.184639	-2.842825	0.125305	0.080505	-0.001831	0.999880	-0.005973	-0.000923	-0.014214	
10182	    0	12.795351	3.263689	1.015374	-0.865209	-0.345626	-2.992943	0.128406	0.030762	0.010240	0.999877	-0.004326	-0.001728	-0.014964	
10183	    0	9.740901	-12.658143	-4.090059	-0.852799	-0.659198	-2.311006	0.096069	-0.127869	-0.040039	0.999918	-0.004264	-0.003296	-0.011555	
10184	    0	7.361592	-26.835604	-6.158540	-0.724990	-0.473408	-1.208316	0.072136	-0.269015	-0.060439	0.999972	-0.003625	-0.002367	-0.006042	
10185	    0	13.386343	-14.179682	-6.135586	-0.774204	-0.202182	-1.644920	0.132751	-0.143127	-0.060669	0.999958	-0.003871	-0.001011	-0.008224	
10186	    0	18.472339	1.764058	-1.653906	-0.529683	-0.086023	-2.335604	0.184919	0.015438	-0.016502	0.999928	-0.002648	-0.000430	-0.011678	
10187	    0	21.641619	13.563046	-2.050806	0.178725	-0.283061	-2.996940	0.218445	0.132385	-0.020081	0.999886	0.000894	-0.001415	-0.014984	
10188	    0	20.852227	12.158746	-9.891266	1.465110	-1.041466	-3.031888	0.210849	0.119118	-0.096940	0.999845	0.007325	-0.005207	-0.015159	
10189	    0	16.028069	4.521124	-6.512775	0.718147	-0.795017	-3.000005	0.161194	0.043030	-0.064331	0.999872	0.003591	-0.003975	-0.014999	
10190	    0	9.169070	-0.762168	-0.333987	0.038530	-0.669881	-2.599413	0.091592	-0.008812	-0.003035	0.999909	0.000193	-0.003349	-0.012997	
10191	    0	3.630089	0.086036	-0.227286	0.028992	-0.752087	-2.387300	0.036316	0.000427	-0.002136	0.999921	0.000145	-0.003760	-0.011936	
10192	    0	6.805474	3.743289	-0.195768	0.092127	-0.558102	-2.211047	0.068468	0.036678	-0.001750	0.999934	0.000461	-0.002790	-0.011055	
10193	    0	9.482626	7.025425	-0.322183	-0.054932	-0.397306	-1.798274	0.095459	0.069397	-0.003052	0.999957	-0.000275	-0.001987	-0.008991	
10194	    0	9.656509	3.929128	-1.563575	-0.182726	-0.347903	-1.354229	0.096855	0.038622	-0.015503	0.999974	-0.000914	-0.001740	-0.006771	
10195	    0	9.912713	0.406802	-2.049603	0.064087	-0.343134	-1.078039	0.099182	0.003540	-0.020325	0.999984	0.000320	-0.001716	-0.005390	
10196	    0	12.332280	1.487247	-1.322829	0.247766	-0.231935	-0.916675	0.123405	0.014323	-0.013067	0.999988	0.001239	-0.001160	-0.004583	
10197	    0	13.615120	1.516663	-2.344885	0.229836	-0.170899	-0.800326	0.136230	0.014648	-0.023315	0.999990	0.001149	-0.000854	-0.004002	
10198	    0	13.577786	0.720418	-3.303391	0.163079	-0.097847	-0.709726	0.135818	0.006749	-0.032962	0.999992	0.000815	-0.000489	-0.003549	
10199	    0	11.863595	0.313393	-3.676578	0.061989	-0.036621	-0.672151	0.118652	0.002747	-0.036743	0.999994	0.000310	-0.000183	-0.003361	
10200	    0	10.124979	0.132723	-2.807452	-0.071144	0.077820	-0.569344	0.101242	0.001029	-0.028114	0.999995	-0.000356	0.000389	-0.002847	
10201	    0	9.989593	1.794298	-2.584511	-0.170708	0.159455	-0.441742	0.099915	0.017700	-0.025940	0.999996	-0.000854	0.000797	-0.002209	
10202	    0	10.491661	2.256238	-2.484271	-0.336647	0.234413	-0.311470	0.104922	0.022357	-0.025003	0.999996	-0.001683	0.001172	-0.001557	
10203	    0	10.237891	0.679986	-2.268076	-0.485230	0.254250	-0.179291	0.102356	0.006653	-0.022827	0.999995	-0.002426	0.001271	-0.000896	
10204	    0	10.005434	0.835966	-2.512502	-0.561143	0.265313	-0.103951	0.100025	0.008237	-0.025281	0.999994	-0.002806	0.001327	-0.000520	
10205	    0	10.269687	1.281519	-2.801359	-0.710108	0.271607	-0.038910	0.102661	0.012695	-0.028198	0.999992	-0.003551	0.001358	-0.000195	
10206	    0	10.497018	0.547081	-2.851803	-0.842669	0.246812	0.041580	0.104934	0.005372	-0.028670	0.999990	-0.004213	0.001234	0.000208	
10207	    0	10.464405	-0.504654	-2.687709	-0.990872	0.240327	0.101471	0.104614	-0.005127	-0.026978	0.999987	-0.004954	0.001202	0.000507	
10208	    0	10.178968	0.038795	-3.053211	-1.157577	0.205995	0.101090	0.101758	0.000262	-0.030639	0.999982	-0.005788	0.001030	0.000505	
10209	    0	9.908607	-0.653637	-4.587708	-1.396954	0.137521	0.165559	0.099060	-0.006775	-0.045898	0.999974	-0.006985	0.000688	0.000828	
10210	    0	10.192849	-0.909712	-4.702384	-1.600092	0.084115	0.142862	0.101915	-0.009400	-0.046992	0.999968	-0.008000	0.000421	0.000714	
10211	    0	12.464498	-0.885193	-1.896506	-1.743339	0.152018	0.072480	0.124634	-0.008972	-0.018982	0.999961	-0.008717	0.000760	0.000362	
10212	    0	11.792572	-0.755732	-0.606584	-1.795411	0.101854	0.004005	0.117923	-0.007609	-0.006058	0.999959	-0.008977	0.000509	0.000020	
10213	    0	11.157295	-0.345577	-0.293127	-1.905661	0.056458	0.008392	0.111572	-0.003479	-0.002930	0.999954	-0.009528	0.000282	0.000042	
10214	    0	9.936716	-0.821851	0.006114	-1.989970	0.002098	-0.070001	0.099364	-0.008252	0.000142	0.999950	-0.009950	0.000010	-0.000350	
10215	    0	9.522017	-0.763948	0.144812	-1.924926	-0.008202	-0.137331	0.095215	-0.007690	0.001526	0.999953	-0.009624	-0.000041	-0.000687	
10216	    0	9.744241	-1.063349	0.994561	-1.724647	-0.005531	-0.276951	0.097427	-0.010682	0.010040	0.999962	-0.008623	-0.000028	-0.001385	
10217	    0	9.708354	-1.828656	0.774990	-1.385319	0.007629	-0.412754	0.097046	-0.018433	0.007874	0.999973	-0.006927	0.000038	-0.002064	
10218	    0	9.759658	-1.747629	-0.197974	-1.043326	0.005341	-0.565532	0.097547	-0.017762	-0.001890	0.999982	-0.005217	0.000027	-0.002828	
10219	    0	9.347943	-0.915280	-0.747733	-0.804714	0.014496	-0.724796	0.093445	-0.009521	-0.007446	0.999985	-0.004024	0.000072	-0.003624	
10220	    0	8.826735	-1.031685	-0.925213	-0.591472	0.026703	-0.947576	0.088216	-0.010762	-0.009233	0.999984	-0.002957	0.000134	-0.004738	
10221	    0	8.336101	-2.768225	-1.253631	-0.303461	0.044251	-1.194008	0.083191	-0.028198	-0.012512	0.999981	-0.001517	0.000221	-0.005970	
10222	    0	8.160270	-3.635003	-1.633457	0.076676	0.063706	-1.480116	0.081326	-0.036946	-0.016375	0.999972	0.000383	0.000319	-0.007401	
10223	    0	8.457638	-3.078636	-1.991544	0.358586	0.113870	-1.762414	0.084290	-0.031494	-0.020020	0.999959	0.001793	0.000569	-0.008812	
10224	    0	9.432832	-1.843865	-1.784169	0.488481	0.129321	-2.015913	0.094125	-0.019344	-0.017949	0.999946	0.002442	0.000647	-0.010079	
10225	    0	10.669980	-0.490879	-1.235527	0.495158	0.153545	-2.183579	0.106628	-0.006042	-0.012451	0.999936	0.002476	0.000768	-0.010918	
10226	    0	11.597371	0.962134	-0.727636	0.409326	0.182347	-2.308517	0.116068	0.008297	-0.007364	0.999930	0.002047	0.000912	-0.011542	
10227	    0	11.927031	1.094008	-0.521190	0.279243	0.187878	-2.389584	0.119385	0.009521	-0.005310	0.999927	0.001396	0.000939	-0.011948	
10228	    0	11.990844	0.016105	-0.701497	0.155071	0.230032	-2.458826	0.119890	-0.001307	-0.007154	0.999923	0.000775	0.001150	-0.012294	
10229	    0	11.855500	-0.478601	-0.924109	0.081827	0.263221	-2.539132	0.118469	-0.006287	-0.009399	0.999918	0.000409	0.001316	-0.012695	
10230	    0	11.897887	-0.011143	-1.198462	0.025368	0.255020	-2.657969	0.118948	-0.001691	-0.012136	0.999910	0.000127	0.001275	-0.013289	
10231	    0	11.893556	-1.349853	-1.441602	-0.068667	0.296984	-2.749721	0.118713	-0.015137	-0.014587	0.999904	-0.000343	0.001485	-0.013748	
10232	    0	12.241718	-1.067036	-1.995897	-0.097087	0.331509	-2.877908	0.122213	-0.012440	-0.020156	0.999894	-0.000485	0.001657	-0.014389	
10233	    0	12.488880	-0.443106	-2.682909	-0.266848	0.347914	-3.013727	0.124756	-0.006348	-0.027039	0.999884	-0.001334	0.001740	-0.015068	
10234	    0	12.993475	-0.859979	-3.509111	-0.574327	0.350395	-3.101288	0.129718	-0.010714	-0.035290	0.999874	-0.002872	0.001752	-0.015506	
10235	    0	13.429536	-1.410365	-4.282750	-0.978898	0.325219	-3.230440	0.133972	-0.016479	-0.042969	0.999856	-0.004894	0.001626	-0.016151	
10236	    0	14.050283	-2.990519	-4.986420	-1.412089	0.253691	-3.359981	0.139907	-0.032611	-0.049818	0.999833	-0.007060	0.001268	-0.016799	
10237	    0	14.867852	-4.442593	-4.436405	-1.735609	0.143442	-3.531112	0.147827	-0.047424	-0.044067	0.999805	-0.008677	0.000717	-0.017654	
10238	    0	15.649691	-7.046906	-3.693426	-1.941628	0.048641	-3.648064	0.155164	-0.073662	-0.036267	0.999786	-0.009707	0.000243	-0.018239	
10239	    0	17.709341	-5.291054	-3.729806	-1.744019	-0.012208	-3.863815	0.176025	-0.056641	-0.036804	0.999775	-0.008719	-0.000061	-0.019318	
10240	    0	19.530550	-4.924428	-4.699257	-1.533245	-0.157368	-4.006693	0.194299	-0.053501	-0.046440	0.999769	-0.007666	-0.000787	-0.020032	
10241	    0	20.201776	-6.859185	-2.090716	-0.969001	-0.235574	-3.979771	0.200623	-0.072693	-0.020325	0.999789	-0.004845	-0.001178	-0.019897	
10242	    0	17.616283	-0.865356	-3.774090	-0.614972	-0.447877	-4.010479	0.176024	-0.012300	-0.037313	0.999791	-0.003075	-0.002239	-0.020051	
10243	    0	20.197907	-2.746771	-4.552513	-0.179301	-0.511009	-3.710392	0.201538	-0.031250	-0.044983	0.999824	-0.000896	-0.002555	-0.018551	
10244	    0	18.279303	-0.393227	-3.220926	-0.085263	-0.671042	-3.564839	0.182791	-0.007204	-0.031593	0.999835	-0.000426	-0.003355	-0.017823	
10245	    0	16.279517	2.128774	-2.538026	-0.850722	-0.687254	-3.370843	0.163208	0.018433	-0.024902	0.999843	-0.004253	-0.003436	-0.016853	
10246	    0	14.719674	1.059923	0.860895	-1.209509	-0.335900	-3.183711	0.147326	0.008307	0.008801	0.999853	-0.006047	-0.001679	-0.015918	
10247	    0	11.132360	4.862154	-1.732758	-1.351228	-0.234042	-3.022142	0.112061	0.046814	-0.017517	0.999862	-0.006756	-0.001170	-0.015110	
10248	    0	10.566136	7.284189	-4.130097	-1.630456	-0.055506	-2.327044	0.106508	0.071266	-0.041857	0.999899	-0.008152	-0.000278	-0.011635	
10249	    0	12.129440	4.240353	-7.789253	-1.971293	0.013733	-1.418339	0.121582	0.040771	-0.078308	0.999926	-0.009856	0.000069	-0.007092	
10250	    0	12.596062	-5.816735	-3.531054	-2.232032	0.426875	-0.717180	0.125675	-0.059010	-0.034924	0.999928	-0.011160	0.002134	-0.003586	
10251	    0	9.598293	-7.038335	-0.505025	-1.591321	0.566871	-0.408178	0.095825	-0.070618	-0.004761	0.999962	-0.007957	0.002834	-0.002041	
10252	    0	6.989822	-7.028138	1.044174	-0.512697	0.678827	-0.015259	0.069928	-0.070260	0.010385	0.999990	-0.002563	0.003394	-0.000076	
10253	    0	5.594402	-5.718317	2.380179	0.503733	0.785831	0.405123	0.056152	-0.057129	0.023438	0.999987	0.002519	0.003929	0.002026	
10254	    0	5.087397	-3.161225	2.196542	1.191916	0.864230	0.812731	0.051096	-0.031534	0.021557	0.999964	0.005960	0.004321	0.004064	
10255	    0	5.032156	-1.459699	1.516637	1.591714	0.871294	1.235987	0.050476	-0.014404	0.014832	0.999939	0.007958	0.004356	0.006180	
10256	    0	4.763283	-0.795527	0.520464	1.843888	0.863291	1.696636	0.047720	-0.007597	0.004928	0.999911	0.009219	0.004316	0.008483	
10257	    0	4.258268	-0.441881	-0.539074	1.925160	0.869784	2.156149	0.042603	-0.003906	-0.005615	0.999886	0.009625	0.004349	0.010780	
10258	    0	4.039138	-0.505139	-1.418699	1.881496	0.875514	2.622536	0.040389	-0.004387	-0.014407	0.999860	0.009407	0.004377	0.013112	
10259	    0	4.078989	-0.898970	-2.019574	1.772408	0.863124	3.089315	0.040833	-0.008179	-0.020447	0.999831	0.008862	0.004315	0.015446	
10260	    0	4.265549	-1.376899	-2.189140	1.651874	0.862751	3.531691	0.042792	-0.012832	-0.022184	0.999800	0.008259	0.004313	0.017657	
10261	    0	4.382680	-1.432189	-2.052456	1.479453	0.853222	3.927149	0.044006	-0.013306	-0.020813	0.999770	0.007397	0.004266	0.019634	
10262	    0	4.508614	-1.247837	-2.079596	1.347848	0.847699	4.255089	0.045247	-0.011375	-0.021067	0.999742	0.006739	0.004238	0.021274	
10263	    0	4.812396	-1.191066	-2.311158	1.178852	0.827295	4.529235	0.048279	-0.010681	-0.023376	0.999717	0.005894	0.004136	0.022644	
10264	    0	5.278105	-1.486685	-2.581230	1.038849	0.778087	4.793278	0.053014	-0.013463	-0.026091	0.999691	0.005194	0.003890	0.023964	
10265	    0	5.834682	-1.716106	-2.730874	0.942525	0.694352	5.012303	0.058655	-0.015564	-0.027588	0.999668	0.004712	0.003471	0.025059	
10266	    0	6.477135	-1.829758	-2.770266	0.896177	0.593636	5.190694	0.065132	-0.016485	-0.027972	0.999648	0.004480	0.002968	0.025950	
10267	    0	7.350689	-1.456419	-2.992451	0.904196	0.454196	5.364894	0.073792	-0.012451	-0.030151	0.999627	0.004520	0.002271	0.026821	
10268	    0	8.447549	-0.487691	-3.332527	0.859373	0.362062	5.534899	0.084504	-0.002395	-0.033492	0.999606	0.004296	0.001810	0.027671	
10269	    0	9.760116	0.096647	-3.718833	0.764763	0.236544	5.736581	0.097473	0.003906	-0.037292	0.999580	0.003823	0.001183	0.028679	
10270	    0	11.228421	0.080507	-3.835228	0.637150	0.154900	5.958496	0.112162	0.004271	-0.038429	0.999551	0.003185	0.000774	0.029788	
10271	    0	12.718716	0.073481	-4.173684	0.507626	0.031286	6.167061	0.127075	0.004761	-0.041748	0.999521	0.002538	0.000156	0.030830	
10272	    0	14.005680	0.284374	-4.424052	0.403090	-0.120183	6.300829	0.139899	0.007342	-0.044145	0.999501	0.002015	-0.000601	0.031499	
10273	    0	15.377593	1.130321	-4.969064	0.284053	-0.301413	6.412847	0.153381	0.016296	-0.049438	0.999483	0.001420	-0.001507	0.032059	
10274	    0	16.511776	2.656994	-5.471815	0.095956	-0.479782	6.470480	0.164273	0.031920	-0.054309	0.999474	0.000480	-0.002398	0.032347	
10275	    0	17.288196	4.149492	-6.150591	-0.060283	-0.704890	6.487662	0.171631	0.047058	-0.060913	0.999467	-0.000301	-0.003524	0.032433	
10276	    0	17.976233	4.456654	-6.815123	-0.060092	-0.949647	6.457712	0.178520	0.050324	-0.067316	0.999467	-0.000300	-0.004747	0.032283	
10277	    0	19.240444	4.133848	-7.073292	0.165586	-1.226826	6.286934	0.191406	0.047424	-0.069519	0.999486	0.000828	-0.006133	0.031429	
10278	    0	22.923201	9.712848	-3.257052	-0.142119	-1.070757	5.923594	0.226393	0.103840	-0.031425	0.999546	-0.000710	-0.005353	0.029613	
10279	    0	22.903439	10.561655	2.733191	-0.305788	-0.750067	5.533558	0.225891	0.111938	0.028015	0.999609	-0.001529	-0.003750	0.027664	
10280	    0	22.904359	9.630612	2.692732	0.415846	-0.717810	4.942267	0.226473	0.101867	0.027951	0.999685	0.002079	-0.003589	0.024709	
10281	    0	21.482500	11.530953	1.216815	1.300343	-0.632527	4.132410	0.212341	0.119629	0.013611	0.999760	0.006501	-0.003162	0.020660	
10282	    0	18.307296	15.799261	-1.614844	1.915667	-0.536570	3.264435	0.180500	0.161095	-0.014129	0.999817	0.009578	-0.002683	0.016321	
10283	    0	13.952596	22.923626	-4.979548	1.709049	-0.492687	2.431580	0.136841	0.231323	-0.047485	0.999887	0.008545	-0.002463	0.012157	
10284	    0	10.292647	26.902165	-5.611635	0.831043	-0.488288	1.563285	0.100953	0.270045	-0.054748	0.999957	0.004155	-0.002441	0.007816	
10285	    0	9.914357	25.056980	-2.978139	0.068665	-0.436212	0.556184	0.098511	0.250854	-0.029480	0.999993	0.000343	-0.002181	0.002781	
10286	    0	11.593209	21.100332	0.580540	-0.101471	-0.311280	-0.485802	0.116435	0.210724	0.005879	0.999995	-0.000507	-0.001556	-0.002429	
10287	    0	13.340748	17.744687	2.417425	0.193216	-0.193788	-1.355754	0.134583	0.176514	0.024475	0.999975	0.000966	-0.000969	-0.006779	
10288	    0	13.012956	15.447620	2.510560	0.606549	-0.094034	-2.082103	0.131716	0.153033	0.025633	0.999941	0.003033	-0.000470	-0.010410	
10289	    0	12.200922	13.619659	1.267821	0.856808	-0.079157	-2.628410	0.123779	0.134521	0.013306	0.999904	0.004284	-0.000396	-0.013142	
10290	    0	13.553899	10.448982	-0.507729	0.985379	-0.172050	-3.062953	0.137122	0.102421	-0.004452	0.999869	0.004927	-0.000860	-0.015314	
10291	    0	14.658563	7.118617	-4.555773	1.005804	-0.553163	-3.560846	0.147949	0.068787	-0.044800	0.999825	0.005029	-0.002766	-0.017803	
10292	    0	10.399273	-15.750772	-9.760988	0.399221	-0.798824	-2.680677	0.102261	-0.158691	-0.097515	0.999900	0.001996	-0.003994	-0.013403	
10293	    0	12.856673	-31.810532	-4.592080	0.260930	-0.500307	-2.040901	0.125427	-0.319336	-0.046021	0.999944	0.001305	-0.002501	-0.010204	
10294	    0	16.975143	-9.239602	1.334615	0.189788	-0.231751	-2.924261	0.168361	-0.094877	0.013453	0.999891	0.000949	-0.001159	-0.014621	
10295	    0	18.125042	7.719975	2.656923	0.264181	-0.339525	-3.436451	0.182495	0.074036	0.026978	0.999849	0.001321	-0.001698	-0.017181	
10296	    0	20.529197	12.998823	2.120073	0.309200	-0.380730	-3.784219	0.207661	0.126040	0.021791	0.999818	0.001546	-0.001904	-0.018920	
10297	    0	17.577598	6.967924	-4.324455	0.741054	-0.857600	-3.812660	0.177246	0.066467	-0.042236	0.999802	0.003705	-0.004288	-0.019062	
10298	    0	12.405778	4.667234	-8.224200	1.279543	-1.241012	-3.800862	0.125427	0.044819	-0.081176	0.999780	0.006397	-0.006205	-0.019003	
10299	    0	7.874235	1.096500	-4.314108	0.666277	-1.123114	-3.550932	0.079163	0.009705	-0.042664	0.999821	0.003331	-0.005615	-0.017754	
10300	    0	3.565186	3.178232	-0.475371	0.450346	-1.226481	-3.046938	0.036159	0.031244	-0.004462	0.999862	0.002252	-0.006132	-0.015234	
10301	    0	4.397850	8.237080	-0.743230	0.238999	-1.136819	-2.648255	0.045105	0.081787	-0.007080	0.999895	0.001195	-0.005684	-0.013241	
10302	    0	7.174334	8.498838	-1.385617	-0.059892	-0.910971	-2.164318	0.072720	0.084201	-0.013552	0.999930	-0.000299	-0.004555	-0.010821	
10303	    0	8.087201	2.244897	-1.500300	0.129129	-0.840008	-1.651025	0.081116	0.021790	-0.014648	0.999956	0.000646	-0.004200	-0.008255	
10304	    0	12.001689	0.679456	-1.942351	0.365643	-0.649650	-1.399818	0.120123	0.005989	-0.019022	0.999969	0.001828	-0.003248	-0.006999	
10305	    0	15.585532	4.942348	-1.127461	0.282481	-0.515751	-1.251994	0.156189	0.048462	-0.010803	0.999975	0.001412	-0.002579	-0.006260	
10306	    0	15.307919	2.314445	-2.861873	0.127793	-0.532535	-1.060301	0.153275	0.022350	-0.028196	0.999982	0.000639	-0.002663	-0.005301	
10307	    0	12.886082	0.152879	-4.782011	0.134469	-0.423434	-1.000982	0.128967	0.000916	-0.047546	0.999985	0.000672	-0.002117	-0.005005	
10308	    0	11.197092	1.057633	-4.785359	0.101090	-0.212289	-0.908092	0.112068	0.010092	-0.047729	0.999989	0.000505	-0.001061	-0.004540	
10309	    0	10.447330	1.950868	-3.980922	-0.095940	-0.045014	-0.737764	0.104553	0.019104	-0.039795	0.999992	-0.000480	-0.000225	-0.003689	
10310	    0	9.761608	2.823239	-3.204362	-0.317193	0.070763	-0.551606	0.097682	0.027912	-0.032123	0.999994	-0.001586	0.000354	-0.002758	
10311	    0	10.371455	3.363361	-2.432819	-0.453950	0.136757	-0.370026	0.103760	0.033386	-0.024475	0.999995	-0.002270	0.000684	-0.001850	
10312	    0	11.357572	2.552958	-1.905354	-0.588609	0.235939	-0.217438	0.113581	0.025350	-0.019262	0.999994	-0.002943	0.001180	-0.001087	
10313	    0	11.385778	1.722778	-2.382000	-0.697901	0.295258	-0.095368	0.113831	0.017090	-0.024048	0.999992	-0.003489	0.001476	-0.000477	
10314	    0	11.185119	1.333810	-3.644705	-0.833514	0.333787	-0.008583	0.111791	0.013181	-0.036689	0.999990	-0.004168	0.001669	-0.000043	
10315	    0	11.221266	1.205753	-4.684704	-1.019864	0.376894	0.041199	0.112122	0.011841	-0.047119	0.999985	-0.005099	0.001884	0.000206	
10316	    0	10.764475	0.279710	-4.927575	-1.287470	0.382808	0.109292	0.107549	0.002538	-0.049499	0.999977	-0.006437	0.001914	0.000546	
10317	    0	10.134642	-1.065379	-6.370759	-1.573961	0.316051	0.213625	0.101257	-0.011047	-0.063782	0.999967	-0.007870	0.001580	0.001068	
10318	    0	11.010055	-0.155831	-6.361712	-1.839093	0.325398	0.194934	0.109999	-0.002037	-0.063779	0.999955	-0.009195	0.001627	0.000975	
10319	    0	13.246761	-1.598157	-1.416354	-1.936181	0.413520	0.101473	0.132446	-0.016052	-0.014282	0.999950	-0.009681	0.002068	0.000507	
10320	    0	12.602742	-0.300057	-0.996338	-1.938088	0.260929	0.090028	0.126016	-0.003041	-0.010098	0.999951	-0.009690	0.001305	0.000450	
10321	    0	11.705869	-1.482240	-0.053169	-1.917297	0.168040	0.096895	0.117065	-0.014771	-0.000488	0.999953	-0.009586	0.000840	0.000484	
10322	    0	10.027855	-0.727948	-0.311559	-1.776337	0.068475	0.011254	0.100278	-0.007301	-0.003085	0.999960	-0.008882	0.000342	0.000056	
10323	    0	9.533760	-0.185716	-0.000608	-1.661701	0.020027	-0.073243	0.095337	-0.001892	0.000000	0.999965	-0.008308	0.000100	-0.000366	
10324	    0	8.918988	-1.128035	0.547520	-1.533905	-0.010491	-0.186541	0.089179	-0.011321	0.005567	0.999969	-0.007669	-0.000052	-0.000933	
10325	    0	9.005021	-1.552422	0.620173	-1.279459	0.032997	-0.312807	0.090027	-0.015625	0.006287	0.999978	-0.006397	0.000165	-0.001564	
10326	    0	9.152755	-0.737413	0.547529	-1.013379	0.060463	-0.416376	0.091514	-0.007537	0.005486	0.999985	-0.005067	0.000302	-0.002082	
10327	    0	8.990739	-0.067139	-0.267411	-0.814823	0.032997	-0.518801	0.089905	-0.000916	-0.002686	0.999988	-0.004074	0.000165	-0.002594	
10328	    0	8.764209	0.100584	-0.289263	-0.644495	0.004578	-0.626566	0.087645	0.000722	-0.002897	0.999990	-0.003222	0.000023	-0.003133	
10329	    0	8.633888	0.704925	-0.254166	-0.492098	0.011635	-0.762179	0.086365	0.006714	-0.002563	0.999990	-0.002460	0.000058	-0.003811	
10330	    0	8.564907	0.916315	-0.035710	-0.344850	0.009918	-0.909618	0.085690	0.008773	-0.000377	0.999988	-0.001724	0.000050	-0.004548	
10331	    0	8.630950	-0.077136	-0.145242	-0.216676	0.031471	-1.037603	0.086304	-0.001221	-0.001465	0.999986	-0.001083	0.000157	-0.005188	
10332	    0	8.855329	-0.625030	0.033587	-0.081826	0.049591	-1.183326	0.088514	-0.006774	0.000317	0.999982	-0.000409	0.000248	-0.005917	
10333	    0	8.987305	-0.391248	-0.126159	0.028420	0.043488	-1.345072	0.089844	-0.004517	-0.001282	0.999977	0.000142	0.000217	-0.006725	
10334	    0	9.337185	-0.407764	-0.433031	0.125123	0.041581	-1.530662	0.093336	-0.004789	-0.004353	0.999970	0.000626	0.000208	-0.007653	
10335	    0	9.759019	-0.570188	-0.740866	0.177004	0.065804	-1.712820	0.097534	-0.006531	-0.007446	0.999963	0.000885	0.000329	-0.008564	
10336	    0	10.081001	-0.455389	-0.616968	0.203899	0.070191	-1.867131	0.100760	-0.005488	-0.006210	0.999955	0.001019	0.000351	-0.009336	
10337	    0	10.418942	0.087299	-0.732702	0.225262	0.112154	-2.043188	0.104187	-0.000183	-0.007385	0.999947	0.001126	0.000561	-0.010216	
10338	    0	10.674276	-0.126339	-1.133141	0.194363	0.141337	-2.196166	0.106712	-0.002424	-0.011409	0.999939	0.000972	0.000707	-0.010981	
10339	    0	10.883125	-0.363225	-1.913960	0.136760	0.153354	-2.323203	0.108765	-0.004883	-0.019226	0.999931	0.000684	0.000767	-0.011616	
10340	    0	10.894365	0.023615	-2.613331	0.040246	0.117496	-2.477900	0.108920	-0.001108	-0.026197	0.999923	0.000201	0.000587	-0.012389	
10341	    0	11.041326	-1.179260	-3.003251	-0.137333	0.120739	-2.595593	0.110229	-0.013245	-0.030090	0.999915	-0.000687	0.000604	-0.012978	
10342	    0	11.624638	-0.476042	-3.081925	-0.275239	0.113491	-2.760976	0.116148	-0.006407	-0.030877	0.999903	-0.001376	0.000567	-0.013804	
10343	    0	12.020215	-0.330410	-3.063650	-0.546857	0.127416	-2.894697	0.120117	-0.005127	-0.030701	0.999891	-0.002734	0.000637	-0.014473	
10344	    0	12.786443	-0.786426	-3.091617	-0.841748	0.144583	-3.035290	0.127702	-0.009933	-0.030970	0.999875	-0.004209	0.000723	-0.015176	
10345	    0	13.256705	-1.266274	-3.235963	-1.137406	0.105291	-3.182372	0.132324	-0.014954	-0.032349	0.999857	-0.005687	0.000526	-0.015911	
10346	    0	13.789230	-2.201638	-3.398646	-1.422578	0.051883	-3.333465	0.137488	-0.024551	-0.033854	0.999835	-0.007113	0.000259	-0.016666	
10347	    0	14.958497	-2.900305	-3.574731	-1.652440	-0.040438	-3.517372	0.149048	-0.031921	-0.035461	0.999811	-0.008262	-0.000202	-0.017586	
10348	    0	16.228383	-5.412968	-4.845431	-1.850450	-0.212112	-3.679727	0.161297	-0.057548	-0.047761	0.999787	-0.009252	-0.001060	-0.018397	
10349	    0	19.133501	-7.392370	-3.513008	-1.863044	-0.249500	-3.754701	0.189941	-0.077820	-0.034180	0.999779	-0.009315	-0.001247	-0.018772	
10350	    0	20.228219	-5.653763	-2.331250	-1.450262	-0.303100	-3.895660	0.201162	-0.060629	-0.022577	0.999783	-0.007251	-0.001515	-0.019477	
10351	    0	20.976741	-3.032258	-4.826609	-1.045872	-0.463136	-3.911098	0.209229	-0.034668	-0.047607	0.999792	-0.005229	-0.002316	-0.019554	
10352	    0	21.995689	-5.666423	-5.241746	-0.377678	-0.624314	-3.768580	0.218998	-0.060895	-0.051620	0.999815	-0.001888	-0.003121	-0.018842	
10353	    0	19.420733	-2.971440	-2.946661	-0.109870	-0.786447	-3.708108	0.193726	-0.033325	-0.028687	0.999820	-0.000549	-0.003932	-0.018539	
10354	    0	16.727371	2.747384	-2.625507	-0.318926	-0.910236	-3.475950	0.167834	0.024519	-0.025533	0.999837	-0.001595	-0.004551	-0.017379	
10355	    0	14.486011	5.256302	-1.634877	-0.850720	-0.705563	-3.278514	0.145752	0.050110	-0.016052	0.999850	-0.004253	-0.003528	-0.016392	
10356	    0	13.248702	7.007630	-0.813823	-1.529964	-0.412390	-3.169226	0.133592	0.067902	-0.008389	0.999843	-0.007649	-0.002062	-0.015845	
10357	    0	11.750234	9.132207	-5.143123	-2.049919	-0.284589	-2.527731	0.118713	0.089294	-0.052185	0.999866	-0.010249	-0.001423	-0.012638	
10358	    0	14.497844	6.380865	-7.965655	-2.991245	-0.275053	-1.514506	0.145560	0.061509	-0.080388	0.999858	-0.014956	-0.001375	-0.007572	
10359	    0	12.847985	-3.951890	-3.571606	-3.555495	0.148209	-0.783582	0.128296	-0.040649	-0.035095	0.999833	-0.017776	0.000741	-0.003918	
10360	    0	10.288892	-7.803997	0.503950	-3.028799	0.350966	-0.452441	0.102722	-0.078186	0.006042	0.999881	-0.015143	0.001755	-0.002262	
10361	    0	7.201478	-7.162953	2.352653	-1.782443	0.491722	-0.115778	0.072032	-0.071459	0.023987	0.999956	-0.008912	0.002459	-0.000579	
10362	    0	5.643050	-6.197364	2.999328	-0.643351	0.613596	0.249101	0.056600	-0.061807	0.030019	0.999989	-0.003217	0.003068	0.001245	
10363	    0	4.943576	-4.485273	2.893475	0.277139	0.750736	0.620272	0.049683	-0.044739	0.028687	0.999987	0.001386	0.003754	0.003101	
10364	    0	4.688257	-2.655606	2.161465	0.955210	0.795182	1.014911	0.047102	-0.026420	0.021301	0.999968	0.004776	0.003976	0.005075	
10365	    0	4.206566	-1.768613	1.073735	1.463348	0.815790	1.456481	0.042236	-0.017456	0.010437	0.999938	0.007317	0.004079	0.007282	
10366	    0	3.619527	-1.307675	0.044808	1.880897	0.847081	1.874794	0.036317	-0.012739	0.000174	0.999903	0.009404	0.004235	0.009374	
10367	    0	3.543368	-1.036131	-0.590016	2.196030	0.868264	2.292737	0.035522	-0.009888	-0.006165	0.999865	0.010980	0.004341	0.011463	
10368	    0	3.781611	-0.593910	-1.179100	2.361241	0.862552	2.700959	0.037839	-0.005287	-0.012019	0.999829	0.011806	0.004313	0.013504	
10369	    0	4.160720	-0.319617	-1.932331	2.315675	0.854740	3.133600	0.041565	-0.002319	-0.019531	0.999801	0.011578	0.004273	0.015667	
10370	    0	4.379040	-0.210131	-2.353924	2.177593	0.820603	3.549842	0.043718	-0.001067	-0.023734	0.999774	0.010887	0.004103	0.017748	
10371	    0	4.524330	-0.274861	-2.860728	1.967210	0.804967	3.889784	0.045166	-0.001587	-0.028809	0.999754	0.009835	0.004025	0.019447	
10372	    0	4.876952	-0.910432	-3.046536	1.726111	0.785897	4.178605	0.048821	-0.007820	-0.030728	0.999736	0.008630	0.003929	0.020891	
10373	    0	5.493226	-1.689174	-2.853329	1.593932	0.760150	4.430809	0.055176	-0.015442	-0.028870	0.999715	0.007969	0.003800	0.022152	
10374	    0	6.148474	-1.490110	-2.740281	1.499901	0.713230	4.653260	0.061707	-0.013260	-0.027726	0.999695	0.007499	0.003566	0.023264	
10375	    0	6.966294	-0.940394	-2.900759	1.386411	0.667835	4.858924	0.069763	-0.007507	-0.029297	0.999675	0.006931	0.003339	0.024292	
10376	    0	7.928052	-0.178248	-3.099699	1.242781	0.624156	5.074896	0.079191	0.000422	-0.031246	0.999654	0.006213	0.003120	0.025372	
10377	    0	8.834602	0.268234	-3.438316	1.056800	0.559493	5.267211	0.088135	0.005188	-0.034607	0.999635	0.005283	0.002797	0.026333	
10378	    0	9.657384	0.210965	-3.717756	0.914310	0.469841	5.465830	0.096377	0.004916	-0.037386	0.999613	0.004571	0.002349	0.027326	
10379	    0	10.611422	0.307706	-3.790637	0.767622	0.376371	5.666364	0.105896	0.006226	-0.038086	0.999589	0.003838	0.001882	0.028328	
10380	    0	11.597485	0.879439	-3.825589	0.544817	0.274507	5.852017	0.115597	0.012285	-0.038384	0.999567	0.002724	0.001372	0.029256	
10381	    0	12.595239	1.580645	-4.241146	0.267069	0.148987	6.036533	0.125366	0.019653	-0.042480	0.999543	0.001335	0.000745	0.030178	
10382	    0	13.602184	1.788380	-5.016816	-0.037772	-0.012972	6.194724	0.135385	0.022075	-0.050163	0.999520	-0.000189	-0.000065	0.030969	
10383	    0	14.590286	1.520934	-5.767382	-0.281381	-0.196871	6.300636	0.145386	0.019714	-0.057556	0.999502	-0.001407	-0.000984	0.031498	
10384	    0	15.841057	1.799111	-6.272982	-0.374285	-0.433995	6.318771	0.157875	0.022868	-0.062427	0.999496	-0.001871	-0.002170	0.031589	
10385	    0	17.291777	2.349185	-6.539713	-0.360168	-0.726250	6.299124	0.172302	0.028809	-0.064819	0.999496	-0.001801	-0.003631	0.031490	
10386	    0	18.809158	3.148543	-6.371301	-0.218618	-1.032429	6.227956	0.187317	0.037258	-0.062783	0.999501	-0.001093	-0.005161	0.031135	
10387	    0	20.917362	6.080933	-4.746859	-0.223577	-1.285565	6.015964	0.207520	0.067017	-0.046204	0.999526	-0.001118	-0.006427	0.030075	
10388	    0	22.305663	11.580526	3.755250	-0.958009	-0.858240	5.750153	0.219440	0.122331	0.037924	0.999565	-0.004789	-0.004291	0.028747	
10389	    0	21.621588	7.156114	6.184248	-0.608709	-0.712672	5.311465	0.213989	0.077454	0.062378	0.999636	-0.003043	-0.003563	0.026554	
10390	    0	20.794247	8.092951	4.570612	0.484129	-0.600488	4.624790	0.205860	0.085594	0.046530	0.999724	0.002420	-0.003002	0.023122	
10391	    0	19.137805	10.916487	1.628684	1.495658	-0.417358	3.826413	0.189209	0.112671	0.017517	0.999786	0.007478	-0.002087	0.019131	
10392	    0	15.966283	16.393966	-2.810258	1.952087	-0.371381	3.021214	0.157209	0.166589	-0.026192	0.999836	0.009760	-0.001857	0.015105	
10393	    0	11.381775	23.713848	-5.695554	1.352922	-0.408947	2.237004	0.111267	0.238770	-0.055115	0.999912	0.006764	-0.002045	0.011185	
10394	    0	9.082060	25.784264	-4.167528	0.363353	-0.375560	1.356137	0.089147	0.258526	-0.041038	0.999973	0.001817	-0.001878	0.006781	
10395	    0	10.340825	22.309056	-0.329665	-0.134277	-0.292015	0.345612	0.103027	0.223267	-0.003296	0.999997	-0.000671	-0.001460	0.001728	
10396	    0	12.646440	18.257934	2.506487	-0.014687	-0.143814	-0.591470	0.126986	0.182206	0.025143	0.999995	-0.000073	-0.000719	-0.002957	
10397	    0	13.116713	15.996097	3.052730	0.372318	0.001717	-1.375591	0.132263	0.158997	0.030823	0.999974	0.001862	0.000009	-0.006878	
10398	    0	11.651315	15.580378	1.450570	0.596248	0.061418	-1.993978	0.118063	0.154588	0.014932	0.999946	0.002981	0.000307	-0.009970	
10399	    0	11.028100	13.809845	-0.960927	0.579086	0.007820	-2.416291	0.111938	0.136780	-0.009216	0.999923	0.002895	0.000039	-0.012081	
10400	    0	14.082155	10.268498	-4.273012	0.504513	-0.315487	-2.950017	0.142384	0.100699	-0.042251	0.999887	0.002522	-0.001577	-0.014750	
10401	    0	12.848260	8.997956	-7.133135	0.282301	-0.531603	-3.284607	0.130127	0.087952	-0.070862	0.999860	0.001411	-0.002658	-0.016422	
10402	    0	10.956085	-9.938680	-10.096757	-0.280579	-0.597970	-2.499269	0.108607	-0.100889	-0.100501	0.999916	-0.001403	-0.002990	-0.012496	
10403	    0	16.299398	-18.750906	-2.349007	-0.722524	-0.278290	-2.456733	0.160706	-0.189575	-0.022583	0.999917	-0.003613	-0.001391	-0.012283	
10404	    0	18.338255	-9.248705	2.308130	-0.554295	-0.119976	-2.865130	0.182019	-0.095037	0.023452	0.999893	-0.002771	-0.000600	-0.014325	
10405	    0	19.067109	3.988981	3.332198	0.194750	-0.220501	-3.450948	0.191284	0.036560	0.033569	0.999849	0.000974	-0.001102	-0.017254	
10406	    0	17.235772	10.708817	-2.443392	1.019928	-0.629658	-3.837462	0.174446	0.103875	-0.023352	0.999798	0.005099	-0.003148	-0.019186	
10407	    0	14.940720	9.044394	-8.862912	1.928098	-1.134388	-3.694440	0.151550	0.088501	-0.086914	0.999766	0.009640	-0.005672	-0.018471	
10408	    0	11.196230	3.930824	-6.403438	1.135324	-0.971091	-3.535869	0.112947	0.037678	-0.063271	0.999815	0.005676	-0.004855	-0.017678	
10409	    0	5.388062	3.646072	-1.658601	0.742564	-1.024673	-3.004589	0.054504	0.035706	-0.016174	0.999866	0.003713	-0.005123	-0.015022	
10410	    0	5.415605	6.041587	-0.375766	0.430121	-0.871878	-2.641765	0.054963	0.059701	-0.003390	0.999901	0.002151	-0.004359	-0.013208	
10411	    0	8.101852	6.871634	-0.275387	0.277716	-0.684182	-2.231649	0.081787	0.067810	-0.002380	0.999930	0.001389	-0.003421	-0.011158	
10412	    0	9.108816	4.652298	-0.513508	0.296025	-0.622377	-1.725412	0.091500	0.045742	-0.004783	0.999956	0.001480	-0.003112	-0.008627	
10413	    0	11.325208	1.528567	-1.791288	0.464635	-0.530058	-1.412216	0.113403	0.014526	-0.017578	0.999969	0.002323	-0.002650	-0.007061	
10414	    0	13.618393	3.690159	-1.675355	0.478558	-0.403026	-1.237307	0.136442	0.036098	-0.016392	0.999975	0.002393	-0.002015	-0.006186	
10415	    0	13.843536	2.661128	-2.282031	0.265504	-0.380518	-1.012426	0.138611	0.025940	-0.022522	0.999984	0.001328	-0.001903	-0.005062	
10416	    0	12.813718	1.889427	-3.995541	0.057793	-0.261308	-0.873378	0.128270	0.018346	-0.039783	0.999990	0.000289	-0.001307	-0.004367	
10417	    0	11.818279	2.228670	-3.903493	-0.203705	-0.094414	-0.773623	0.118286	0.021790	-0.039001	0.999991	-0.001019	-0.000472	-0.003868	
10418	    0	11.285287	1.497557	-3.421686	-0.438119	0.017357	-0.613977	0.112895	0.014554	-0.034259	0.999992	-0.002191	0.000087	-0.003070	
10419	    0	10.801275	1.731831	-2.934801	-0.598146	0.149727	-0.485994	0.108032	0.016968	-0.029480	0.999991	-0.002991	0.000749	-0.002430	
10420	    0	10.881036	2.432162	-2.962640	-0.701334	0.250245	-0.356866	0.108816	0.024023	-0.029847	0.999991	-0.003507	0.001251	-0.001784	
10421	    0	11.276870	0.989321	-2.925645	-0.773623	0.329782	-0.241090	0.112732	0.009644	-0.029480	0.999990	-0.003868	0.001649	-0.001205	
10422	    0	11.253342	0.233873	-3.233531	-0.795367	0.410081	-0.176049	0.112469	0.002110	-0.032575	0.999990	-0.003977	0.002050	-0.000880	
10423	    0	10.512338	0.785521	-3.959589	-0.841335	0.433351	-0.111390	0.105042	0.007629	-0.039856	0.999989	-0.004207	0.002167	-0.000557	
10424	    0	10.229924	0.922149	-4.958037	-0.980573	0.419237	-0.038529	0.102197	0.008958	-0.049839	0.999986	-0.004903	0.002096	-0.000193	
10425	    0	10.675570	-0.348434	-6.414070	-1.228150	0.399783	0.063324	0.106628	-0.003845	-0.064331	0.999979	-0.006141	0.001999	0.000317	
10426	    0	11.514687	-0.544042	-5.765991	-1.486411	0.393871	0.069619	0.115035	-0.005830	-0.057844	0.999969	-0.007432	0.001969	0.000348	
10427	    0	13.254188	-1.003608	-1.693939	-1.600665	0.441175	0.061799	0.132507	-0.010132	-0.017151	0.999965	-0.008003	0.002206	0.000309	
10428	    0	12.497355	1.000665	-1.402828	-1.722167	0.308994	0.061990	0.124949	0.009923	-0.014307	0.999961	-0.008611	0.001545	0.000310	
10429	    0	11.681617	-0.793691	0.176550	-1.867703	0.222972	0.080873	0.116821	-0.007874	0.001709	0.999955	-0.009338	0.001115	0.000404	
10430	    0	10.111073	-0.557745	0.704247	-1.732848	0.137522	-0.012207	0.101115	-0.005523	0.007021	0.999962	-0.008664	0.000688	-0.000061	
10431	    0	9.923808	-0.706117	1.240697	-1.577585	0.145723	-0.112153	0.099243	-0.007019	0.012390	0.999968	-0.007888	0.000729	-0.000561	
10432	    0	9.788938	-1.292545	1.745292	-1.359188	0.171091	-0.237848	0.097889	-0.012923	0.017457	0.999975	-0.006796	0.000855	-0.001189	
10433	    0	9.676490	-2.150024	1.519458	-1.011472	0.218965	-0.378420	0.096741	-0.021606	0.015198	0.999985	-0.005057	0.001095	-0.001892	
10434	    0	8.876913	-1.680419	0.732203	-0.602724	0.202561	-0.517084	0.088733	-0.017012	0.007283	0.999991	-0.003014	0.001013	-0.002585	
10435	    0	8.454552	-0.324919	0.006621	-0.312615	0.169373	-0.688173	0.084534	-0.003540	0.000000	0.999992	-0.001563	0.000847	-0.003441	
10436	    0	8.420043	-0.192430	-0.280125	-0.163270	0.134850	-0.842288	0.084189	-0.002281	-0.002856	0.999990	-0.000816	0.000674	-0.004211	
10437	    0	8.487109	-0.561092	-0.342456	0.013161	0.127411	-1.017766	0.084839	-0.006042	-0.003479	0.999987	0.000066	0.000637	-0.005089	
10438	    0	8.446884	-0.573407	-0.763941	0.167848	0.142671	-1.172645	0.084428	-0.006223	-0.007705	0.999982	0.000839	0.000713	-0.005863	
10439	    0	8.681718	-0.231855	-1.135130	0.341037	0.132943	-1.312266	0.086792	-0.002869	-0.011414	0.999976	0.001705	0.000665	-0.006561	
10440	    0	9.085240	-0.239017	-1.428056	0.443272	0.101281	-1.432051	0.090825	-0.003009	-0.014333	0.999971	0.002216	0.000506	-0.007160	
10441	    0	9.483239	0.338962	-1.387891	0.432019	0.091554	-1.548021	0.094849	0.002686	-0.013916	0.999968	0.002160	0.000458	-0.007740	
10442	    0	9.503490	1.183693	-1.025676	0.339703	0.074578	-1.645108	0.095124	0.011072	-0.010273	0.999964	0.001698	0.000373	-0.008225	
10443	    0	9.506611	1.095195	-0.833892	0.182345	0.068093	-1.740287	0.095154	0.010132	-0.008362	0.999961	0.000912	0.000340	-0.008701	
10444	    0	10.018749	0.294645	-0.929703	0.091363	0.075151	-1.835086	0.100205	0.002031	-0.009334	0.999957	0.000457	0.000376	-0.009175	
10445	    0	10.580450	0.418684	-0.887359	0.006104	0.071145	-1.915007	0.105835	0.003174	-0.008911	0.999953	0.000031	0.000356	-0.009575	
10446	    0	10.869403	1.050122	-0.488736	-0.092317	0.067521	-2.006183	0.108790	0.009408	-0.004929	0.999949	-0.000462	0.000338	-0.010031	
10447	    0	10.739060	0.961063	-0.116798	-0.188450	0.082590	-2.095070	0.107483	0.008484	-0.001221	0.999944	-0.000942	0.000413	-0.010475	
10448	    0	10.506577	-0.664515	0.023242	-0.189594	0.090982	-2.223633	0.104983	-0.007812	0.000192	0.999937	-0.000948	0.000455	-0.011118	
10449	    0	10.541799	-0.502461	-0.189593	-0.105860	0.114444	-2.393398	0.105347	-0.006287	-0.001953	0.999928	-0.000529	0.000572	-0.011967	
10450	    0	10.574870	-0.373617	-0.396543	-0.156598	0.142101	-2.569461	0.105686	-0.005097	-0.004037	0.999916	-0.000783	0.000710	-0.012847	
10451	    0	10.781520	-0.937482	-0.927100	-0.190550	0.143437	-2.748958	0.107666	-0.010864	-0.009338	0.999905	-0.000953	0.000717	-0.013744	
10452	    0	11.116643	-0.880324	-1.586293	-0.216111	0.116353	-2.976337	0.111010	-0.010473	-0.015917	0.999888	-0.001081	0.000582	-0.014881	
10453	    0	11.977528	-1.514625	-2.471325	-0.328078	0.055125	-3.182356	0.119507	-0.017090	-0.024719	0.999871	-0.001640	0.000276	-0.015911	
10454	    0	13.022826	-2.711133	-3.393243	-0.531795	-0.014497	-3.394866	0.129745	-0.029407	-0.033847	0.999852	-0.002659	-0.000072	-0.016973	
10455	    0	14.508927	-4.118266	-4.748841	-0.788160	-0.107390	-3.563125	0.144348	-0.043945	-0.047241	0.999833	-0.003941	-0.000537	-0.017815	
10456	    0	16.987789	-4.403274	-4.060960	-1.111673	-0.189793	-3.717275	0.169056	-0.047404	-0.040192	0.999811	-0.005558	-0.000949	-0.018585	
10457	    0	19.058630	-5.735610	-3.697506	-1.405237	-0.251024	-3.733311	0.189514	-0.061157	-0.036316	0.999800	-0.007026	-0.001255	-0.018665	
10458	    0	21.725727	-3.689045	-4.256424	-1.271718	-0.383595	-3.867991	0.216567	-0.041351	-0.041895	0.999790	-0.006358	-0.001918	-0.019339	
10459	    0	23.183710	-3.728556	-5.233689	-1.007149	-0.588076	-3.895074	0.231201	-0.042053	-0.051453	0.999793	-0.005035	-0.002940	-0.019474	
10460	    0	22.171646	-5.523573	-5.274953	-0.600471	-0.752114	-3.745312	0.220824	-0.059533	-0.051744	0.999813	-0.003002	-0.003760	-0.018725	
10461	    0	19.586191	-1.520350	-3.235689	-0.571284	-0.830126	-3.580681	0.195679	-0.018799	-0.031494	0.999826	-0.002856	-0.004150	-0.017902	
10462	    0	15.515249	1.139068	-2.415795	-1.274179	-0.957161	-3.277960	0.155423	0.008694	-0.023476	0.999833	-0.006371	-0.004786	-0.016389	
10463	    0	13.287579	3.159514	-0.902832	-1.683894	-0.832982	-2.972565	0.133362	0.029541	-0.008728	0.999845	-0.008419	-0.004165	-0.014862	
10464	    0	10.931602	5.878537	-0.689758	-2.026857	-0.634609	-2.881204	0.110169	0.057131	-0.007133	0.999840	-0.010134	-0.003173	-0.014405	
10465	    0	8.794160	7.909063	-4.676448	-2.470529	-0.546103	-2.513256	0.089050	0.077393	-0.047485	0.999841	-0.012352	-0.002730	-0.012566	
10466	    0	14.513606	6.617972	-10.022785	-3.099985	-0.564986	-1.614464	0.145940	0.063444	-0.100814	0.999843	-0.015499	-0.002825	-0.008072	
10467	    0	13.207228	-3.531414	-6.211809	-3.591168	-0.280778	-0.767560	0.132019	-0.036926	-0.061279	0.999830	-0.017955	-0.001404	-0.003838	
10468	    0	10.530013	-6.840163	-1.577411	-3.151263	-0.112920	-0.399988	0.105171	-0.068849	-0.014632	0.999873	-0.015756	-0.000565	-0.002000	
10469	    0	7.513815	-5.418033	1.509400	-2.224014	0.024605	-0.021363	0.075134	-0.054016	0.015686	0.999938	-0.011120	0.000123	-0.000107	
10470	    0	5.861917	-4.609415	3.028128	-1.356708	0.115777	0.352672	0.058718	-0.045784	0.030559	0.999975	-0.006783	0.000579	0.001763	
10471	    0	5.156620	-3.328633	2.592119	-0.677493	0.125313	0.690463	0.051697	-0.033020	0.026001	0.999988	-0.003387	0.000627	0.003452	
10472	    0	4.813577	-2.481809	1.576891	-0.148392	0.095177	1.061445	0.048274	-0.024550	0.015764	0.999985	-0.000742	0.000476	0.005307	
10473	    0	4.569757	-2.717892	0.841965	0.325206	0.061036	1.470961	0.045898	-0.026855	0.008362	0.999971	0.001626	0.000305	0.007355	
10474	    0	4.557011	-2.938199	0.525647	0.819220	0.049020	1.840432	0.045839	-0.028982	0.005126	0.999949	0.004096	0.000245	0.009202	
10475	    0	4.744861	-2.582283	0.463398	1.294171	0.056459	2.193510	0.047729	-0.025330	0.004456	0.999918	0.006471	0.000282	0.010967	
10476	    0	5.108709	-1.670676	0.147848	1.625886	0.072673	2.539540	0.051294	-0.016068	0.001328	0.999886	0.008129	0.000363	0.012697	
10477	    0	5.386425	-1.102403	-0.421544	1.813597	0.085644	2.935937	0.054016	-0.010193	-0.004333	0.999850	0.009068	0.000428	0.014679	
10478	    0	5.555345	-0.815196	-0.999567	1.865119	0.101859	3.327381	0.055673	-0.007133	-0.010094	0.999818	0.009325	0.000509	0.016636	
10479	    0	5.875040	-1.237299	-1.040828	1.833668	0.151836	3.760040	0.058960	-0.011169	-0.010559	0.999781	0.009168	0.000759	0.018799	
10480	    0	6.353396	-1.911256	-0.608204	1.797067	0.218601	4.151127	0.063905	-0.017733	-0.006315	0.999743	0.008985	0.001093	0.020754	
10481	    0	6.997252	-2.180977	-0.276216	1.806818	0.290899	4.497207	0.070435	-0.020203	-0.003052	0.999705	0.009033	0.001454	0.022484	
10482	    0	7.603766	-1.816357	-0.203177	1.842320	0.349846	4.784920	0.076439	-0.016317	-0.002321	0.999669	0.009211	0.001749	0.023922	
10483	    0	8.255833	-1.717004	-0.542832	1.919220	0.381517	5.074173	0.082947	-0.015015	-0.005737	0.999630	0.009595	0.001907	0.025368	
10484	    0	9.125329	-1.789134	-0.931424	1.969794	0.395828	5.329853	0.091666	-0.015358	-0.009655	0.999594	0.009848	0.001979	0.026646	
10485	    0	10.007138	-1.719471	-1.292288	2.025900	0.454969	5.538985	0.100464	-0.014282	-0.013306	0.999562	0.010128	0.002275	0.027691	
10486	    0	11.046146	-1.335647	-1.839992	2.049571	0.459742	5.703469	0.110736	-0.010010	-0.018768	0.999537	0.010246	0.002298	0.028513	
10487	    0	12.261703	-0.458098	-2.466429	2.007808	0.454785	5.869476	0.122620	-0.000732	-0.024963	0.999516	0.010037	0.002274	0.029343	
10488	    0	13.377078	0.659762	-3.135640	1.842804	0.435520	6.019256	0.133417	0.010907	-0.031560	0.999502	0.009212	0.002177	0.030091	
10489	    0	14.286645	0.928702	-4.235245	1.575930	0.402901	6.195364	0.142395	0.014038	-0.042542	0.999487	0.007878	0.002014	0.030972	
10490	    0	15.468414	0.511570	-5.435947	1.258307	0.326977	6.347431	0.154322	0.010361	-0.054558	0.999475	0.006290	0.001635	0.031732	
10491	    0	16.703376	0.465781	-6.496850	0.968340	0.235980	6.404472	0.166687	0.010315	-0.065125	0.999475	0.004841	0.001180	0.032017	
10492	    0	17.739631	1.690527	-7.601369	0.743995	0.045594	6.407895	0.176710	0.022858	-0.075976	0.999479	0.003719	0.000228	0.032034	
10493	    0	18.370837	3.695513	-8.698324	0.548647	-0.219573	6.381555	0.182495	0.043030	-0.086670	0.999486	0.002743	-0.001098	0.031902	
10494	    0	18.700454	4.890709	-9.050586	0.334033	-0.543876	6.298163	0.185583	0.054917	-0.089911	0.999498	0.001670	-0.002719	0.031486	
10495	    0	18.799121	5.251431	-8.768033	0.248949	-0.874468	6.121277	0.186646	0.058350	-0.086792	0.999521	0.001245	-0.004372	0.030602	
10496	    0	20.690688	10.282822	-5.604227	-0.207549	-1.043277	5.743271	0.204131	0.108660	-0.055083	0.999573	-0.001038	-0.005216	0.028712	
10497	    0	20.249995	12.256853	3.954239	-0.915635	-0.707137	5.173335	0.199097	0.127930	0.039673	0.999648	-0.004578	-0.003535	0.025864	
10498	    0	17.684354	9.717300	3.699763	-0.367960	-0.614793	4.576329	0.174443	0.101252	0.037353	0.999731	-0.001840	-0.003074	0.022880	
10499	    0	15.918682	11.824166	-0.098231	0.530466	-0.531802	3.770679	0.156921	0.121216	-0.000244	0.999815	0.002652	-0.002659	0.018852	
10500	    0	13.726795	17.881435	-2.827150	0.990715	-0.466746	2.845302	0.134768	0.180880	-0.027062	0.999884	0.004953	-0.002334	0.014226	
10501	    0	10.217100	23.770731	-4.021419	0.689710	-0.411804	1.960791	0.099915	0.238831	-0.039185	0.999944	0.003448	-0.002059	0.009804	
10502	    0	8.164023	23.583234	-3.276122	0.008202	-0.378229	0.960354	0.080568	0.236222	-0.032598	0.999987	0.000041	-0.001891	0.004802	
10503	    0	8.599510	20.128892	-0.867432	-0.185204	-0.308228	-0.111389	0.086121	0.201233	-0.008728	0.999998	-0.000926	-0.001541	-0.000557	
10504	    0	11.373742	17.329951	1.781532	0.132180	-0.179292	-1.026540	0.114609	0.172701	0.018032	0.999986	0.000661	-0.000896	-0.005133	
10505	    0	12.705579	16.163498	2.985527	0.534065	-0.077630	-1.708244	0.128418	0.160461	0.030334	0.999959	0.002670	-0.000388	-0.008541	
10506	    0	12.126497	15.076012	2.145278	0.700394	-0.035859	-2.204563	0.122912	0.149335	0.021999	0.999932	0.003502	-0.000179	-0.011023	
10507	    0	11.771306	12.846233	0.206483	0.631922	-0.058748	-2.528453	0.119324	0.126953	0.002502	0.999914	0.003160	-0.000294	-0.012642	
10508	    0	11.681462	9.861621	-1.158048	0.544185	-0.138860	-2.789782	0.118183	0.097005	-0.011233	0.999898	0.002721	-0.000694	-0.013948	
10509	    0	14.726378	6.308020	-2.113686	0.583101	-0.360122	-3.094612	0.148254	0.060852	-0.020691	0.999874	0.002915	-0.001801	-0.015472	
