// Start Time: Unknown
// Update Rate: 100.0Hz
// Filter Profile: human (34.3)
// Firmware Version: 2.1.4
PacketCounter	SampleTimeFine	Acc_X	Acc_Y	Acc_Z	Gyr_X	Gyr_Y	Gyr_Z	VelInc_X	VelInc_Y	VelInc_Z	OriInc_q0	OriInc_q1	OriInc_q2	OriInc_q3	
21626	    0	16.735679	-35.761243	14.027690	0.957131	0.092699	-2.223260	0.163427	-0.360109	0.138481	0.999927	0.004786	0.000463	-0.011116	
21627	    0	16.628975	-9.229473	12.941469	2.061022	-0.052646	-3.331970	0.164673	-0.096375	0.128479	0.999807	0.010304	-0.000263	-0.016659	
21628	    0	16.160286	8.229620	2.256433	2.654909	-0.221083	-4.064006	0.163200	0.078680	0.023805	0.999704	0.013273	-0.001105	-0.020318	
21629	    0	18.765860	11.738297	-0.401308	2.347002	-0.299670	-3.856988	0.189880	0.113770	-0.002380	0.999743	0.011734	-0.001498	-0.019283	
21630	    0	16.226007	9.937618	-10.256553	2.174536	-0.893467	-3.452552	0.164409	0.097652	-0.100766	0.999782	0.010872	-0.004467	-0.017262	
21631	    0	13.750067	17.233414	-13.841764	2.483770	-1.122379	-3.598328	0.141357	0.171509	-0.135498	0.999744	0.012418	-0.005611	-0.017990	
21632	    0	16.275542	0.798674	-3.876203	1.698025	-0.963079	-3.289996	0.163045	0.005630	-0.037923	0.999817	0.008490	-0.004815	-0.016449	
21633	    0	11.080261	-3.098132	1.912236	1.539881	-0.968219	-2.980956	0.110229	-0.032776	0.019409	0.999847	0.007699	-0.004841	-0.014904	
21634	    0	5.158610	2.079485	1.374328	1.161627	-0.902597	-2.904257	0.051817	0.019962	0.014094	0.999867	0.005808	-0.004513	-0.014521	
21635	    0	7.418031	6.445693	-2.846527	0.593777	-0.696587	-2.681059	0.075134	0.063538	-0.028015	0.999899	0.002969	-0.003483	-0.013405	
21636	    0	7.307830	5.247994	-5.258390	-0.175480	-0.466738	-2.217150	0.073776	0.051619	-0.052458	0.999935	-0.000877	-0.002334	-0.011086	
21637	    0	6.344798	2.041712	-2.480581	-0.664340	-0.289158	-1.759365	0.063660	0.019775	-0.024780	0.999954	-0.003322	-0.001446	-0.008797	
21638	    0	8.343684	0.898988	0.368368	-0.343326	-0.257876	-1.424230	0.083493	0.008402	0.003777	0.999972	-0.001717	-0.001289	-0.007121	
21639	    0	11.979201	1.589346	0.972229	-0.067902	-0.182916	-1.166541	0.119873	0.015198	0.009827	0.999982	-0.000340	-0.000915	-0.005833	
21640	    0	14.137682	-0.662100	0.331636	0.092507	-0.291444	-0.996785	0.141336	-0.007327	0.003519	0.999986	0.000463	-0.001457	-0.004984	
21641	    0	14.147809	-0.116814	-0.439148	0.198365	-0.429346	-0.942998	0.141479	-0.001831	-0.004089	0.999986	0.000992	-0.002147	-0.004715	
21642	    0	12.325353	0.790118	-0.975271	0.153542	-0.473978	-0.873569	0.123309	0.007370	-0.009455	0.999987	0.000768	-0.002370	-0.004368	
21643	    0	10.826567	0.433054	0.213721	0.080872	-0.446130	-0.782016	0.108276	0.003906	0.002380	0.999990	0.000404	-0.002231	-0.003910	
21644	    0	10.373164	-0.295939	-0.152135	0.087357	-0.400354	-0.736429	0.103723	-0.003341	-0.001315	0.999990	0.000437	-0.002002	-0.003682	
21645	    0	10.336504	0.280841	-1.122805	0.074005	-0.347711	-0.717928	0.103394	0.002441	-0.011047	0.999991	0.000370	-0.001739	-0.003590	
21646	    0	9.817243	1.965461	-4.058077	-0.198555	-0.291634	-0.656511	0.098295	0.019292	-0.040457	0.999992	-0.000993	-0.001458	-0.003283	
21647	    0	8.782010	2.786810	-6.180914	-0.725367	-0.183106	-0.543978	0.087952	0.027405	-0.061829	0.999989	-0.003627	-0.000916	-0.002720	
21648	    0	8.274511	0.948724	-5.977123	-1.099021	-0.093270	-0.379374	0.082790	0.009002	-0.059783	0.999983	-0.005495	-0.000466	-0.001897	
21649	    0	8.692399	-0.219184	-4.144393	-1.119811	0.028992	-0.321199	0.086914	-0.002563	-0.041443	0.999983	-0.005599	0.000145	-0.001606	
21650	    0	9.493025	-0.109404	-2.169037	-0.938801	0.074768	-0.313379	0.094920	-0.001345	-0.021720	0.999988	-0.004694	0.000374	-0.001567	
21651	    0	10.077053	0.326760	-1.624578	-0.748446	0.077248	-0.307465	0.100769	0.003052	-0.016296	0.999991	-0.003742	0.000386	-0.001537	
21652	    0	9.952531	0.851895	-1.666514	-0.601770	0.038147	-0.329781	0.099536	0.008305	-0.016709	0.999993	-0.003009	0.000191	-0.001649	
21653	    0	9.485470	-0.236065	-1.818465	-0.483704	0.020790	-0.334931	0.094849	-0.002563	-0.018188	0.999995	-0.002419	0.000104	-0.001675	
21654	    0	9.512029	-0.434174	-1.862299	-0.316620	0.007629	-0.345803	0.095112	-0.004536	-0.018620	0.999997	-0.001583	0.000038	-0.001729	
21655	    0	9.801476	0.453752	-2.019557	-0.231934	0.004005	-0.368500	0.098022	0.004333	-0.020203	0.999997	-0.001160	0.000020	-0.001842	
21656	    0	9.892367	1.394523	-2.460520	-0.354004	-0.011635	-0.352669	0.098949	0.013727	-0.024624	0.999996	-0.001770	-0.000058	-0.001763	
21657	    0	9.457992	1.193948	-2.727251	-0.520326	-0.043297	-0.316620	0.094604	0.011719	-0.027283	0.999995	-0.002602	-0.000216	-0.001583	
21658	    0	9.154272	1.121114	-2.640641	-0.633241	-0.062180	-0.308419	0.091568	0.010986	-0.026413	0.999993	-0.003166	-0.000311	-0.001542	
21659	    0	9.317570	1.096556	-1.964887	-0.724794	-0.074578	-0.326539	0.093201	0.010742	-0.019653	0.999991	-0.003624	-0.000373	-0.001633	
21660	    0	9.505608	0.345185	-1.583944	-0.752260	-0.116158	-0.337411	0.095071	0.003232	-0.015797	0.999990	-0.003761	-0.000581	-0.001687	
21661	    0	9.520824	-0.228161	-1.321112	-0.690462	-0.168419	-0.368501	0.095215	-0.002502	-0.013123	0.999991	-0.003452	-0.000842	-0.001842	
21662	    0	10.232219	0.263722	-0.828666	-0.531388	-0.152970	-0.448037	0.102334	0.002386	-0.008215	0.999993	-0.002657	-0.000765	-0.002240	
21663	    0	10.826883	0.230339	-0.240679	-0.431062	-0.169945	-0.524903	0.108276	0.002014	-0.002319	0.999993	-0.002155	-0.000850	-0.002625	
21664	    0	10.986332	0.639756	-0.514498	-0.410272	-0.205231	-0.538827	0.109885	0.006091	-0.005045	0.999993	-0.002051	-0.001026	-0.002694	
21665	    0	10.836174	1.138265	-0.247811	-0.476838	-0.229455	-0.608064	0.108398	0.011047	-0.002380	0.999991	-0.002384	-0.001147	-0.003040	
21666	    0	10.615008	0.444103	-0.430582	-0.571825	-0.234605	-0.652315	0.106169	0.004083	-0.004193	0.999990	-0.002859	-0.001173	-0.003262	
21667	    0	10.020498	0.156211	-0.871667	-0.598910	-0.228692	-0.751498	0.100220	0.001160	-0.008606	0.999988	-0.002995	-0.001143	-0.003757	
21668	    0	9.793109	-0.548801	-1.283362	-0.572589	-0.211526	-0.898175	0.097919	-0.005964	-0.012713	0.999985	-0.002863	-0.001058	-0.004491	
21669	    0	10.257540	-0.965478	-1.928464	-0.474551	-0.186731	-1.079566	0.102539	-0.010254	-0.019165	0.999982	-0.002373	-0.000934	-0.005398	
21670	    0	10.782285	-1.178435	-2.351272	-0.367930	-0.173761	-1.286516	0.107764	-0.012521	-0.023396	0.999977	-0.001840	-0.000869	-0.006433	
21671	    0	11.431017	-1.717131	-2.690440	-0.302127	-0.145532	-1.496139	0.114197	-0.018066	-0.026794	0.999970	-0.001511	-0.000728	-0.007481	
21672	    0	12.103166	-1.402569	-2.809185	-0.251201	-0.127794	-1.679441	0.120926	-0.015077	-0.027996	0.999963	-0.001256	-0.000639	-0.008397	
21673	    0	12.563338	-0.960726	-2.522147	-0.218967	-0.101282	-1.860837	0.125549	-0.010803	-0.025146	0.999955	-0.001095	-0.000506	-0.009304	
21674	    0	12.799255	-0.344414	-2.386625	-0.205997	-0.057984	-2.034223	0.127955	-0.004770	-0.023825	0.999948	-0.001030	-0.000290	-0.010171	
21675	    0	13.049483	-0.489781	-2.522032	-0.254064	-0.008202	-2.173658	0.130432	-0.006348	-0.025208	0.999940	-0.001270	-0.000041	-0.010868	
21676	    0	13.410625	-0.342669	-2.582801	-0.321968	0.038339	-2.312141	0.134049	-0.005018	-0.025846	0.999931	-0.001610	0.000192	-0.011560	
21677	    0	13.588161	-0.438645	-2.638469	-0.453961	0.082590	-2.439943	0.135803	-0.006104	-0.026428	0.999923	-0.002270	0.000413	-0.012199	
21678	    0	13.718305	-0.867404	-2.545675	-0.627155	0.133900	-2.579193	0.137038	-0.010522	-0.025517	0.999911	-0.003136	0.000669	-0.012896	
21679	    0	14.599760	-2.445039	-1.286409	-0.868064	0.257119	-2.720735	0.145630	-0.026489	-0.012939	0.999897	-0.004340	0.001286	-0.013603	
21680	    0	15.296713	-2.358619	-2.714590	-0.993195	0.310147	-2.849497	0.152567	-0.025897	-0.027258	0.999885	-0.004966	0.001551	-0.014247	
21681	    0	16.997198	-2.859248	-4.090052	-1.244220	0.359361	-3.048845	0.169434	-0.031433	-0.041016	0.999863	-0.006221	0.001797	-0.015244	
21682	    0	17.987884	-6.271568	-4.495059	-1.737499	0.364896	-3.152256	0.178775	-0.065928	-0.044714	0.999836	-0.008687	0.001824	-0.015760	
21683	    0	18.321533	-7.763393	-5.130432	-2.175282	0.313779	-3.279327	0.181824	-0.081177	-0.050720	0.999804	-0.010876	0.001569	-0.016396	
21684	    0	19.687502	-8.562173	-4.568108	-2.514653	0.252171	-3.497204	0.195274	-0.089613	-0.044818	0.999766	-0.012572	0.001261	-0.017485	
21685	    0	20.292819	-12.133022	-4.575188	-2.628549	0.129901	-3.666235	0.200623	-0.125610	-0.044250	0.999745	-0.013142	0.000649	-0.018330	
21686	    0	20.221764	-9.434141	-2.912263	-2.216717	-0.092896	-3.914400	0.200329	-0.098589	-0.027952	0.999746	-0.011083	-0.000464	-0.019570	
21687	    0	19.720384	-6.501306	-2.711218	-1.498531	-0.303483	-4.076708	0.195862	-0.069214	-0.026306	0.999763	-0.007492	-0.001517	-0.020382	
21688	    0	18.298182	-3.489388	-3.720111	-1.026230	-0.454937	-4.088899	0.182299	-0.038815	-0.036593	0.999775	-0.005131	-0.002275	-0.020443	
21689	    0	19.385875	-3.798676	-4.917490	-1.082679	-0.510248	-3.679124	0.193237	-0.041809	-0.048462	0.999812	-0.005413	-0.002551	-0.018394	
21690	    0	15.897890	-5.669797	-2.996102	-1.404073	-0.455690	-3.234461	0.158099	-0.059466	-0.029189	0.999842	-0.007020	-0.002278	-0.016171	
21691	    0	13.959210	-5.837575	-0.712149	-0.826102	-0.495165	-2.731419	0.138794	-0.060303	-0.006531	0.999895	-0.004130	-0.002476	-0.013657	
21692	    0	12.208763	-6.389523	-0.750503	-0.544755	-0.321779	-2.619823	0.121248	-0.065507	-0.007133	0.999908	-0.002724	-0.001609	-0.013099	
21693	    0	9.206393	-2.251140	0.825491	-1.239062	-0.050928	-2.793993	0.091736	-0.023743	0.008423	0.999883	-0.006195	-0.000255	-0.013969	
21694	    0	6.405309	7.077918	-2.406282	-0.745603	-0.366030	-2.454063	0.064959	0.069896	-0.024206	0.999916	-0.003728	-0.001830	-0.012270	
21695	    0	8.353482	8.186207	-6.826563	-0.489622	-0.395970	-1.523607	0.084290	0.081055	-0.068298	0.999966	-0.002448	-0.001980	-0.007618	
21696	    0	7.685529	-0.087861	-5.252413	-0.640108	-0.213051	-0.388528	0.076909	-0.001196	-0.052439	0.999992	-0.003201	-0.001065	-0.001943	
21697	    0	7.216298	-4.684459	-2.326272	-0.884250	0.043678	0.199128	0.072205	-0.046875	-0.023071	0.999990	-0.004421	0.000218	0.000996	
21698	    0	4.666727	-6.178155	0.028657	-0.590136	0.070572	0.670054	0.046874	-0.061624	0.000452	0.999990	-0.002951	0.000353	0.003350	
21699	    0	3.228898	-6.560111	1.201651	0.167085	-0.006676	1.115423	0.032654	-0.065430	0.011963	0.999984	0.000835	-0.000033	0.005577	
21700	    0	2.727164	-5.704984	0.924423	0.618941	0.024414	1.458756	0.027688	-0.056877	0.009065	0.999969	0.003095	0.000122	0.007294	
21701	    0	2.899094	-4.081616	0.829692	0.784505	0.135042	1.777677	0.029358	-0.040588	0.008118	0.999952	0.003922	0.000675	0.008888	
21702	    0	3.090389	-1.471764	0.163869	0.862712	0.127223	2.102134	0.031057	-0.014399	0.001556	0.999935	0.004313	0.000636	0.010510	
21703	    0	3.116797	-0.230671	-0.889013	0.792144	0.083163	2.433080	0.031189	-0.001892	-0.008911	0.999918	0.003961	0.000416	0.012165	
21704	    0	3.135291	-0.960611	-1.371479	0.687432	0.088313	2.804281	0.031477	-0.009118	-0.013761	0.999895	0.003437	0.000442	0.014021	
21705	    0	3.297732	-1.919225	-1.572387	0.670653	0.127607	3.157181	0.033264	-0.018616	-0.015808	0.999869	0.003353	0.000638	0.015785	
21706	    0	3.782971	-2.314825	-1.439688	0.693930	0.206768	3.485864	0.038210	-0.022434	-0.014515	0.999841	0.003469	0.001034	0.017428	
21707	    0	4.488103	-2.262553	-1.086029	0.696607	0.218405	3.804254	0.045288	-0.021729	-0.010986	0.999812	0.003483	0.001092	0.019020	
21708	    0	5.128562	-2.250866	-0.559208	0.645303	0.246066	4.100141	0.051725	-0.021433	-0.005726	0.999784	0.003226	0.001230	0.020499	
21709	    0	5.668633	-2.133436	-0.365526	0.561569	0.250455	4.363604	0.057129	-0.020081	-0.003784	0.999757	0.002808	0.001252	0.021816	
21710	    0	6.129021	-2.150403	-0.486900	0.438348	0.242255	4.601508	0.061757	-0.020076	-0.004989	0.999732	0.002192	0.001211	0.023005	
21711	    0	6.628317	-2.654541	-0.817440	0.396768	0.227569	4.877960	0.066895	-0.024902	-0.008301	0.999700	0.001984	0.001138	0.024387	
21712	    0	7.455261	-2.925464	-1.026818	0.423097	0.216127	5.142020	0.075260	-0.027304	-0.010408	0.999666	0.002115	0.001081	0.025707	
21713	    0	8.701022	-2.568359	-0.986395	0.500549	0.195527	5.359535	0.087646	-0.023315	-0.010010	0.999637	0.002502	0.000978	0.026794	
21714	    0	10.987521	-2.432304	1.340603	0.851357	0.223760	5.422511	0.110497	-0.021389	0.013187	0.999622	0.004256	0.001119	0.027109	
21715	    0	10.253110	-0.808178	1.354070	1.095918	0.272406	5.542731	0.102722	-0.005310	0.013367	0.999599	0.005479	0.001362	0.027710	
21716	    0	12.174237	1.274862	-1.831227	1.007617	0.144027	5.998583	0.121272	0.016483	-0.018323	0.999537	0.005037	0.000720	0.029988	
21717	    0	13.388758	-1.951082	-2.983847	0.605878	0.118467	6.381556	0.134399	-0.015137	-0.029968	0.999486	0.003029	0.000592	0.031902	
21718	    0	16.516739	-3.165728	-2.970237	0.637548	0.045021	6.461706	0.166066	-0.026206	-0.029829	0.999473	0.003187	0.000225	0.032303	
21719	    0	18.601710	-1.779598	-2.020684	0.940873	-0.008203	6.486146	0.186462	-0.011658	-0.020264	0.999463	0.004704	-0.000041	0.032425	
21720	    0	20.427125	-0.553355	-2.237949	1.198416	-0.074591	6.518603	0.204312	0.001260	-0.022309	0.999451	0.005991	-0.000373	0.032587	
21721	    0	22.398912	1.527063	-4.713504	1.487436	-0.260974	6.501451	0.223389	0.022888	-0.046692	0.999443	0.007436	-0.001305	0.032501	
21722	    0	23.603408	5.072188	-7.259085	1.531501	-0.468531	6.448978	0.234392	0.058849	-0.071610	0.999448	0.007656	-0.002342	0.032239	
21723	    0	27.038688	9.065865	-7.081052	1.164444	-0.452309	6.272431	0.267517	0.099487	-0.069641	0.999488	0.005821	-0.002261	0.031357	
21724	    0	25.091372	11.077611	-5.447408	1.260946	-0.556075	5.836598	0.247682	0.118374	-0.053052	0.999550	0.006304	-0.002780	0.029179	
21725	    0	25.018176	14.715516	-4.659118	1.505650	-0.623396	5.096280	0.246460	0.153809	-0.044678	0.999641	0.007527	-0.003117	0.025478	
21726	    0	22.649226	19.486145	-5.284116	1.685294	-0.781892	4.248809	0.222479	0.200047	-0.050295	0.999731	0.008426	-0.003909	0.021242	
21727	    0	18.400324	26.549504	-6.481537	1.278954	-0.867514	3.472346	0.179626	0.269043	-0.062317	0.999819	0.006394	-0.004337	0.017361	
21728	    0	14.487353	32.455712	-4.874532	0.360118	-0.756286	2.537803	0.140921	0.326448	-0.047621	0.999910	0.001801	-0.003781	0.012689	
21729	    0	12.566039	31.141666	-4.528664	-0.289919	-0.626188	1.258098	0.123840	0.312134	-0.045349	0.999974	-0.001450	-0.003131	0.006290	
21730	    0	12.557090	26.743288	-3.953212	-0.428773	-0.488664	-0.191689	0.125924	0.267227	-0.039798	0.999993	-0.002144	-0.002443	-0.000958	
21731	    0	16.743803	21.458764	-3.066728	-0.149538	-0.511748	-1.623555	0.169250	0.213196	-0.030396	0.999963	-0.000748	-0.002559	-0.008118	
21732	    0	11.684957	22.673716	-1.575656	0.367177	-0.371183	-2.823736	0.120064	0.225085	-0.015121	0.999896	0.001836	-0.001856	-0.014118	
21733	    0	16.853272	8.918543	-0.472725	-0.218020	-0.000763	-3.321992	0.169983	0.086365	-0.004822	0.999861	-0.001090	-0.000004	-0.016609	
21734	    0	19.673863	-25.278678	5.596246	-0.697918	0.168805	-2.480194	0.193633	-0.255004	0.056685	0.999916	-0.003489	0.000844	-0.012401	
21735	    0	16.048517	-13.408331	4.856314	0.152593	-0.309573	-2.804659	0.158508	-0.136353	0.048706	0.999900	0.000763	-0.001548	-0.014023	
21736	    0	20.337892	6.909953	3.410393	0.378253	-0.310919	-4.049963	0.204668	0.064898	0.034547	0.999791	0.001891	-0.001554	-0.020248	
21737	    0	18.824577	10.052175	-4.091897	0.890608	-0.531809	-4.111789	0.190369	0.096802	-0.039978	0.999775	0.004453	-0.002659	-0.020557	
21738	    0	20.051008	11.932084	-9.622710	1.880609	-0.974544	-3.890165	0.203254	0.116277	-0.094138	0.999754	0.009402	-0.004872	-0.019449	
21739	    0	17.023057	4.643726	-4.333456	0.886596	-0.840626	-3.851580	0.171265	0.043335	-0.042419	0.999795	0.004433	-0.004203	-0.019257	
21740	    0	10.461220	0.797980	1.869786	0.760313	-1.077523	-3.460700	0.104626	0.006097	0.019287	0.999828	0.003801	-0.005387	-0.017303	
21741	    0	5.188565	-1.121672	1.186153	0.753821	-1.035932	-3.182377	0.051636	-0.012085	0.012085	0.999852	0.003769	-0.005179	-0.015911	
21742	    0	4.774379	2.077741	-0.783086	0.669125	-0.906409	-2.924657	0.048076	0.020102	-0.007545	0.999877	0.003345	-0.004532	-0.014623	
21743	    0	6.025467	3.535824	-3.731466	0.421346	-0.836970	-2.533799	0.060852	0.034668	-0.036987	0.999908	0.002107	-0.004185	-0.012669	
21744	    0	5.529487	4.317030	-5.915910	0.115969	-0.694098	-2.051012	0.055939	0.042633	-0.058941	0.999941	0.000580	-0.003470	-0.010255	
21745	    0	7.450299	1.260839	-3.393091	0.155642	-0.616272	-1.636526	0.074707	0.012024	-0.033691	0.999961	0.000778	-0.003081	-0.008183	
21746	    0	10.032591	2.803673	-2.947566	0.097848	-0.465588	-1.369679	0.100583	0.027363	-0.029228	0.999973	0.000489	-0.002328	-0.006848	
21747	    0	11.794718	2.391578	-1.364048	-0.051117	-0.370600	-1.114661	0.118103	0.023254	-0.013428	0.999982	-0.000256	-0.001853	-0.005573	
21748	    0	12.838546	-0.532064	-1.284082	0.057602	-0.432779	-0.984578	0.128385	-0.005949	-0.012565	0.999985	0.000288	-0.002164	-0.004923	
21749	    0	13.032644	0.251474	-1.555269	0.096322	-0.449373	-0.966649	0.130371	0.001892	-0.015259	0.999985	0.000482	-0.002247	-0.004833	
21750	    0	12.139120	0.298807	-0.597370	-0.016975	-0.491907	-0.885586	0.121417	0.002450	-0.005675	0.999987	-0.000085	-0.002460	-0.004428	
21751	    0	10.979275	-0.316067	-0.931418	-0.068474	-0.509645	-0.796512	0.109802	-0.003601	-0.009033	0.999989	-0.000342	-0.002548	-0.003983	
21752	    0	10.698564	0.207886	-1.568789	-0.071144	-0.468065	-0.778964	0.107029	0.001657	-0.015438	0.999990	-0.000356	-0.002340	-0.003895	
21753	    0	10.736368	0.298984	-2.522754	-0.188256	-0.382997	-0.749972	0.107422	0.002563	-0.025024	0.999990	-0.000941	-0.001915	-0.003750	
21754	    0	10.292987	1.311609	-3.816800	-0.392343	-0.313760	-0.692370	0.103034	0.012685	-0.038032	0.999990	-0.001962	-0.001569	-0.003462	
21755	    0	9.597594	1.131038	-4.805813	-0.654414	-0.251008	-0.601961	0.096069	0.010864	-0.047974	0.999989	-0.003272	-0.001255	-0.003010	
21756	    0	9.376223	0.760305	-5.223702	-0.860981	-0.157357	-0.526049	0.093822	0.007132	-0.052195	0.999987	-0.004305	-0.000787	-0.002630	
21757	    0	9.756730	0.570258	-4.382952	-0.991063	-0.067711	-0.484469	0.097595	0.005249	-0.043823	0.999984	-0.004955	-0.000339	-0.002422	
21758	    0	9.933597	0.180624	-3.178508	-1.046949	0.006676	-0.471308	0.099339	0.001406	-0.031796	0.999983	-0.005235	0.000033	-0.002357	
21759	    0	9.507792	0.720205	-2.809683	-1.022344	0.010109	-0.467684	0.095093	0.006836	-0.028137	0.999984	-0.005112	0.000051	-0.002338	
21760	    0	9.532651	1.122398	-3.217674	-1.042372	-0.003433	-0.440409	0.095351	0.010846	-0.032232	0.999984	-0.005212	-0.000017	-0.002202	
21761	    0	10.394756	0.110181	-2.963599	-1.028448	0.043679	-0.417330	0.103943	0.000732	-0.029663	0.999984	-0.005142	0.000218	-0.002087	
21762	    0	10.593449	-0.314111	-1.888744	-0.849536	0.077439	-0.437738	0.105920	-0.003453	-0.018914	0.999988	-0.004248	0.000387	-0.002189	
21763	    0	10.478223	0.907803	-1.635861	-0.759890	0.049782	-0.432588	0.104797	0.008789	-0.016418	0.999990	-0.003799	0.000249	-0.002163	
21764	    0	9.883192	1.790740	-1.487668	-0.764277	0.024414	-0.442697	0.098869	0.017632	-0.014956	0.999990	-0.003821	0.000122	-0.002213	
21765	    0	9.793339	1.241246	-1.289969	-0.752261	-0.012779	-0.444795	0.097961	0.012146	-0.012939	0.999990	-0.003761	-0.000064	-0.002224	
21766	    0	9.479951	0.691069	-1.430066	-0.687983	-0.033379	-0.482370	0.094818	0.006633	-0.014308	0.999990	-0.003440	-0.000167	-0.002412	
21767	    0	9.372950	0.699440	-1.702954	-0.577356	-0.043488	-0.493623	0.093750	0.006714	-0.017029	0.999992	-0.002887	-0.000217	-0.002468	
21768	    0	9.400390	1.379909	-1.832096	-0.529863	-0.044060	-0.512124	0.094043	0.013510	-0.018336	0.999992	-0.002649	-0.000220	-0.002561	
21769	    0	9.327056	1.726638	-1.988609	-0.554468	-0.077057	-0.521852	0.093323	0.016968	-0.019897	0.999992	-0.002772	-0.000385	-0.002609	
21770	    0	9.225293	0.865590	-2.104941	-0.590517	-0.111771	-0.529672	0.092287	0.008349	-0.021023	0.999991	-0.002953	-0.000559	-0.002648	
21771	    0	9.207885	0.343646	-2.336235	-0.527955	-0.120354	-0.569154	0.092102	0.003113	-0.023315	0.999991	-0.002640	-0.000602	-0.002846	
21772	    0	9.650535	1.538756	-2.343048	-0.516893	-0.111962	-0.643160	0.096567	0.015017	-0.023416	0.999990	-0.002584	-0.000560	-0.003216	
21773	    0	9.870174	1.295994	-1.826789	-0.592806	-0.113488	-0.673678	0.098755	0.012573	-0.018250	0.999990	-0.002964	-0.000567	-0.003368	
21774	    0	9.969811	1.256524	-1.927901	-0.667193	-0.100327	-0.727084	0.099752	0.012138	-0.019270	0.999988	-0.003336	-0.000502	-0.003635	
21775	    0	9.686739	1.213213	-2.233274	-0.759129	-0.079918	-0.804142	0.096924	0.011658	-0.022339	0.999984	-0.003796	-0.000400	-0.004021	
21776	    0	9.405360	0.330946	-2.461987	-0.778585	-0.078774	-0.936323	0.094077	0.002773	-0.024594	0.999981	-0.003893	-0.000394	-0.004682	
21777	    0	9.425946	-0.445169	-2.622186	-0.714879	-0.043297	-1.104744	0.094238	-0.005066	-0.026184	0.999978	-0.003574	-0.000216	-0.005524	
21778	    0	9.634085	-1.177913	-2.727419	-0.603109	-0.002670	-1.278697	0.096263	-0.012477	-0.027236	0.999974	-0.003016	-0.000013	-0.006393	
21779	    0	10.209855	-0.520386	-3.082137	-0.482183	0.029946	-1.497666	0.102051	-0.006042	-0.030823	0.999969	-0.002411	0.000150	-0.007488	
21780	    0	10.866940	-0.649310	-3.305829	-0.443846	0.086976	-1.705955	0.108594	-0.007493	-0.033090	0.999961	-0.002219	0.000435	-0.008530	
21781	    0	11.704377	-0.779732	-3.113555	-0.408751	0.121309	-1.899749	0.116943	-0.008972	-0.031189	0.999952	-0.002044	0.000607	-0.009499	
21782	    0	12.382985	-0.411607	-2.726039	-0.441369	0.152591	-2.095263	0.123756	-0.005473	-0.027344	0.999942	-0.002207	0.000763	-0.010476	
21783	    0	12.863289	-0.518655	-2.290313	-0.503552	0.190930	-2.285819	0.128540	-0.006714	-0.023010	0.999930	-0.002518	0.000955	-0.011429	
21784	    0	13.492823	-0.902746	-2.006171	-0.592057	0.236708	-2.447957	0.134780	-0.010737	-0.020191	0.999920	-0.002960	0.001184	-0.012239	
21785	    0	14.282810	-1.589060	-1.540411	-0.781084	0.318156	-2.623069	0.142578	-0.017822	-0.015564	0.999905	-0.003905	0.001591	-0.013115	
21786	    0	15.117825	-1.755332	-1.428092	-1.012268	0.367941	-2.800093	0.150886	-0.019740	-0.014462	0.999887	-0.005061	0.001840	-0.014000	
21787	    0	16.404344	-2.896173	-0.533906	-1.402157	0.524927	-2.971786	0.163574	-0.031433	-0.005554	0.999861	-0.007010	0.002625	-0.014858	
21788	    0	17.013771	-6.000590	-0.859430	-1.800063	0.636326	-3.079201	0.169159	-0.062693	-0.008577	0.999835	-0.009000	0.003181	-0.015395	
21789	    0	18.819602	-6.573044	-3.202567	-1.908805	0.711868	-3.326627	0.186951	-0.069153	-0.032043	0.999809	-0.009543	0.003559	-0.016632	
21790	    0	20.522094	-8.549316	-3.802328	-2.165766	0.736673	-3.575403	0.203505	-0.089552	-0.037820	0.999774	-0.010828	0.003683	-0.017876	
21791	    0	21.210522	-12.343859	-4.256128	-2.252191	0.637870	-3.760073	0.209595	-0.127869	-0.041809	0.999754	-0.011260	0.003189	-0.018799	
21792	    0	22.062421	-13.797517	-4.818062	-1.860771	0.451316	-4.003281	0.217690	-0.142796	-0.047360	0.999753	-0.009303	0.002256	-0.020015	
21793	    0	22.683944	-10.826717	-2.396743	-0.935251	0.372345	-4.353695	0.224365	-0.113281	-0.023865	0.999750	-0.004676	0.001862	-0.021767	
21794	    0	21.967646	-5.452450	-3.290230	-0.168051	0.131046	-4.429608	0.218375	-0.059399	-0.032997	0.999754	-0.000840	0.000655	-0.022146	
21795	    0	19.897400	-4.725142	-5.349374	0.390655	-0.125704	-4.281183	0.197937	-0.051392	-0.053467	0.999768	0.001953	-0.000628	-0.021404	
21796	    0	19.013109	-4.941238	-7.100572	0.704428	-0.391031	-3.804256	0.189287	-0.052769	-0.070817	0.999810	0.003522	-0.001955	-0.019020	
21797	    0	16.261098	-3.522654	-4.865541	0.543431	-0.512721	-3.385332	0.162109	-0.037842	-0.048340	0.999849	0.002717	-0.002563	-0.016926	
21798	    0	14.362734	-3.306091	-2.028656	0.500698	-0.182922	-2.971190	0.143134	-0.035139	-0.020242	0.999886	0.002503	-0.000915	-0.014855	
21799	    0	13.542992	0.459280	3.419310	0.095562	0.112156	-3.061796	0.135498	0.002502	0.034119	0.999882	0.000478	0.000561	-0.015308	
21800	    0	8.179286	8.713610	-2.700780	-0.268755	0.056841	-2.834607	0.083009	0.085929	-0.027147	0.999898	-0.001344	0.000284	-0.014173	
21801	    0	8.651110	14.136341	-6.431640	-0.304226	0.102235	-1.746391	0.087708	0.140503	-0.064575	0.999960	-0.001521	0.000511	-0.008732	
21802	    0	10.722662	1.387580	-8.214327	-0.815967	0.213242	-0.462534	0.107170	0.013292	-0.082313	0.999988	-0.004080	0.001066	-0.002313	
21803	    0	9.872918	-6.657052	-4.514373	-1.290904	0.422862	0.179292	0.098694	-0.066772	-0.044922	0.999976	-0.006454	0.002114	0.000896	
21804	    0	6.063362	-6.488331	-1.761986	-1.097687	0.538639	0.492481	0.060746	-0.064830	-0.017427	0.999978	-0.005488	0.002693	0.002462	
21805	    0	3.186874	-5.214205	-0.325450	-0.688939	0.615887	0.943763	0.032104	-0.052002	-0.003174	0.999978	-0.003445	0.003079	0.004719	
21806	    0	2.354170	-4.533028	0.276189	-0.388531	0.700195	1.314176	0.023849	-0.045169	0.002767	0.999969	-0.001943	0.003501	0.006571	
21807	    0	2.529558	-3.842302	0.551015	-0.094415	0.753032	1.664757	0.025635	-0.038208	0.005432	0.999958	-0.000472	0.003765	0.008324	
21808	    0	2.775614	-2.071800	0.139942	0.142100	0.670637	2.080768	0.027974	-0.020429	0.001291	0.999940	0.000710	0.003353	0.010404	
21809	    0	2.721398	-0.754999	-0.766448	0.185399	0.588433	2.499459	0.027283	-0.007202	-0.007751	0.999917	0.000927	0.002942	0.012497	
21810	    0	2.273518	-0.783526	-1.577736	0.116543	0.549145	2.881917	0.022801	-0.007498	-0.015844	0.999891	0.000583	0.002746	0.014409	
21811	    0	2.001196	-1.517979	-2.007373	0.209818	0.518250	3.248743	0.020203	-0.014832	-0.020142	0.999864	0.001049	0.002591	0.016243	
21812	    0	2.244053	-1.857752	-2.019655	0.431848	0.488881	3.624930	0.022722	-0.018124	-0.020291	0.999830	0.002159	0.002444	0.018124	
21813	    0	3.221305	-2.146105	-1.817067	0.612874	0.465426	4.023261	0.032593	-0.020752	-0.018311	0.999790	0.003064	0.002327	0.020115	
21814	    0	3.992655	-2.243446	-1.398243	0.692234	0.456085	4.386312	0.040373	-0.021503	-0.014150	0.999750	0.003461	0.002280	0.021930	
21815	    0	4.447100	-2.349249	-1.105757	0.668398	0.432056	4.709310	0.044983	-0.022400	-0.011230	0.999715	0.003342	0.002160	0.023544	
21816	    0	4.726137	-2.378111	-1.156704	0.654099	0.385707	4.978515	0.047811	-0.022557	-0.011734	0.999682	0.003270	0.001928	0.024890	
21817	    0	5.013030	-2.427049	-1.454086	0.704467	0.341837	5.267193	0.050720	-0.022888	-0.014709	0.999645	0.003522	0.001709	0.026333	
21818	    0	5.812871	-2.681039	-1.714061	0.844114	0.283660	5.573822	0.058820	-0.025105	-0.017332	0.999601	0.004220	0.001418	0.027865	
21819	    0	6.979399	-2.626094	-2.073713	0.948663	0.228152	5.843445	0.070496	-0.024109	-0.020935	0.999561	0.004743	0.001141	0.029213	
21820	    0	8.220783	-2.146507	-2.456780	0.988353	0.183897	6.072622	0.082784	-0.018835	-0.024741	0.999526	0.004941	0.000919	0.030358	
21821	    0	9.543720	-1.308686	-2.501791	0.929418	0.161961	6.316686	0.095764	-0.009949	-0.025146	0.999490	0.004646	0.000810	0.031578	
21822	    0	11.160450	-0.468679	-2.411573	0.795509	0.132776	6.560757	0.111660	-0.000928	-0.024199	0.999454	0.003977	0.000664	0.032798	
21823	    0	12.931949	-0.006479	-2.204951	0.654920	0.084703	6.787662	0.129211	0.004395	-0.022095	0.999418	0.003274	0.000423	0.033932	
21824	    0	15.045907	-0.532869	-2.393988	0.612576	0.013354	6.996830	0.150519	0.000010	-0.023955	0.999383	0.003062	0.000067	0.034977	
21825	    0	17.945656	-0.889755	-2.975237	0.625172	-0.047312	7.154095	0.179626	-0.002380	-0.029724	0.999355	0.003125	-0.000237	0.035763	
21826	    0	21.128628	-0.159403	-3.959970	0.662376	-0.089283	7.215362	0.211175	0.006158	-0.039494	0.999343	0.003311	-0.000446	0.036069	
21827	    0	23.816959	1.651401	-6.146929	0.676111	-0.198980	7.191506	0.237427	0.025269	-0.061157	0.999347	0.003380	-0.000995	0.035950	
21828	    0	25.712552	4.343462	-8.776926	0.682404	-0.384222	7.111922	0.255526	0.052839	-0.087108	0.999360	0.003411	-0.001921	0.035552	
21829	    0	26.867783	9.188624	-10.791694	0.386888	-0.640808	6.918205	0.265625	0.101318	-0.106873	0.999394	0.001934	-0.003203	0.034584	
21830	    0	26.200346	14.113060	-7.016491	-0.422364	-0.524617	6.596248	0.257347	0.149523	-0.069796	0.999450	-0.002111	-0.002623	0.032975	
21831	    0	25.801317	11.841672	-5.245336	-0.300644	-0.736920	5.973957	0.254517	0.125977	-0.051697	0.999545	-0.001503	-0.003684	0.029865	
21832	    0	24.518328	15.788582	-5.510177	0.111783	-1.013485	5.019164	0.241393	0.164006	-0.053782	0.999672	0.000559	-0.005067	0.025093	
21833	    0	20.768875	26.195932	-4.840986	-0.080687	-1.068953	3.964512	0.202698	0.265991	-0.047424	0.999788	-0.000403	-0.005344	0.019821	
21834	    0	15.828562	35.168232	-2.682554	-0.681140	-0.887523	2.811158	0.153443	0.353769	-0.027340	0.999886	-0.003406	-0.004437	0.014055	
21835	    0	12.909099	34.495936	-3.208914	-1.046768	-0.704775	1.340504	0.126892	0.345642	-0.033447	0.999957	-0.005234	-0.003524	0.006702	
21836	    0	13.393586	27.475640	-2.756004	-0.909047	-0.530055	-0.329210	0.134462	0.274407	-0.028452	0.999985	-0.004545	-0.002650	-0.001646	
21837	    0	14.419532	21.253740	-1.156753	-0.177005	-0.469024	-1.849394	0.146179	0.211182	-0.011414	0.999953	-0.000885	-0.002345	-0.009247	
21838	    0	15.678312	19.170240	0.183645	0.547431	-0.493641	-2.995991	0.159625	0.189319	0.002748	0.999881	0.002737	-0.002468	-0.014979	
21839	    0	17.569497	12.979000	0.700691	0.873048	-0.624886	-3.713458	0.178040	0.126465	0.008118	0.999813	0.004365	-0.003124	-0.018566	
21840	    0	13.516076	-16.961328	2.144647	0.631736	-0.465218	-2.760600	0.132752	-0.171524	0.021217	0.999897	0.003159	-0.002326	-0.013803	
21841	    0	16.159499	-41.711791	12.985054	1.136993	-0.039674	-1.841772	0.157715	-0.419312	0.127502	0.999941	0.005685	-0.000198	-0.009209	
21842	    0	15.524876	-15.086521	13.908213	2.315852	-0.129517	-3.014174	0.152846	-0.154778	0.137404	0.999819	0.011579	-0.000648	-0.015070	
21843	    0	14.701695	5.728734	4.799079	3.049966	-0.247980	-3.837971	0.148010	0.053711	0.049011	0.999699	0.015248	-0.001240	-0.019188	
21844	    0	17.954437	11.525880	-1.706354	2.854043	-0.222990	-3.789304	0.181705	0.112056	-0.015247	0.999718	0.014269	-0.001115	-0.018945	
21845	    0	19.922358	9.925390	-2.073546	1.832888	-0.435666	-3.421238	0.200928	0.096008	-0.019409	0.999809	0.009164	-0.002178	-0.017105	
21846	    0	14.536722	7.329443	-10.314471	1.995024	-1.029462	-3.213707	0.147057	0.071959	-0.101668	0.999807	0.009974	-0.005147	-0.016068	
21847	    0	14.694073	12.492488	-11.427755	2.292806	-1.231286	-3.358712	0.149719	0.123718	-0.111938	0.999774	0.011463	-0.006156	-0.016792	
21848	    0	15.874293	-2.116096	-2.429833	1.453098	-0.894787	-3.214441	0.158484	-0.023536	-0.023754	0.999834	0.007265	-0.004474	-0.016071	
21849	    0	9.762947	0.394022	1.737714	1.120809	-0.878756	-2.993149	0.097595	0.002380	0.017822	0.999862	0.005604	-0.004394	-0.014965	
21850	    0	4.710366	3.659677	-0.867399	0.450150	-0.859863	-2.762893	0.047640	0.035960	-0.008389	0.999892	0.002251	-0.004299	-0.013814	
21851	    0	6.417304	3.758106	-4.008624	-0.218016	-0.649279	-2.460547	0.064758	0.036743	-0.039917	0.999918	-0.001090	-0.003246	-0.012302	
21852	    0	5.705596	4.472162	-3.820521	-0.713554	-0.400551	-2.053112	0.057587	0.043996	-0.038248	0.999938	-0.003568	-0.002003	-0.010265	
21853	    0	5.963805	1.981963	-0.966178	-0.789463	-0.318150	-1.654840	0.059814	0.019287	-0.009644	0.999956	-0.003947	-0.001591	-0.008274	
21854	    0	8.505861	0.774166	0.187303	-0.354770	-0.275042	-1.303111	0.085104	0.007191	0.001977	0.999976	-0.001774	-0.001375	-0.006516	
21855	    0	12.409940	1.014129	0.905968	-0.115967	-0.163079	-1.105505	0.124146	0.009460	0.009155	0.999984	-0.000580	-0.000815	-0.005527	
21856	    0	14.302108	0.166298	0.743043	-0.030518	-0.293161	-0.982861	0.143016	0.000961	0.007640	0.999987	-0.000153	-0.001466	-0.004914	
21857	    0	13.825173	-0.195752	-0.160542	-0.000763	-0.468256	-0.876621	0.138245	-0.002563	-0.001282	0.999988	-0.000004	-0.002341	-0.004383	
21858	    0	11.964614	0.183863	-0.449554	-0.026322	-0.558092	-0.808719	0.119664	0.001354	-0.004162	0.999988	-0.000132	-0.002790	-0.004044	
21859	    0	10.809668	0.047112	0.135727	-0.026512	-0.537874	-0.759127	0.108093	0.000061	0.001648	0.999989	-0.000133	-0.002689	-0.003796	
21860	    0	10.373149	-0.786099	-0.064828	-0.034523	-0.519182	-0.743106	0.103703	-0.008246	-0.000378	0.999990	-0.000173	-0.002596	-0.003716	
21861	    0	10.073085	-0.078794	-1.727622	0.003815	-0.491144	-0.738528	0.100769	-0.001160	-0.017029	0.999990	0.000019	-0.002456	-0.003693	
21862	    0	9.857372	0.660807	-4.262308	-0.160409	-0.427057	-0.716021	0.098687	0.006221	-0.042418	0.999990	-0.000802	-0.002135	-0.003580	
21863	    0	8.917450	0.924203	-6.345947	-0.543978	-0.289727	-0.628664	0.089294	0.008789	-0.063354	0.999990	-0.002720	-0.001449	-0.003143	
21864	    0	8.498959	0.657206	-6.596544	-0.956540	-0.100709	-0.557521	0.085040	0.006020	-0.065952	0.999984	-0.004783	-0.000504	-0.002788	
21865	    0	8.808780	0.159182	-4.946189	-1.115997	0.069428	-0.492862	0.088074	0.001099	-0.049500	0.999981	-0.005580	0.000347	-0.002464	
21866	    0	9.203832	-0.225206	-3.455176	-1.008230	0.083161	-0.463870	0.092018	-0.002640	-0.034577	0.999984	-0.005041	0.000416	-0.002319	
21867	    0	10.022688	0.134673	-2.271910	-0.785067	0.084877	-0.438692	0.100220	0.001038	-0.022766	0.999990	-0.003925	0.000424	-0.002193	
21868	    0	10.281493	-0.236228	-1.341269	-0.586511	0.038147	-0.420571	0.102807	-0.002618	-0.013425	0.999993	-0.002933	0.000191	-0.002103	
21869	    0	9.931045	-0.251595	-0.897155	-0.386811	0.011635	-0.429536	0.099304	-0.002747	-0.008972	0.999995	-0.001934	0.000058	-0.002148	
21870	    0	9.850077	0.214576	-0.998118	-0.268746	0.017738	-0.418091	0.098504	0.001926	-0.009993	0.999996	-0.001344	0.000089	-0.002090	
21871	    0	9.879144	1.260235	-1.561055	-0.236511	-0.000572	-0.392151	0.098816	0.012390	-0.015625	0.999997	-0.001183	-0.000003	-0.001961	
21872	    0	9.836185	1.512232	-2.443033	-0.373841	-0.033760	-0.341225	0.098392	0.014909	-0.024442	0.999996	-0.001869	-0.000169	-0.001706	
21873	    0	9.708013	1.188511	-2.764656	-0.524903	-0.058556	-0.318909	0.097107	0.011658	-0.027649	0.999995	-0.002625	-0.000293	-0.001595	
21874	    0	9.334740	1.568621	-2.784704	-0.716974	-0.073815	-0.274659	0.093379	0.015458	-0.027868	0.999992	-0.003585	-0.000369	-0.001373	
21875	    0	9.268548	1.251454	-2.830097	-0.891689	-0.077057	-0.259400	0.092712	0.012268	-0.028320	0.999989	-0.004458	-0.000385	-0.001297	
21876	    0	9.632290	0.654208	-2.188234	-0.954823	-0.085640	-0.277902	0.096341	0.006304	-0.021872	0.999987	-0.004774	-0.000428	-0.001390	
21877	    0	10.278486	-0.364165	-1.019080	-0.858882	-0.083161	-0.311280	0.102783	-0.003845	-0.010132	0.999989	-0.004294	-0.000416	-0.001556	
21878	    0	9.831412	0.034247	-0.862936	-0.682070	-0.128556	-0.363542	0.098320	0.000134	-0.008567	0.999991	-0.003410	-0.000643	-0.001818	
21879	    0	10.216260	0.268576	-0.617386	-0.572015	-0.151825	-0.444032	0.102173	0.002441	-0.006104	0.999992	-0.002860	-0.000759	-0.002220	
21880	    0	10.667076	0.097288	-0.611084	-0.494577	-0.174714	-0.501443	0.106678	0.000690	-0.006020	0.999993	-0.002473	-0.000874	-0.002507	
21881	    0	10.930775	-0.046680	-0.840912	-0.463678	-0.195313	-0.562288	0.109314	-0.000793	-0.008301	0.999992	-0.002318	-0.000977	-0.002811	
21882	    0	10.784277	1.044857	-1.277988	-0.504877	-0.236321	-0.653269	0.107891	0.010064	-0.012678	0.999990	-0.002524	-0.001182	-0.003266	
21883	    0	10.336761	0.201270	-1.696097	-0.614932	-0.233270	-0.723269	0.103394	0.001587	-0.016846	0.999988	-0.003075	-0.001166	-0.003616	
21884	    0	9.860384	-0.354438	-2.235582	-0.637439	-0.227929	-0.849156	0.098613	-0.004034	-0.022231	0.999985	-0.003187	-0.001140	-0.004246	
21885	    0	9.460839	-0.480639	-2.372874	-0.621609	-0.194551	-1.038367	0.094604	-0.005371	-0.023621	0.999981	-0.003108	-0.000973	-0.005192	
21886	    0	9.780201	-1.568862	-2.495005	-0.543026	-0.152398	-1.214609	0.097723	-0.016350	-0.024832	0.999977	-0.002715	-0.000762	-0.006073	
21887	    0	10.637030	-1.656978	-2.871755	-0.464444	-0.098420	-1.427473	0.106262	-0.017395	-0.028625	0.999971	-0.002322	-0.000492	-0.007137	
21888	    0	11.644019	-1.854868	-3.018635	-0.403600	-0.052453	-1.643582	0.116290	-0.019566	-0.030117	0.999964	-0.002018	-0.000262	-0.008218	
21889	    0	12.498664	-1.105351	-3.017887	-0.353246	-0.010491	-1.859311	0.124878	-0.012268	-0.030151	0.999955	-0.001766	-0.000052	-0.009296	
21890	    0	12.936363	-1.396053	-2.786536	-0.300985	0.000763	-2.045668	0.129211	-0.015325	-0.027843	0.999946	-0.001505	0.000004	-0.010228	
21891	    0	13.102088	-1.328943	-2.136240	-0.288206	0.031281	-2.215622	0.130859	-0.014771	-0.021362	0.999937	-0.001441	0.000156	-0.011078	
21892	    0	13.291394	-0.742567	-1.692434	-0.289161	0.068094	-2.386151	0.132807	-0.009035	-0.016957	0.999928	-0.001446	0.000340	-0.011930	
21893	    0	13.438865	-0.679675	-1.715193	-0.398075	0.112918	-2.552104	0.134277	-0.008545	-0.017212	0.999916	-0.001990	0.000565	-0.012760	
21894	    0	13.819081	-0.910388	-1.438961	-0.552004	0.177389	-2.704516	0.138038	-0.011011	-0.014483	0.999904	-0.002760	0.000887	-0.013522	
21895	    0	14.303323	-1.225163	-1.336957	-0.753621	0.238809	-2.856550	0.142822	-0.014343	-0.013489	0.999889	-0.003768	0.001194	-0.014282	
21896	    0	15.222360	-3.104782	-0.585634	-1.073692	0.353638	-2.996954	0.151725	-0.033356	-0.005950	0.999871	-0.005368	0.001768	-0.014984	
21897	    0	15.897787	-3.672881	-2.255952	-1.283136	0.418111	-3.145753	0.158325	-0.039368	-0.022644	0.999853	-0.006415	0.002090	-0.015728	
21898	    0	17.416576	-5.068576	-4.435726	-1.589105	0.444629	-3.357892	0.173180	-0.053951	-0.044323	0.999825	-0.007945	0.002223	-0.016788	
21899	    0	18.732093	-8.195527	-5.041885	-2.117307	0.432045	-3.509770	0.185730	-0.085754	-0.049927	0.999787	-0.010586	0.002160	-0.017548	
21900	    0	20.058362	-10.209887	-5.233734	-2.488724	0.386842	-3.681488	0.198551	-0.106410	-0.051416	0.999751	-0.012443	0.001934	-0.018406	
21901	    0	21.768205	-14.231827	-5.918421	-2.419302	0.236532	-3.888280	0.214783	-0.147217	-0.057678	0.999737	-0.012095	0.001183	-0.019440	
21902	    0	22.169602	-11.546720	-2.412801	-1.795548	0.181024	-4.269028	0.219140	-0.120375	-0.023261	0.999731	-0.008977	0.000905	-0.021343	
21903	    0	19.641056	-5.629197	-4.107963	-1.138405	-0.156988	-4.426197	0.195129	-0.060852	-0.040588	0.999738	-0.005692	-0.000785	-0.022129	
21904	    0	19.294255	-4.650615	-3.444768	-0.437009	-0.279640	-4.396225	0.191905	-0.050807	-0.034071	0.999755	-0.002185	-0.001398	-0.021979	
21905	    0	18.357257	-1.909779	-6.263719	-0.397329	-0.502050	-4.065228	0.183289	-0.022949	-0.062134	0.999788	-0.001987	-0.002510	-0.020325	
21906	    0	16.970884	-4.582693	-4.880775	-0.534087	-0.600085	-3.534701	0.169007	-0.048947	-0.048172	0.999835	-0.002670	-0.003000	-0.017673	
21907	    0	14.274194	-5.458659	-2.969729	-0.762210	-0.605609	-3.074779	0.141968	-0.056885	-0.029053	0.999869	-0.003811	-0.003028	-0.015373	
21908	    0	13.827914	-5.711733	1.350123	-0.045587	-0.123219	-2.771466	0.137462	-0.059023	0.013599	0.999904	-0.000228	-0.000616	-0.013857	
21909	    0	10.198769	-0.747882	-0.272595	-1.075025	-0.229463	-2.903101	0.101868	-0.008972	-0.002563	0.999879	-0.005375	-0.001147	-0.014515	
21910	    0	6.964767	8.878465	-3.289172	-0.848222	-0.269135	-2.455590	0.070774	0.087780	-0.033171	0.999914	-0.004241	-0.001346	-0.012278	
21911	    0	8.646288	9.467935	-6.859961	-0.853547	-0.212862	-1.322188	0.087158	0.093811	-0.068909	0.999968	-0.004268	-0.001064	-0.006611	
21912	    0	7.721039	-2.004118	-4.825707	-1.032834	-0.045777	-0.183869	0.077203	-0.020361	-0.048135	0.999986	-0.005164	-0.000229	-0.000919	
21913	    0	7.000050	-5.934698	-2.633509	-1.155670	0.199891	0.316622	0.070068	-0.059387	-0.026062	0.999981	-0.005778	0.000999	0.001583	
21914	    0	4.784923	-7.251756	-0.146900	-0.660136	0.243188	0.730136	0.048112	-0.072347	-0.001288	0.999987	-0.003301	0.001216	0.003651	
21915	    0	3.006627	-6.767397	1.005085	0.005531	0.258638	1.116949	0.030457	-0.067505	0.010010	0.999983	0.000028	0.001293	0.005585	
21916	    0	2.743591	-5.566436	1.171840	0.450520	0.312618	1.443305	0.027855	-0.055490	0.011550	0.999969	0.002253	0.001563	0.007216	
21917	    0	3.137939	-3.765615	1.149302	0.785841	0.342756	1.810486	0.031738	-0.037415	0.011292	0.999949	0.003929	0.001714	0.009052	
21918	    0	3.295760	-1.440226	0.454807	0.960374	0.286300	2.217157	0.033121	-0.014057	0.004433	0.999926	0.004802	0.001431	0.011086	
21919	    0	3.275755	-0.685655	-0.487614	0.885228	0.235756	2.597128	0.032837	-0.006409	-0.004944	0.999905	0.004426	0.001179	0.012985	
21920	    0	3.210983	-1.341514	-0.966712	0.847469	0.249873	2.979780	0.032292	-0.012894	-0.009763	0.999879	0.004237	0.001249	0.014898	
21921	    0	3.088361	-1.619718	-1.301065	0.866933	0.279250	3.320477	0.031128	-0.015625	-0.013123	0.999851	0.004334	0.001396	0.016602	
21922	    0	3.639734	-1.946996	-1.253529	0.925502	0.310917	3.689990	0.036728	-0.018736	-0.012680	0.999818	0.004627	0.001554	0.018449	
21923	    0	4.337951	-2.321071	-0.921819	0.947640	0.339724	4.069054	0.043823	-0.022278	-0.009399	0.999780	0.004738	0.001698	0.020344	
21924	    0	4.989686	-2.490668	-0.417618	0.870206	0.367196	4.402723	0.050421	-0.023782	-0.004374	0.999746	0.004351	0.001836	0.022012	
21925	    0	5.377539	-2.453015	-0.328724	0.717230	0.394667	4.667337	0.054321	-0.023254	-0.003479	0.999719	0.003586	0.001973	0.023335	
21926	    0	5.796754	-2.491907	-0.283364	0.642271	0.398868	4.927001	0.058552	-0.023472	-0.003027	0.999689	0.003211	0.001994	0.024632	
21927	    0	6.372775	-2.487714	-0.639138	0.686152	0.370831	5.180951	0.064331	-0.023193	-0.006592	0.999657	0.003430	0.001854	0.025902	
21928	    0	7.256349	-2.004128	-0.905782	0.775625	0.358817	5.414687	0.073053	-0.018032	-0.009261	0.999624	0.003878	0.001794	0.027070	
21929	    0	8.139393	-1.615202	-1.084010	0.825804	0.360157	5.664076	0.081787	-0.013794	-0.011047	0.999588	0.004128	0.001801	0.028316	
21930	    0	9.347738	-1.877572	-1.133872	0.862061	0.350051	5.940760	0.093959	-0.015940	-0.011576	0.999548	0.004310	0.001750	0.029699	
21931	    0	11.092248	-1.997346	-1.009132	0.858638	0.375428	6.199899	0.111450	-0.016479	-0.010376	0.999508	0.004292	0.001877	0.030994	
21932	    0	13.105512	-1.598839	-0.897428	0.767843	0.370091	6.433471	0.131461	-0.011728	-0.009268	0.999473	0.003839	0.001850	0.032162	
21933	    0	15.208504	-0.448131	-1.417274	0.745721	0.299128	6.624306	0.152100	0.000610	-0.014404	0.999443	0.003728	0.001495	0.033115	
21934	    0	17.520241	-0.068278	-2.247238	0.800670	0.198212	6.779653	0.175067	0.005344	-0.022633	0.999416	0.004003	0.000991	0.033892	
21935	    0	19.585564	0.530396	-3.479236	0.924297	0.106833	6.892258	0.195496	0.012207	-0.034851	0.999395	0.004621	0.000534	0.034454	
21936	    0	22.063150	1.496951	-5.501047	1.111828	-0.035293	6.883681	0.219945	0.022854	-0.054859	0.999392	0.005558	-0.000176	0.034411	
21937	    0	23.785587	3.836997	-8.030772	1.304127	-0.260024	6.841900	0.236450	0.046997	-0.079712	0.999393	0.006519	-0.001300	0.034203	
21938	    0	26.429160	7.769570	-9.747427	1.198807	-0.470442	6.655823	0.261726	0.087015	-0.096354	0.999425	0.005993	-0.002352	0.033273	
21939	    0	25.896405	12.777617	-8.850933	0.889929	-0.543305	6.291502	0.255005	0.136230	-0.087219	0.999491	0.004449	-0.002716	0.031452	
21940	    0	25.047172	15.575364	-6.830962	0.770103	-0.575717	5.664651	0.246117	0.163026	-0.066978	0.999587	0.003850	-0.002878	0.028319	
21941	    0	25.364896	18.590388	-5.735121	0.870792	-0.782855	4.777245	0.249329	0.192139	-0.055542	0.999697	0.004354	-0.003914	0.023884	
21942	    0	20.981308	24.934843	-5.858720	0.662850	-0.929898	3.946773	0.205103	0.253617	-0.056790	0.999788	0.003314	-0.004649	0.019732	
21943	    0	16.833861	32.369582	-3.995999	-0.257694	-0.782047	3.136582	0.163391	0.326233	-0.039734	0.999868	-0.001288	-0.003910	0.015682	
21944	    0	14.087294	32.587636	-3.582838	-1.062989	-0.646224	1.966712	0.137779	0.327046	-0.037116	0.999932	-0.005315	-0.003231	0.009833	
21945	    0	13.336531	28.578828	-3.792424	-1.321996	-0.487523	0.538640	0.132690	0.285889	-0.039490	0.999971	-0.006610	-0.002438	0.002693	
21946	    0	14.344751	24.305699	-2.570888	-0.946625	-0.423244	-1.007661	0.144725	0.242206	-0.026551	0.999973	-0.004733	-0.002116	-0.005038	
21947	    0	16.115313	20.115165	-1.984449	-0.502789	-0.477421	-2.314052	0.163513	0.199219	-0.019958	0.999927	-0.002514	-0.002387	-0.011570	
21948	    0	12.096377	14.645389	-0.335579	-0.282680	-0.235185	-3.070000	0.123197	0.144569	-0.003417	0.999880	-0.001413	-0.001176	-0.015349	
21949	    0	18.302937	-19.239419	5.294416	-0.878167	0.293931	-2.397222	0.180786	-0.194336	0.053528	0.999917	-0.004391	0.001470	-0.011986	
21950	    0	16.020463	-25.727323	8.687788	-0.182728	0.024796	-2.170415	0.157412	-0.258912	0.087094	0.999940	-0.000914	0.000124	-0.010852	
21951	    0	16.333595	-2.115665	4.311380	0.661499	-0.289739	-3.221277	0.162903	-0.023926	0.043274	0.999864	0.003307	-0.001449	-0.016106	
21952	    0	18.953391	8.996864	1.154291	0.861796	-0.227180	-3.855575	0.191207	0.086242	0.012136	0.999804	0.004309	-0.001136	-0.019277	
21953	    0	19.123866	8.649254	-7.155266	1.418580	-0.665323	-3.446403	0.192932	0.083679	-0.070312	0.999821	0.007092	-0.003326	-0.017231	
21954	    0	18.640476	13.357499	-10.292534	1.877915	-0.921122	-3.496412	0.189180	0.131237	-0.100819	0.999792	0.009389	-0.004605	-0.017481	
21955	    0	17.601600	4.062224	-2.387035	0.869798	-0.714722	-3.403655	0.176758	0.037720	-0.023071	0.999839	0.004349	-0.003573	-0.017017	
21956	    0	11.630764	-0.596036	2.190403	0.760494	-0.882760	-3.059524	0.116099	-0.007822	0.022389	0.999866	0.003802	-0.004414	-0.015297	
21957	    0	6.645225	-2.828496	1.160968	0.618197	-0.785096	-2.950406	0.065979	-0.029297	0.011780	0.999878	0.003091	-0.003925	-0.014751	
21958	    0	5.994490	2.028109	-1.282719	0.548383	-0.727680	-2.801424	0.060267	0.019473	-0.012554	0.999891	0.002742	-0.003638	-0.014007	
21959	    0	6.044914	3.613422	-4.829286	0.068666	-0.607888	-2.466650	0.061035	0.035400	-0.048096	0.999919	0.000343	-0.003039	-0.012333	
21960	    0	5.410704	2.795797	-5.406881	-0.358969	-0.424774	-1.990544	0.054496	0.027320	-0.054003	0.999947	-0.001795	-0.002124	-0.009953	
21961	    0	6.661137	1.413822	-2.543443	-0.280765	-0.372128	-1.657125	0.066772	0.013550	-0.025330	0.999963	-0.001404	-0.001861	-0.008286	
21962	    0	8.704348	1.763055	-2.952778	-0.078393	-0.322154	-1.345645	0.087207	0.017033	-0.029394	0.999975	-0.000392	-0.001611	-0.006728	
21963	    0	11.292841	1.632621	-1.787949	-0.155450	-0.231172	-1.108557	0.113037	0.015686	-0.017761	0.999983	-0.000777	-0.001156	-0.005543	
21964	    0	12.271634	-0.736721	-0.975950	-0.068283	-0.296594	-0.967602	0.122693	-0.007964	-0.009575	0.999987	-0.000341	-0.001483	-0.004838	
21965	    0	12.672177	-0.624334	-0.923832	0.046539	-0.396921	-0.901035	0.126710	-0.006812	-0.008988	0.999988	0.000233	-0.001985	-0.004505	
21966	    0	11.691205	0.154040	-0.469992	0.038338	-0.440408	-0.846866	0.116927	0.001046	-0.004442	0.999989	0.000192	-0.002202	-0.004234	
21967	    0	11.026087	0.158999	-1.087327	0.000763	-0.459100	-0.780490	0.110291	0.001160	-0.010620	0.999990	0.000004	-0.002295	-0.003902	
21968	    0	10.983721	-0.574875	-1.538187	-0.081253	-0.410653	-0.742342	0.109846	-0.006163	-0.015154	0.999990	-0.000406	-0.002053	-0.003712	
21969	    0	10.774124	-0.012196	-2.698889	-0.200463	-0.360109	-0.743105	0.107788	-0.000549	-0.026794	0.999990	-0.001002	-0.001801	-0.003716	
21970	    0	10.066956	1.360665	-3.994433	-0.471117	-0.292588	-0.704577	0.100775	0.013158	-0.039828	0.999990	-0.002356	-0.001463	-0.003523	
21971	    0	9.074903	0.581207	-4.824056	-0.724795	-0.228692	-0.586703	0.090820	0.005371	-0.048157	0.999988	-0.003624	-0.001143	-0.002934	
21972	    0	9.210057	0.588923	-4.994138	-0.891308	-0.102234	-0.540354	0.092141	0.005418	-0.049919	0.999986	-0.004457	-0.000511	-0.002702	
21973	    0	9.501510	0.666633	-4.257372	-1.004033	-0.006676	-0.477603	0.095032	0.006226	-0.042603	0.999984	-0.005020	-0.000033	-0.002388	
21974	    0	9.744748	0.436735	-3.405964	-1.018148	0.019455	-0.435641	0.097453	0.003982	-0.034090	0.999984	-0.005091	0.000097	-0.002178	
21975	    0	9.808948	-0.119387	-2.648482	-0.972752	0.023079	-0.414278	0.098083	-0.001526	-0.026489	0.999986	-0.004864	0.000115	-0.002071	
21976	    0	9.767225	-0.053585	-2.328728	-0.871471	0.042725	-0.403597	0.097666	-0.000834	-0.023305	0.999988	-0.004357	0.000214	-0.002018	
21977	    0	9.625214	0.334314	-2.596680	-0.812533	0.044441	-0.386049	0.096252	0.003052	-0.026001	0.999990	-0.004063	0.000222	-0.001930	
21978	    0	9.654763	0.605388	-3.307550	-0.780680	0.037193	-0.322915	0.096551	0.005769	-0.033116	0.999990	-0.003903	0.000186	-0.001615	
21979	    0	10.254257	0.851121	-3.294058	-0.808528	0.089264	-0.269318	0.102539	0.008240	-0.033020	0.999990	-0.004043	0.000446	-0.001347	
21980	    0	10.662038	0.977799	-2.109702	-0.812152	0.105858	-0.260926	0.106622	0.009553	-0.021193	0.999990	-0.004061	0.000529	-0.001305	
21981	    0	10.338110	1.772819	-2.302731	-0.916103	0.047302	-0.203706	0.103394	0.017517	-0.023132	0.999989	-0.004580	0.000237	-0.001019	
21982	    0	9.963562	1.452398	-1.639591	-1.054578	0.028801	-0.211526	0.099648	0.014332	-0.016486	0.999985	-0.005273	0.000144	-0.001058	
21983	    0	9.862940	0.449307	-1.083079	-1.110083	0.018501	-0.201417	0.098633	0.004333	-0.010864	0.999984	-0.005550	0.000093	-0.001007	
21984	    0	9.496657	0.162536	-0.917939	-1.033979	-0.004959	-0.264169	0.094969	0.001452	-0.009185	0.999986	-0.005170	-0.000025	-0.001321	
21985	    0	9.204087	-0.160890	-1.333598	-0.852779	-0.049591	-0.359346	0.092041	-0.001831	-0.013306	0.999989	-0.004264	-0.000248	-0.001797	
21986	    0	9.019032	-0.896571	-1.690857	-0.644304	-0.065613	-0.483896	0.090174	-0.009238	-0.016850	0.999991	-0.003222	-0.000328	-0.002419	
21987	    0	9.480761	-0.784491	-1.957198	-0.462915	-0.046539	-0.608827	0.094788	-0.008179	-0.019531	0.999992	-0.002315	-0.000233	-0.003044	
21988	    0	10.217823	-0.136739	-2.204535	-0.367929	-0.022507	-0.725557	0.102175	-0.001779	-0.022031	0.999991	-0.001840	-0.000113	-0.003628	
21989	    0	10.476650	0.701241	-2.233938	-0.414850	-0.027466	-0.830844	0.104797	0.006531	-0.022339	0.999989	-0.002074	-0.000137	-0.004154	
21990	    0	10.293164	0.252755	-2.432915	-0.511935	-0.038529	-0.917248	0.102946	0.001993	-0.024315	0.999986	-0.002560	-0.000193	-0.004586	
21991	    0	9.896539	-0.514865	-2.724190	-0.525478	-0.011444	-1.045233	0.098938	-0.005737	-0.027222	0.999983	-0.002627	-0.000057	-0.005226	
21992	    0	9.867867	-0.179928	-2.797618	-0.497822	0.022698	-1.247415	0.098661	-0.002484	-0.027982	0.999977	-0.002489	0.000113	-0.006237	
21993	    0	10.059090	-1.625356	-2.625403	-0.499539	0.065613	-1.412214	0.100464	-0.017029	-0.026245	0.999971	-0.002498	0.000328	-0.007061	
21994	    0	10.545067	-1.311760	-2.579946	-0.361828	0.092889	-1.606006	0.105329	-0.014010	-0.025824	0.999966	-0.001809	0.000464	-0.008030	
21995	    0	11.012370	-0.629922	-2.252303	-0.290493	0.127413	-1.802851	0.110046	-0.007324	-0.022583	0.999958	-0.001452	0.000637	-0.009014	
21996	    0	11.722553	-0.897548	-2.171587	-0.212291	0.154879	-1.977000	0.117112	-0.010157	-0.021796	0.999949	-0.001061	0.000774	-0.009885	
21997	    0	12.482455	-0.902120	-2.141815	-0.168422	0.217442	-2.143139	0.124695	-0.010376	-0.021545	0.999941	-0.000842	0.001087	-0.010715	
21998	    0	12.916078	-1.102563	-1.778029	-0.143054	0.248342	-2.309088	0.129000	-0.012528	-0.017932	0.999932	-0.000715	0.001242	-0.011545	
21999	    0	12.913128	-0.565184	-1.386277	-0.160031	0.280006	-2.479618	0.129028	-0.007263	-0.014038	0.999922	-0.000800	0.001400	-0.012398	
22000	    0	13.009368	-1.113801	-1.171393	-0.263031	0.355159	-2.652630	0.129910	-0.012877	-0.011929	0.999909	-0.001315	0.001776	-0.013263	
22001	    0	13.564303	-2.022244	-1.159904	-0.414290	0.422874	-2.819159	0.135315	-0.022156	-0.011841	0.999896	-0.002071	0.002114	-0.014095	
22002	    0	14.275591	-1.699617	-1.410600	-0.645664	0.468654	-3.010299	0.142445	-0.019188	-0.014380	0.999878	-0.003228	0.002343	-0.015051	
22003	    0	15.564747	-2.807337	-0.887516	-1.085715	0.568608	-3.162536	0.155151	-0.030579	-0.009155	0.999856	-0.005428	0.002843	-0.015812	
22004	    0	16.427916	-5.553323	-1.739447	-1.529970	0.667991	-3.262893	0.163284	-0.058336	-0.017502	0.999831	-0.007649	0.003340	-0.016314	
22005	    0	18.502094	-5.666581	-4.146239	-1.726454	0.730944	-3.492202	0.183838	-0.060242	-0.041626	0.999804	-0.008632	0.003654	-0.017460	
22006	    0	20.359752	-8.640845	-4.565017	-2.149182	0.759758	-3.741754	0.201755	-0.090684	-0.045460	0.999760	-0.010745	0.003798	-0.018707	
22007	    0	22.072327	-13.899275	-4.762341	-2.199553	0.689757	-3.920321	0.217773	-0.143799	-0.046814	0.999741	-0.010997	0.003448	-0.019600	
22008	    0	22.240505	-15.304908	-5.678626	-1.626535	0.489849	-4.192901	0.218987	-0.158122	-0.056053	0.999743	-0.008132	0.002449	-0.020963	
22009	    0	21.709063	-9.264064	-2.146779	-0.653707	0.419655	-4.587206	0.214844	-0.097656	-0.021606	0.999729	-0.003268	0.002098	-0.022934	
22010	    0	21.451097	-3.513708	-3.751952	0.018884	0.196284	-4.599024	0.213591	-0.040052	-0.037733	0.999735	0.000094	0.000981	-0.022993	
22011	    0	19.562638	-3.121404	-5.892159	0.317599	-0.016023	-4.386492	0.194885	-0.035400	-0.058960	0.999758	0.001588	-0.000080	-0.021931	
22012	    0	18.970603	-4.862341	-6.943700	0.361274	-0.166903	-3.821799	0.188790	-0.052112	-0.069371	0.999815	0.001806	-0.000834	-0.019108	
22013	    0	16.359105	-4.669258	-4.613270	0.578338	-0.384351	-3.455532	0.162842	-0.049377	-0.045959	0.999845	0.002892	-0.001922	-0.017277	
22014	    0	14.270417	-4.830225	-2.041513	1.002357	-0.143630	-3.121516	0.141943	-0.050419	-0.020562	0.999865	0.005012	-0.000718	-0.015607	
22015	    0	13.077734	-0.214238	2.426716	0.446529	0.136572	-3.175490	0.130737	-0.004272	0.024170	0.999870	0.002233	0.000683	-0.015877	
22016	    0	9.191454	7.181683	-2.099787	-0.072673	0.197990	-2.919683	0.092929	0.070457	-0.021115	0.999892	-0.000363	0.000990	-0.014598	
22017	    0	8.877192	14.252082	-5.516713	-0.010491	0.138857	-1.908141	0.090088	0.141663	-0.055237	0.999954	-0.000052	0.000694	-0.009541	
22018	    0	10.116836	1.942528	-7.200384	-0.505068	0.262071	-0.663569	0.101137	0.018908	-0.072185	0.999990	-0.002525	0.001310	-0.003318	
22019	    0	8.701105	-5.582297	-4.480955	-1.004796	0.483897	0.040436	0.086914	-0.056030	-0.044739	0.999984	-0.005024	0.002419	0.000202	
22020	    0	5.220410	-6.211478	-2.416569	-0.831227	0.562480	0.445559	0.052275	-0.062099	-0.024055	0.999985	-0.004156	0.002812	0.002228	
22021	    0	2.805736	-5.509028	-0.973771	-0.419428	0.583652	0.836949	0.028259	-0.054993	-0.009705	0.999985	-0.002097	0.002918	0.004185	
22022	    0	2.265574	-4.762202	-0.207471	-0.047303	0.670629	1.184473	0.022930	-0.047487	-0.002140	0.999976	-0.000237	0.003353	0.005922	
22023	    0	2.300810	-3.148345	0.267834	0.200846	0.719460	1.510638	0.023254	-0.031311	0.002563	0.999964	0.001004	0.003597	0.007553	
22024	    0	2.374364	-0.890092	-0.276932	0.352103	0.665486	1.916347	0.023818	-0.008668	-0.002864	0.999947	0.001760	0.003327	0.009582	
22025	    0	2.391813	0.147299	-1.085386	0.286109	0.618187	2.356779	0.023865	0.001770	-0.010925	0.999925	0.001431	0.003091	0.011784	
22026	    0	2.073300	-0.420505	-2.006224	0.132374	0.583668	2.781771	0.020730	-0.003903	-0.020125	0.999898	0.000662	0.002918	0.013908	
22027	    0	1.818649	-1.617388	-2.429229	0.105481	0.571467	3.188464	0.018372	-0.015869	-0.024353	0.999868	0.000527	0.002857	0.015942	
22028	    0	2.090591	-2.480489	-2.380952	0.256171	0.540572	3.585822	0.021281	-0.024395	-0.023898	0.999833	0.001281	0.002703	0.017928	
22029	    0	2.877157	-2.637375	-1.970936	0.419645	0.499187	3.956869	0.029236	-0.025757	-0.019836	0.999799	0.002098	0.002496	0.019783	
22030	    0	3.604693	-2.333112	-1.405102	0.486794	0.463141	4.288438	0.036503	-0.022517	-0.014191	0.999764	0.002434	0.002316	0.021441	
22031	    0	4.096956	-1.970531	-1.147229	0.418128	0.409926	4.574227	0.041382	-0.018738	-0.011597	0.999734	0.002090	0.002049	0.022869	
22032	    0	4.443805	-2.100155	-1.286359	0.371207	0.354230	4.860790	0.044908	-0.019890	-0.012980	0.999701	0.001856	0.001771	0.024302	
22033	    0	4.834497	-2.747836	-1.519275	0.408982	0.297771	5.177128	0.049011	-0.026184	-0.015320	0.999661	0.002045	0.001489	0.025883	
22034	    0	5.635551	-3.011958	-1.782470	0.530691	0.230055	5.458945	0.057128	-0.028520	-0.017967	0.999623	0.002653	0.001150	0.027291	
22035	    0	6.538765	-2.488473	-2.080463	0.645725	0.164817	5.675516	0.066040	-0.022949	-0.020935	0.999592	0.003228	0.000824	0.028374	
22036	    0	7.712454	-1.861876	-2.422147	0.715552	0.091185	5.907358	0.077617	-0.016244	-0.024318	0.999557	0.003577	0.000456	0.029532	
22037	    0	9.120393	-1.140778	-2.637692	0.715944	0.038153	6.190730	0.091492	-0.008484	-0.026428	0.999514	0.003579	0.000191	0.030949	
22038	    0	10.929160	-0.905814	-2.519286	0.603782	0.000572	6.471247	0.109507	-0.005441	-0.025213	0.999472	0.003018	0.000003	0.032351	
22039	    0	12.938956	-0.838494	-2.290251	0.490854	-0.042733	6.734220	0.129578	-0.003967	-0.022888	0.999430	0.002454	-0.000214	0.033665	
22040	    0	15.194691	-0.761655	-2.231272	0.472164	-0.113701	6.931555	0.152101	-0.002294	-0.022236	0.999396	0.002360	-0.000568	0.034651	
22041	    0	17.947727	-0.607304	-2.774585	0.554011	-0.181427	7.086912	0.179565	0.000366	-0.027588	0.999368	0.002769	-0.000907	0.035427	
22042	    0	20.934704	0.484961	-4.053626	0.697668	-0.265369	7.151809	0.209045	0.012470	-0.040224	0.999353	0.003488	-0.001327	0.035751	
22043	    0	23.660901	2.568113	-6.086696	0.787715	-0.373158	7.156396	0.235596	0.034363	-0.060303	0.999350	0.003938	-0.001865	0.035774	
22044	    0	26.354202	7.089367	-7.311592	0.541228	-0.472359	7.062488	0.260987	0.080338	-0.072289	0.999370	0.002706	-0.002361	0.035305	
22045	    0	26.660065	11.620882	-5.427815	-0.089091	-0.286159	6.912847	0.262451	0.125305	-0.053955	0.999401	-0.000445	-0.001431	0.034557	
22046	    0	26.317460	10.315745	-6.284138	0.033003	-0.424080	6.546050	0.259744	0.111708	-0.062270	0.999462	0.000165	-0.002120	0.032724	
22047	    0	27.067510	12.109907	-6.773771	0.504374	-0.663660	5.736582	0.267273	0.128967	-0.066528	0.999579	0.002522	-0.003318	0.028679	
22048	    0	24.576719	18.628280	-6.822705	0.762251	-0.843702	4.691770	0.241587	0.192239	-0.066477	0.999708	0.003811	-0.004218	0.023457	
22049	    0	19.859367	28.739045	-7.049967	0.407626	-0.962128	3.756952	0.193481	0.291199	-0.068970	0.999809	0.002038	-0.004810	0.018784	
22050	    0	15.024699	36.420516	-4.005740	-0.502222	-0.899346	2.696131	0.145501	0.366087	-0.040314	0.999895	-0.002511	-0.004497	0.013480	
22051	    0	13.264625	34.853170	-1.874216	-1.061073	-0.782024	1.242845	0.130554	0.349243	-0.020081	0.999958	-0.005305	-0.003910	0.006214	
22052	    0	13.040210	28.390853	-0.770311	-0.903516	-0.569537	-0.334551	0.130900	0.283652	-0.008613	0.999984	-0.004518	-0.002848	-0.001673	
22053	    0	14.165080	22.443941	-0.149336	-0.130274	-0.414282	-1.809719	0.143677	0.223145	-0.001343	0.999956	-0.000651	-0.002071	-0.009048	
22054	    0	14.298665	20.998191	0.542341	0.687245	-0.400750	-2.969287	0.146070	0.207808	0.006431	0.999882	0.003436	-0.002004	-0.014846	
22055	    0	17.025500	15.458412	0.030986	0.954498	-0.567472	-3.731009	0.173096	0.151367	0.001526	0.999810	0.004772	-0.002837	-0.018654	
22056	    0	12.293371	-18.739705	1.115234	0.419820	-0.482574	-2.643476	0.120416	-0.189023	0.011049	0.999907	0.002099	-0.002413	-0.013217	
22057	    0	14.389804	-48.159545	11.852850	0.981154	-0.071527	-1.566337	0.140076	-0.483276	0.116211	0.999957	0.004906	-0.000358	-0.007832	
22058	    0	13.862015	-15.579804	13.061282	2.133103	-0.082211	-2.896274	0.136278	-0.159164	0.128983	0.999838	0.010665	-0.000411	-0.014481	
22059	    0	14.628400	5.513238	5.188577	2.758271	-0.163093	-3.692191	0.147217	0.051697	0.052734	0.999734	0.013790	-0.000815	-0.018459	
22060	    0	17.808042	11.511280	-0.872739	2.367966	-0.207345	-3.593914	0.180120	0.111979	-0.007203	0.999767	0.011839	-0.001037	-0.017968	
22061	    0	17.326784	8.795309	-7.999805	1.619236	-0.784344	-3.116013	0.174927	0.085876	-0.078613	0.999838	0.008096	-0.003922	-0.015579	
22062	    0	12.985984	15.145610	-16.654716	2.555666	-1.520657	-3.154048	0.133500	0.151473	-0.163606	0.999764	0.012777	-0.007603	-0.015769	
22063	    0	18.279023	9.922476	-7.950299	1.696115	-0.994741	-3.221322	0.184753	0.096924	-0.077759	0.999822	0.008480	-0.004973	-0.016106	
22064	    0	16.072264	-1.094150	2.982346	0.896681	-0.663021	-2.924276	0.160439	-0.013424	0.030299	0.999877	0.004483	-0.003315	-0.014621	
22065	    0	8.889206	0.752664	5.039130	0.558682	-0.698877	-2.748204	0.088806	0.006165	0.050720	0.999895	0.002793	-0.003494	-0.013741	
22066	    0	8.831385	4.064812	1.119405	0.090030	-0.629064	-2.698603	0.088816	0.039447	0.011491	0.999904	0.000450	-0.003145	-0.013493	
22067	    0	8.491251	3.653246	-2.371272	-0.489629	-0.421916	-2.377379	0.085388	0.035461	-0.023621	0.999924	-0.002448	-0.002110	-0.011887	
22068	    0	6.226975	1.854662	-1.280834	-0.616275	-0.351721	-1.914248	0.062466	0.017910	-0.012754	0.999948	-0.003081	-0.001759	-0.009571	
22069	    0	6.975067	-0.158188	-1.321060	-0.093843	-0.424771	-1.571673	0.069763	-0.002136	-0.013062	0.999967	-0.000469	-0.002124	-0.007858	
22070	    0	9.100404	1.400006	-2.426430	0.106240	-0.302317	-1.303683	0.091129	0.013419	-0.024119	0.999977	0.000531	-0.001512	-0.006518	
22071	    0	11.860190	0.630127	-1.716387	0.052834	-0.225068	-1.061254	0.118652	0.005676	-0.017029	0.999985	0.000264	-0.001125	-0.005306	
22072	    0	13.458168	0.814377	-0.418876	0.060845	-0.322725	-0.913433	0.134624	0.007530	-0.003969	0.999988	0.000304	-0.001614	-0.004567	
22073	    0	12.745119	1.031313	-0.637386	-0.020409	-0.425722	-0.762179	0.127502	0.009827	-0.006104	0.999990	-0.000102	-0.002129	-0.003811	
22074	    0	11.029367	-0.213702	-0.450522	0.000000	-0.453187	-0.686838	0.110295	-0.002516	-0.004255	0.999991	0.000000	-0.002266	-0.003434	
22075	    0	10.638289	-0.244530	-0.534252	-0.043488	-0.404168	-0.679018	0.106384	-0.002808	-0.005127	0.999991	-0.000217	-0.002021	-0.003395	
22076	    0	10.779716	0.257539	-1.630664	-0.194932	-0.346948	-0.659754	0.107833	0.002204	-0.016122	0.999992	-0.000975	-0.001735	-0.003299	
22077	    0	10.397492	1.038632	-4.137957	-0.527765	-0.281526	-0.631716	0.104065	0.009949	-0.041260	0.999990	-0.002639	-0.001408	-0.003159	
22078	    0	8.758755	1.818138	-5.508803	-0.960927	-0.195695	-0.515750	0.087687	0.017691	-0.055088	0.999984	-0.004805	-0.000978	-0.002579	
22079	    0	8.150157	0.871711	-5.492010	-1.176460	-0.092888	-0.378420	0.081543	0.008240	-0.054932	0.999980	-0.005882	-0.000464	-0.001892	
22080	    0	9.010130	0.256028	-4.155028	-1.149184	0.009537	-0.332834	0.090103	0.002172	-0.041568	0.999982	-0.005746	0.000048	-0.001664	
22081	    0	9.589839	-0.442842	-2.734685	-0.991635	0.041199	-0.283052	0.095886	-0.004700	-0.027344	0.999987	-0.004958	0.000206	-0.001415	
22082	    0	9.891536	0.872247	-2.192074	-0.804331	0.035286	-0.284577	0.098924	0.008493	-0.021973	0.999990	-0.004022	0.000176	-0.001423	
22083	    0	9.727757	1.149721	-1.965731	-0.788691	0.025177	-0.263215	0.097290	0.011292	-0.019714	0.999990	-0.003943	0.000126	-0.001316	
22084	    0	9.583814	-0.152178	-2.190661	-0.766565	0.005722	-0.221444	0.095836	-0.001712	-0.021903	0.999991	-0.003833	0.000029	-0.001107	
22085	    0	9.650521	-0.628861	-2.247554	-0.665285	0.013924	-0.220490	0.096497	-0.006470	-0.022461	0.999993	-0.003326	0.000070	-0.001102	
22086	    0	9.881439	0.131771	-2.115779	-0.574494	-0.002289	-0.212288	0.098816	0.001152	-0.021160	0.999995	-0.002872	-0.000011	-0.001061	
22087	    0	9.806251	1.647568	-2.248312	-0.652315	-0.029564	-0.215912	0.098083	0.016296	-0.022522	0.999993	-0.003262	-0.000148	-0.001080	
22088	    0	9.416937	1.640483	-2.820683	-0.870326	-0.071335	-0.184060	0.094194	0.016195	-0.028244	0.999990	-0.004352	-0.000357	-0.000920	
22089	    0	9.196555	0.437235	-2.747999	-0.990109	-0.076294	-0.186921	0.091980	0.004150	-0.027466	0.999987	-0.004951	-0.000381	-0.000935	
22090	    0	9.734555	-0.284671	-1.503396	-0.984387	-0.041008	-0.220490	0.097345	-0.003028	-0.014999	0.999987	-0.004922	-0.000205	-0.001102	
22091	    0	9.808460	-0.233122	-0.657814	-0.852969	-0.075341	-0.292207	0.098083	-0.002502	-0.006531	0.999990	-0.004265	-0.000377	-0.001461	
22092	    0	9.570029	-0.117409	-0.692426	-0.699427	-0.123215	-0.362016	0.095702	-0.001371	-0.006861	0.999991	-0.003497	-0.000616	-0.001810	
22093	    0	9.663791	-1.050138	-0.687868	-0.544740	-0.154686	-0.460054	0.096619	-0.010742	-0.006775	0.999993	-0.002724	-0.000773	-0.002300	
22094	    0	10.324911	-0.663231	-0.585378	-0.369645	-0.169754	-0.576974	0.103234	-0.006941	-0.005754	0.999993	-0.001848	-0.000849	-0.002885	
22095	    0	10.893380	0.281338	-0.577540	-0.306512	-0.189209	-0.666811	0.108948	0.002441	-0.005676	0.999992	-0.001533	-0.000946	-0.003334	
22096	    0	10.943144	0.452780	-0.854581	-0.387574	-0.215340	-0.729372	0.109456	0.004112	-0.008436	0.999990	-0.001938	-0.001077	-0.003647	
22097	    0	10.521554	-0.082298	-1.262949	-0.440790	-0.218202	-0.819400	0.105225	-0.001282	-0.012512	0.999989	-0.002204	-0.001091	-0.004097	
22098	    0	9.966742	-0.406252	-2.007181	-0.453379	-0.214959	-0.967603	0.099668	-0.004590	-0.019955	0.999985	-0.002267	-0.001075	-0.004838	
22099	    0	9.644686	-0.593140	-2.592246	-0.421717	-0.189210	-1.129920	0.096436	-0.006531	-0.025818	0.999981	-0.002109	-0.000946	-0.005650	
22100	    0	9.866726	-1.527937	-2.819051	-0.379756	-0.146104	-1.316081	0.098584	-0.015982	-0.028089	0.999976	-0.001899	-0.000731	-0.006580	
22101	    0	10.534975	-1.821420	-2.949978	-0.310519	-0.098229	-1.487746	0.105225	-0.019043	-0.029419	0.999970	-0.001553	-0.000491	-0.007439	
22102	    0	11.469390	-0.585643	-3.075900	-0.233462	-0.061799	-1.700804	0.114648	-0.006867	-0.030716	0.999963	-0.001167	-0.000309	-0.008504	
22103	    0	12.279102	-1.164059	-2.902889	-0.289730	-0.031281	-1.849392	0.122681	-0.012817	-0.028992	0.999956	-0.001449	-0.000156	-0.009247	
22104	    0	12.959205	-0.743550	-2.693441	-0.271802	0.003052	-1.987681	0.129509	-0.008759	-0.026925	0.999949	-0.001359	0.000015	-0.009938	
22105	    0	12.945256	-0.432226	-2.355711	-0.286108	0.015450	-2.134746	0.129395	-0.005737	-0.023560	0.999942	-0.001431	0.000077	-0.010674	
22106	    0	12.733033	-1.278088	-1.935941	-0.298888	0.055124	-2.284673	0.127168	-0.014263	-0.019374	0.999933	-0.001494	0.000276	-0.011423	
22107	    0	12.872528	-1.309821	-1.666452	-0.301178	0.125125	-2.466647	0.128540	-0.014709	-0.016724	0.999922	-0.001506	0.000626	-0.012333	
22108	    0	13.387063	-1.816182	-1.384303	-0.373279	0.194555	-2.597502	0.133606	-0.019924	-0.013937	0.999913	-0.001866	0.000973	-0.012987	
22109	    0	14.092748	-0.618862	-1.112620	-0.523394	0.262651	-2.784060	0.140808	-0.008179	-0.011292	0.999898	-0.002617	0.001313	-0.013920	
22110	    0	15.076875	-2.420371	-0.121816	-0.843271	0.390449	-2.903860	0.150393	-0.026395	-0.001404	0.999884	-0.004216	0.001952	-0.014519	
22111	    0	15.406747	-3.694907	-1.901963	-0.987858	0.437183	-3.025185	0.153442	-0.039368	-0.019165	0.999870	-0.004939	0.002186	-0.015125	
22112	    0	16.791451	-3.600121	-3.985326	-1.168882	0.474381	-3.229303	0.167207	-0.038939	-0.040029	0.999849	-0.005844	0.002372	-0.016146	
22113	    0	18.168759	-6.254168	-4.703381	-1.660255	0.486975	-3.369342	0.180481	-0.065979	-0.046936	0.999820	-0.008301	0.002435	-0.016846	
22114	    0	19.242103	-8.501971	-5.411227	-2.083162	0.477824	-3.506907	0.190756	-0.088935	-0.053657	0.999788	-0.010415	0.002389	-0.017533	
22115	    0	19.866172	-10.710234	-5.279607	-2.246270	0.384742	-3.689864	0.196533	-0.111328	-0.051941	0.999764	-0.011230	0.001924	-0.018448	
22116	    0	21.267602	-13.257019	-4.341401	-2.045988	0.314547	-3.898174	0.209966	-0.137117	-0.042358	0.999756	-0.010229	0.001573	-0.019489	
22117	    0	19.387288	-8.431637	-2.593617	-1.370352	0.116930	-4.225506	0.192017	-0.088562	-0.025452	0.999753	-0.006851	0.000585	-0.021126	
22118	    0	19.224427	-5.553964	-4.070157	-0.752125	-0.160039	-4.223003	0.191045	-0.059734	-0.040329	0.999769	-0.003760	-0.000800	-0.021113	
22119	    0	17.318130	-3.760850	-4.302568	-0.275250	-0.355556	-4.160612	0.172424	-0.041260	-0.042664	0.999781	-0.001376	-0.001778	-0.020802	
22120	    0	18.059415	-3.254253	-5.756721	-0.157747	-0.506621	-3.672811	0.180100	-0.035898	-0.057083	0.999827	-0.000789	-0.002533	-0.018363	
22121	    0	15.235127	-3.890151	-3.802842	-0.332657	-0.558307	-3.261716	0.151794	-0.041443	-0.037537	0.999862	-0.001663	-0.002791	-0.016308	
22122	    0	13.922051	-4.861212	-1.777706	-0.226220	-0.337231	-2.876383	0.138532	-0.050628	-0.017487	0.999894	-0.001131	-0.001686	-0.014381	
22123	    0	12.455079	-1.308550	2.342119	-0.272189	-0.093082	-2.956499	0.124329	-0.014893	0.023499	0.999889	-0.001361	-0.000465	-0.014782	
22124	    0	7.538969	5.350098	-2.643804	-0.959624	-0.063708	-2.897375	0.076161	0.052274	-0.026667	0.999883	-0.004798	-0.000319	-0.014486	
22125	    0	8.085604	11.243193	-6.185029	-0.547800	-0.205044	-1.989019	0.082031	0.111450	-0.062073	0.999946	-0.002739	-0.001025	-0.009945	
22126	    0	10.411335	0.638361	-6.865177	-0.835614	-0.010109	-0.792889	0.104140	0.005684	-0.068671	0.999983	-0.004178	-0.000051	-0.003964	
22127	    0	9.353483	-7.176538	-3.912803	-1.280984	0.193216	-0.145722	0.093445	-0.072083	-0.038757	0.999978	-0.006405	0.000966	-0.000729	
22128	    0	6.989998	-7.995339	-0.884520	-0.919918	0.296403	0.171853	0.069956	-0.079933	-0.008581	0.999988	-0.004600	0.001482	0.000859	
22129	    0	3.964370	-6.830398	0.906477	-0.255585	0.290108	0.583650	0.039856	-0.068176	0.009094	0.999993	-0.001278	0.001451	0.002918	
22130	    0	2.812465	-4.920219	1.049680	0.215722	0.351526	0.923924	0.028370	-0.049083	0.010394	0.999987	0.001079	0.001758	0.004620	
22131	    0	3.104137	-3.112612	0.654568	0.478558	0.402835	1.261912	0.031250	-0.030945	0.006409	0.999975	0.002393	0.002014	0.006310	
22132	    0	3.419262	-1.458638	-0.103064	0.676928	0.340657	1.675248	0.034311	-0.014296	-0.001138	0.999957	0.003385	0.001703	0.008376	
22133	    0	3.353406	-1.076373	-1.017199	0.695052	0.270277	2.096601	0.033630	-0.010376	-0.010254	0.999938	0.003475	0.001351	0.010483	
22134	    0	3.166871	-1.720838	-1.453875	0.638026	0.248534	2.492020	0.031861	-0.016766	-0.014632	0.999916	0.003190	0.001243	0.012460	
22135	    0	2.925153	-2.208052	-1.526390	0.687433	0.286303	2.861890	0.029541	-0.021606	-0.015381	0.999890	0.003437	0.001431	0.014309	
22136	    0	3.162773	-2.239206	-1.361129	0.716051	0.304617	3.211931	0.031960	-0.021832	-0.013739	0.999863	0.003580	0.001523	0.016059	
22137	    0	3.844455	-2.233869	-1.078412	0.750011	0.306147	3.573808	0.038818	-0.021606	-0.010925	0.999831	0.003750	0.001531	0.017868	
22138	    0	4.314849	-2.178951	-0.708609	0.695275	0.291653	3.926157	0.043554	-0.020912	-0.007223	0.999800	0.003476	0.001458	0.019629	
22139	    0	4.804742	-2.362413	-0.639594	0.559468	0.292228	4.230059	0.048523	-0.022583	-0.006531	0.999771	0.002797	0.001461	0.021149	
22140	    0	5.300675	-2.447035	-0.706701	0.509115	0.280786	4.489519	0.053528	-0.023254	-0.007202	0.999743	0.002545	0.001404	0.022446	
22141	    0	5.824161	-2.150167	-1.116339	0.539450	0.248170	4.749752	0.058716	-0.020081	-0.011292	0.999713	0.002697	0.001241	0.023746	
22142	    0	6.733300	-2.668458	-1.371054	0.628157	0.220704	5.031363	0.067960	-0.024937	-0.013865	0.999678	0.003140	0.001103	0.025154	
22143	    0	7.674801	-3.071655	-1.122992	0.761505	0.186370	5.300775	0.077515	-0.028625	-0.011414	0.999640	0.003807	0.000932	0.026501	
22144	    0	8.406818	-2.784503	-0.876182	0.868720	0.157758	5.522494	0.084786	-0.025472	-0.008943	0.999609	0.004343	0.000789	0.027609	
22145	    0	9.436444	-2.308953	-0.764648	0.942364	0.139065	5.757195	0.094971	-0.020325	-0.007812	0.999574	0.004711	0.000695	0.028782	
22146	    0	11.029920	-1.778804	-1.016485	0.937605	0.111978	5.984459	0.110759	-0.014430	-0.010300	0.999540	0.004687	0.000560	0.029918	
22147	    0	12.931786	-1.318502	-1.112104	0.861501	0.099389	6.241114	0.129639	-0.009094	-0.011230	0.999503	0.004307	0.000497	0.031200	
22148	    0	15.059471	-0.813122	-1.451147	0.822595	0.056658	6.481370	0.150747	-0.003187	-0.014574	0.999466	0.004112	0.000283	0.032401	
22149	    0	17.400099	-0.430606	-2.323539	0.834049	0.020031	6.660949	0.174011	0.001587	-0.023254	0.999436	0.004169	0.000100	0.033298	
22150	    0	19.476070	-0.615997	-2.911656	0.823179	0.010492	6.738049	0.194817	0.000524	-0.029134	0.999422	0.004115	0.000052	0.033684	
22151	    0	21.910056	0.053793	-4.437938	0.903685	-0.094623	6.738817	0.218933	0.008118	-0.044250	0.999422	0.004518	-0.000473	0.033688	
22152	    0	23.739900	3.220493	-6.658305	0.980944	-0.310766	6.660387	0.236247	0.040411	-0.066031	0.999432	0.004904	-0.001554	0.033296	
22153	    0	24.790324	9.329221	-8.444763	0.792076	-0.504967	6.555611	0.244873	0.101685	-0.083435	0.999452	0.003960	-0.002524	0.032772	
22154	    0	26.121700	12.800936	-7.135483	0.392600	-0.521558	6.377168	0.257141	0.136392	-0.070418	0.999486	0.001963	-0.002607	0.031880	
22155	    0	24.226922	14.314276	-5.000431	0.530510	-0.603573	5.841148	0.238098	0.150269	-0.048889	0.999565	0.002652	-0.003017	0.029202	
22156	    0	25.003746	17.742676	-3.303295	0.775993	-0.707511	4.962309	0.245645	0.183682	-0.031454	0.999678	0.003880	-0.003537	0.024809	
22157	    0	21.620262	21.911526	-2.764249	0.919409	-0.753648	4.007250	0.211853	0.223511	-0.025818	0.999782	0.004597	-0.003768	0.020035	
22158	    0	17.683602	28.587016	-3.819875	0.645476	-0.702317	3.131625	0.172461	0.288713	-0.036659	0.999866	0.003227	-0.003511	0.015657	
22159	    0	14.410313	34.105087	-3.303602	-0.021935	-0.592053	2.090495	0.140625	0.342529	-0.032654	0.999941	-0.000110	-0.002960	0.010452	
22160	    0	12.473528	32.624755	-3.006585	-0.446322	-0.497629	0.767330	0.123558	0.326655	-0.030486	0.999987	-0.002232	-0.002488	0.003837	
22161	    0	15.316279	27.086234	-2.458955	-0.417902	-0.407411	-0.711062	0.154175	0.270264	-0.024841	0.999989	-0.002090	-0.002037	-0.003555	
22162	    0	13.177586	23.372537	-2.684289	-0.021553	-0.370224	-2.170034	0.134351	0.232274	-0.026621	0.999939	-0.000108	-0.001851	-0.010850	
22163	    0	15.037802	20.038302	-2.379480	-0.040438	-0.041010	-3.201431	0.153564	0.197937	-0.023804	0.999871	-0.000202	-0.000205	-0.016006	
22164	    0	21.023166	-20.447808	2.874747	-1.025805	0.357258	-2.535710	0.207670	-0.206972	0.029432	0.999905	-0.005129	0.001786	-0.012678	
22165	    0	17.476386	-21.589045	4.739167	-0.392923	-0.108912	-2.355250	0.172180	-0.217834	0.047913	0.999928	-0.001965	-0.000545	-0.011776	
22166	    0	20.915758	3.377858	3.243912	0.038912	-0.199139	-3.809206	0.209718	0.029781	0.032654	0.999818	0.000195	-0.000996	-0.019045	
22167	    0	20.033550	7.082098	-0.790389	0.526468	-0.276777	-4.223953	0.201782	0.066589	-0.007446	0.999772	0.002632	-0.001384	-0.021118	
22168	    0	18.765624	5.865256	-9.498155	1.802202	-0.818507	-3.827963	0.189129	0.055890	-0.093698	0.999767	0.009010	-0.004092	-0.019138	
22169	    0	16.317969	8.463674	-6.808081	1.418409	-0.728470	-3.898146	0.165039	0.081909	-0.066895	0.999778	0.007092	-0.003642	-0.019489	
22170	    0	11.921704	1.854091	0.573516	0.977957	-0.828412	-3.599004	0.119499	0.016362	0.006313	0.999817	0.004889	-0.004142	-0.017994	
22171	    0	6.499274	0.661409	0.486098	1.040892	-0.910995	-3.177802	0.065063	0.005554	0.005188	0.999849	0.005204	-0.004555	-0.015888	
22172	    0	5.107012	2.319795	-1.271396	0.908507	-0.751526	-2.874490	0.051444	0.022517	-0.012418	0.999879	0.004542	-0.003757	-0.014372	
22173	    0	5.831469	4.127463	-3.538584	0.644131	-0.749229	-2.513962	0.058960	0.040649	-0.035034	0.999908	0.003221	-0.003746	-0.012569	
22174	    0	5.810086	4.885522	-6.088616	0.100519	-0.583850	-2.037468	0.058772	0.048289	-0.060691	0.999943	0.000503	-0.002919	-0.010187	
22175	    0	7.742713	1.854703	-3.393875	-0.269321	-0.385861	-1.593799	0.077637	0.017883	-0.033813	0.999965	-0.001347	-0.001929	-0.007969	
22176	    0	10.377455	1.136248	-1.116642	-0.212099	-0.350764	-1.333820	0.103867	0.010658	-0.010996	0.999975	-0.001060	-0.001754	-0.006669	
22177	    0	12.004617	2.179418	-0.835306	-0.156976	-0.318148	-1.114661	0.120178	0.021118	-0.008179	0.999983	-0.000785	-0.001591	-0.005573	
22178	    0	11.933215	-0.717438	-1.221761	-0.098610	-0.375940	-0.949292	0.119319	-0.007747	-0.011990	0.999987	-0.000493	-0.001880	-0.004746	
22179	    0	12.156238	-0.291874	-1.589444	0.029183	-0.444033	-0.925450	0.121582	-0.003479	-0.015625	0.999987	0.000146	-0.002220	-0.004627	
22180	    0	12.081550	0.277846	-1.076785	-0.064659	-0.447847	-0.855258	0.120850	0.002258	-0.010498	0.999988	-0.000323	-0.002239	-0.004276	
22181	    0	10.974508	-0.004193	-0.258337	-0.116539	-0.498201	-0.776103	0.109750	-0.000469	-0.002310	0.999987	-0.000583	-0.002491	-0.003881	
22182	    0	10.202029	0.484256	-1.161773	-0.080490	-0.502779	-0.740054	0.102066	0.004460	-0.011363	0.999990	-0.000402	-0.002514	-0.003700	
22183	    0	10.027656	0.402240	-2.504934	-0.124359	-0.419427	-0.687410	0.100342	0.003662	-0.024841	0.999991	-0.000622	-0.002097	-0.003437	
22184	    0	9.907805	0.726217	-3.809441	-0.287247	-0.320245	-0.634386	0.099161	0.006893	-0.037946	0.999992	-0.001436	-0.001601	-0.003172	
22185	    0	9.267576	1.362828	-4.744616	-0.515748	-0.253106	-0.563814	0.092773	0.013245	-0.047363	0.999991	-0.002579	-0.001266	-0.002819	
22186	    0	9.014148	0.977277	-5.095568	-0.725939	-0.192643	-0.468828	0.090213	0.009377	-0.050903	0.999990	-0.003630	-0.000963	-0.002344	
22187	    0	9.175733	0.886891	-4.657655	-0.852016	-0.094605	-0.406648	0.091797	0.008484	-0.046570	0.999989	-0.004260	-0.000473	-0.002033	
22188	    0	9.429368	0.533978	-3.342682	-0.946431	-0.032234	-0.382807	0.094309	0.005001	-0.033436	0.999987	-0.004732	-0.000161	-0.001914	
22189	    0	9.501930	0.681926	-2.456750	-0.925449	-0.002098	-0.367738	0.095032	0.006531	-0.024597	0.999988	-0.004627	-0.000010	-0.001839	
22190	    0	9.633550	0.765122	-2.064889	-0.906757	0.012970	-0.365449	0.096348	0.007381	-0.020689	0.999988	-0.004534	0.000065	-0.001827	
22191	    0	9.692826	-0.163118	-2.221868	-0.864223	0.012207	-0.340272	0.096924	-0.001892	-0.022217	0.999989	-0.004321	0.000061	-0.001701	
22192	    0	9.607668	-0.004390	-2.623113	-0.780871	0.016975	-0.322724	0.096074	-0.000301	-0.026238	0.999990	-0.003904	0.000085	-0.001614	
22193	    0	9.514725	0.507101	-2.958184	-0.705530	0.006104	-0.304414	0.095154	0.004822	-0.029602	0.999992	-0.003528	0.000031	-0.001522	
22194	    0	9.376690	1.033772	-3.083467	-0.719263	-0.001717	-0.300027	0.093782	0.010086	-0.030870	0.999992	-0.003596	-0.000009	-0.001500	
22195	    0	9.556887	0.758961	-3.220164	-0.810053	-0.010681	-0.282288	0.095581	0.007324	-0.032227	0.999990	-0.004050	-0.000053	-0.001411	
22196	    0	10.084390	-0.225843	-1.954617	-0.806048	0.055885	-0.297357	0.100835	-0.002487	-0.019565	0.999990	-0.004030	0.000279	-0.001487	
22197	    0	9.611029	1.395282	-2.131049	-0.765230	-0.002098	-0.287629	0.096130	0.013733	-0.021362	0.999991	-0.003826	-0.000010	-0.001438	
22198	    0	9.377518	0.603756	-2.658105	-0.785639	-0.070000	-0.320054	0.093794	0.005783	-0.026571	0.999990	-0.003928	-0.000350	-0.001600	
22199	    0	10.230732	-0.690465	-1.510232	-0.724032	-0.002098	-0.355531	0.102295	-0.007141	-0.015076	0.999991	-0.003620	-0.000010	-0.001778	
22200	    0	10.159752	0.461018	-1.285032	-0.625612	-0.024605	-0.412942	0.101608	0.004360	-0.012852	0.999992	-0.003128	-0.000123	-0.002065	
22201	    0	10.348333	1.238227	-2.189886	-0.630762	-0.049591	-0.440980	0.103516	0.012085	-0.021912	0.999992	-0.003154	-0.000248	-0.002205	
22202	    0	10.600868	0.848348	-1.831810	-0.660898	-0.058556	-0.512888	0.106035	0.008151	-0.018314	0.999990	-0.003304	-0.000293	-0.002564	
22203	    0	10.881974	0.097736	-1.918473	-0.745204	-0.041199	-0.543215	0.108826	0.000610	-0.019165	0.999989	-0.003726	-0.000206	-0.002716	
22204	    0	10.700149	0.560911	-2.075052	-0.800708	-0.021172	-0.626376	0.107020	0.005191	-0.020761	0.999987	-0.004004	-0.000106	-0.003132	
22205	    0	10.330479	0.756280	-2.231064	-0.888639	-0.007629	-0.742344	0.103333	0.007080	-0.022339	0.999983	-0.004443	-0.000038	-0.003712	
22206	    0	10.055961	-0.721994	-2.305543	-0.897414	0.019646	-0.904852	0.100523	-0.007778	-0.023031	0.999979	-0.004487	0.000098	-0.004524	
22207	    0	9.971362	-1.735604	-2.543643	-0.775725	0.046540	-1.105508	0.099609	-0.018005	-0.025391	0.999977	-0.003879	0.000233	-0.005527	
22208	    0	10.385713	-1.987037	-2.826870	-0.613791	0.095178	-1.374067	0.103703	-0.020670	-0.028255	0.999971	-0.003069	0.000476	-0.006870	
22209	    0	11.064249	-2.503480	-3.184182	-0.440031	0.135805	-1.622028	0.110413	-0.026001	-0.031860	0.999964	-0.002200	0.000679	-0.008110	
22210	    0	12.049526	-2.239099	-2.977172	-0.303082	0.193217	-1.862363	0.120251	-0.023557	-0.029853	0.999954	-0.001515	0.000966	-0.009312	
22211	    0	12.670424	-1.348329	-2.514222	-0.225834	0.225262	-2.085152	0.126526	-0.014832	-0.025269	0.999944	-0.001129	0.001126	-0.010426	
22212	    0	12.940641	-0.735457	-1.897807	-0.187878	0.265890	-2.301268	0.129285	-0.008861	-0.019142	0.999932	-0.000939	0.001329	-0.011506	
22213	    0	13.195646	-2.099423	-1.860918	-0.195318	0.320634	-2.476566	0.131653	-0.022644	-0.018799	0.999921	-0.000977	0.001603	-0.012383	
22214	    0	13.704151	-1.113721	-1.925945	-0.223167	0.355922	-2.684676	0.136841	-0.012997	-0.019489	0.999907	-0.001116	0.001780	-0.013423	
22215	    0	14.110330	-1.234665	-1.916202	-0.410285	0.390639	-2.863413	0.140869	-0.014404	-0.019409	0.999893	-0.002051	0.001953	-0.014317	
22216	    0	14.986319	-1.632370	-1.118244	-0.687818	0.461025	-3.027087	0.149567	-0.018628	-0.011466	0.999876	-0.003439	0.002305	-0.015135	
22217	    0	15.645921	-2.959949	-0.862521	-1.193867	0.527217	-3.141936	0.155945	-0.032104	-0.008850	0.999855	-0.005969	0.002636	-0.015709	
22218	    0	17.212743	-4.806759	-1.565019	-1.579564	0.631177	-3.244200	0.171267	-0.050975	-0.015797	0.999832	-0.007897	0.003156	-0.016220	
22219	    0	18.840718	-5.796027	-3.207185	-1.911101	0.649305	-3.470845	0.187256	-0.061523	-0.032104	0.999798	-0.009555	0.003246	-0.017353	
22220	    0	19.741879	-8.881348	-3.453547	-2.344891	0.642828	-3.637222	0.195645	-0.092784	-0.034094	0.999761	-0.011724	0.003214	-0.018185	
22221	    0	20.304194	-12.744368	-2.760620	-2.557408	0.605064	-3.778410	0.200500	-0.131592	-0.026550	0.999735	-0.012786	0.003025	-0.018890	
22222	    0	21.145920	-12.550523	-2.037662	-2.173810	0.570348	-4.062254	0.208793	-0.129980	-0.019578	0.999730	-0.010868	0.002851	-0.020309	
22223	    0	20.300214	-10.322614	-2.959017	-1.530594	0.395429	-4.367458	0.200623	-0.107849	-0.029175	0.999730	-0.007652	0.001977	-0.021835	
22224	    0	22.812211	-9.605073	-3.594365	-0.653131	0.303866	-4.445833	0.225856	-0.101206	-0.035963	0.999746	-0.003265	0.001519	-0.022227	
22225	    0	19.303783	-5.287404	-4.631513	0.035861	0.127612	-4.436094	0.191772	-0.057129	-0.046448	0.999753	0.000179	0.000638	-0.022179	
22226	    0	19.482685	-5.501321	-6.392989	0.164615	0.026514	-3.973269	0.193675	-0.058816	-0.064003	0.999802	0.000823	0.000133	-0.019865	
22227	    0	16.502826	-7.369583	-4.863901	0.648724	-0.216686	-3.505893	0.163757	-0.076416	-0.048706	0.999840	0.003243	-0.001083	-0.017529	
22228	    0	13.578410	-5.819347	-3.983535	1.085331	-0.253498	-3.111981	0.134910	-0.060081	-0.039987	0.999863	0.005426	-0.001267	-0.015559	
22229	    0	12.849621	-3.639450	0.939237	0.924913	0.193032	-3.050362	0.127930	-0.038391	0.009094	0.999872	0.004624	0.000965	-0.015251	
22230	    0	8.610796	4.407970	-0.770955	0.132757	0.238047	-3.072860	0.086762	0.042755	-0.007784	0.999881	0.000664	0.001190	-0.015364	
22231	    0	8.359514	14.169840	-4.876506	0.418100	0.269514	-2.201127	0.085083	0.140869	-0.048584	0.999936	0.002090	0.001348	-0.011005	
22232	    0	8.573145	7.146164	-7.429055	0.002861	0.403978	-0.815776	0.085872	0.071113	-0.074463	0.999990	0.000014	0.002020	-0.004079	
22233	    0	9.101531	-4.396279	-5.290705	-0.487329	0.661470	0.188447	0.090881	-0.044006	-0.053101	0.999990	-0.002437	0.003307	0.000942	
22234	    0	6.467735	-6.822367	-2.785794	-0.418284	0.819973	0.559810	0.064754	-0.068101	-0.027981	0.999985	-0.002091	0.004100	0.002799	
22235	    0	3.258771	-6.345883	-1.436651	0.047493	0.884253	0.988777	0.032837	-0.063293	-0.014526	0.999977	0.000237	0.004421	0.004944	
22236	    0	1.993230	-4.864333	-1.225399	0.324825	0.987256	1.357667	0.020201	-0.048487	-0.012432	0.999963	0.001624	0.004936	0.006788	
22237	    0	2.335758	-4.397972	-0.800757	0.453194	1.127073	1.688415	0.023682	-0.043762	-0.008240	0.999946	0.002266	0.005635	0.008442	
22238	    0	2.611480	-2.596644	-0.442550	0.629059	1.107053	2.080969	0.026358	-0.025679	-0.004652	0.999925	0.003145	0.005535	0.010405	
22239	    0	2.725413	-0.715481	-1.156083	0.650045	0.993570	2.507862	0.027283	-0.006775	-0.011719	0.999904	0.003250	0.004968	0.012539	
22240	    0	2.468439	0.037982	-1.991491	0.457400	0.931776	2.888411	0.024582	0.000781	-0.020028	0.999882	0.002287	0.004659	0.014441	
22241	    0	1.819381	-0.442911	-3.030882	0.292220	0.887532	3.254855	0.018127	-0.004089	-0.030396	0.999856	0.001461	0.004437	0.016273	
22242	    0	1.956616	-1.709207	-3.378240	0.331135	0.856832	3.669576	0.019730	-0.016675	-0.033895	0.999820	0.001656	0.004284	0.018347	
22243	    0	3.008812	-2.473341	-3.039947	0.455699	0.816404	4.061421	0.030457	-0.024048	-0.030579	0.999783	0.002278	0.004082	0.020306	
22244	    0	4.135914	-2.795791	-2.427139	0.512548	0.760333	4.401768	0.041867	-0.026978	-0.024500	0.999747	0.002563	0.003801	0.022007	
22245	    0	4.917961	-2.750112	-1.667144	0.429766	0.717994	4.676496	0.049744	-0.026306	-0.016907	0.999718	0.002149	0.003590	0.023380	
22246	    0	5.299920	-2.364225	-1.499760	0.367584	0.636548	4.911164	0.053510	-0.022305	-0.015209	0.999691	0.001838	0.003182	0.024553	
22247	    0	5.445567	-2.147044	-1.965044	0.341836	0.551095	5.174079	0.054932	-0.020020	-0.019836	0.999660	0.001709	0.002755	0.025867	
22248	    0	5.971415	-2.170516	-2.475289	0.389149	0.466024	5.487185	0.060221	-0.020009	-0.024933	0.999619	0.001945	0.002330	0.027432	
22249	    0	7.184468	-2.432798	-3.265205	0.487587	0.357297	5.791529	0.072449	-0.022156	-0.032837	0.999576	0.002438	0.001786	0.028954	
22250	    0	8.668216	-2.324582	-3.532409	0.524602	0.247612	6.054285	0.087287	-0.020516	-0.035488	0.999537	0.002623	0.001238	0.030267	
22251	    0	10.065977	-1.804130	-3.345409	0.475391	0.153567	6.319723	0.101135	-0.014771	-0.033569	0.999497	0.002377	0.000768	0.031593	
22252	    0	11.754718	-1.358902	-2.915446	0.438005	0.053606	6.530401	0.117898	-0.009679	-0.029210	0.999464	0.002190	0.000268	0.032646	
22253	    0	13.810938	-0.689480	-2.750276	0.440299	-0.065434	6.709791	0.138245	-0.002197	-0.027466	0.999434	0.002201	-0.000327	0.033543	
22254	    0	16.164622	-0.186202	-3.045066	0.518710	-0.182569	6.843767	0.161610	0.003748	-0.030298	0.999411	0.002593	-0.000913	0.034212	
22255	    0	18.829229	0.415765	-3.747529	0.600555	-0.296653	6.944921	0.188049	0.010803	-0.037170	0.999391	0.003002	-0.001483	0.034718	
22256	    0	21.553623	1.356771	-4.989834	0.691936	-0.409019	6.942827	0.214990	0.021210	-0.049394	0.999389	0.003459	-0.002045	0.034707	
22257	    0	23.670010	3.465908	-7.291585	0.855619	-0.612001	6.884631	0.235535	0.043091	-0.072021	0.999393	0.004277	-0.003059	0.034416	
22258	    0	25.595903	7.558111	-8.982167	0.829859	-0.855422	6.744940	0.253589	0.084530	-0.088395	0.999413	0.004148	-0.004276	0.033718	
22259	    0	26.532351	15.445456	-6.668383	0.200117	-0.695163	6.538044	0.260315	0.163086	-0.065613	0.999458	0.001000	-0.003475	0.032684	
22260	    0	25.400310	14.664032	-5.099395	0.188858	-0.776224	6.134630	0.249541	0.154388	-0.049876	0.999521	0.000944	-0.003881	0.030668	
22261	    0	26.280977	15.062109	-4.881004	0.609663	-0.888742	5.293155	0.258911	0.157654	-0.047180	0.999635	0.003048	-0.004443	0.026463	
22262	    0	23.530580	19.259781	-5.350170	0.897482	-0.935251	4.272244	0.231361	0.197803	-0.051534	0.999750	0.004487	-0.004676	0.021359	
22263	    0	19.207027	27.263757	-6.780298	0.639376	-0.934458	3.329639	0.187805	0.276001	-0.066040	0.999845	0.003197	-0.004672	0.016647	
22264	    0	14.393242	34.813231	-4.861988	-0.242239	-0.864240	2.227646	0.140253	0.349649	-0.048431	0.999928	-0.001211	-0.004321	0.011138	
22265	    0	12.414002	33.874495	-3.012267	-1.045810	-0.749977	0.857552	0.122803	0.339111	-0.031433	0.999969	-0.005229	-0.003750	0.004288	
22266	    0	12.189054	27.475986	-1.741664	-1.212894	-0.560575	-0.582891	0.122742	0.274292	-0.018738	0.999973	-0.006064	-0.002803	-0.002914	
22267	    0	13.886493	21.622754	-0.769087	-0.722898	-0.425156	-1.884685	0.140911	0.214877	-0.008171	0.999946	-0.003614	-0.002126	-0.009423	
22268	    0	18.646238	17.439959	0.475242	-0.118451	-0.478381	-2.935136	0.188983	0.171641	0.005100	0.999888	-0.000592	-0.002392	-0.014675	
22269	    0	14.892186	5.472516	0.822357	-0.056460	-0.531603	-3.319706	0.149780	0.052246	0.008606	0.999858	-0.000282	-0.002658	-0.016598	
22270	    0	12.944396	-30.453138	5.829326	-0.287442	-0.125696	-1.868276	0.126555	-0.305638	0.058812	0.999954	-0.001437	-0.000628	-0.009341	
22271	    0	15.370671	-32.680189	13.925280	0.520335	0.042916	-2.076761	0.150330	-0.328735	0.138367	0.999942	0.002602	0.000215	-0.010384	
22272	    0	14.792286	-8.622925	11.174771	1.742268	-0.128372	-3.188500	0.146441	-0.089541	0.111072	0.999834	0.008711	-0.000642	-0.015942	
22273	    0	15.409362	7.503774	1.280289	2.325058	-0.183883	-3.768466	0.155457	0.071960	0.013794	0.999754	0.011624	-0.000919	-0.018841	
22274	    0	18.667237	10.879826	-1.233955	1.969663	-0.344491	-3.533797	0.188577	0.105590	-0.010965	0.999793	0.009848	-0.001722	-0.017668	
22275	    0	16.228970	8.175505	-11.594863	2.090783	-1.034614	-3.219817	0.164185	0.080322	-0.114258	0.999802	0.010453	-0.005173	-0.016098	
22276	    0	14.472021	15.736227	-12.234698	2.357667	-1.286607	-3.390958	0.148151	0.156290	-0.119555	0.999765	0.011787	-0.006433	-0.016953	
22277	    0	16.753417	1.497598	-0.878416	1.467213	-1.042805	-3.154928	0.167786	0.012390	-0.007812	0.999835	0.007336	-0.005214	-0.015774	
22278	    0	12.120315	-1.909304	3.295709	0.943033	-0.769457	-2.962811	0.120773	-0.021041	0.033326	0.999871	0.004715	-0.003847	-0.014813	
22279	    0	6.494014	1.226079	1.137770	0.547049	-0.763541	-2.884022	0.065063	0.011292	0.011658	0.999885	0.002735	-0.003818	-0.014420	
22280	    0	8.437447	3.507386	-3.107590	0.027467	-0.635740	-2.741141	0.084943	0.033916	-0.030802	0.999901	0.000137	-0.003179	-0.013705	
22281	    0	6.393531	3.338956	-3.720246	-0.585761	-0.399027	-2.331601	0.064392	0.032532	-0.037170	0.999926	-0.002929	-0.001995	-0.011658	
22282	    0	5.854931	1.416081	-1.799106	-0.540361	-0.364119	-1.875717	0.058711	0.013562	-0.017921	0.999950	-0.002702	-0.001821	-0.009378	
22283	    0	7.700933	0.846585	-0.947011	-0.055695	-0.347713	-1.530472	0.077087	0.007874	-0.009338	0.999969	-0.000278	-0.001739	-0.007652	
22284	    0	9.946391	1.367969	-1.184573	0.125886	-0.290110	-1.245507	0.099564	0.013067	-0.011693	0.999979	0.000629	-0.001451	-0.006227	
22285	    0	12.710308	0.531076	-0.525041	0.153352	-0.284387	-1.063543	0.127136	0.004639	-0.005066	0.999984	0.000767	-0.001422	-0.005318	
22286	    0	13.821067	0.242123	-0.298791	0.178910	-0.392153	-0.944523	0.138226	0.001771	-0.002715	0.999986	0.000895	-0.001961	-0.004723	
22287	    0	12.357732	0.295415	-0.347692	0.185395	-0.486567	-0.834659	0.123596	0.002441	-0.003174	0.999988	0.000927	-0.002433	-0.004173	
22288	    0	10.971834	0.475121	-0.503006	0.137330	-0.499155	-0.781253	0.109748	0.004326	-0.004753	0.999989	0.000687	-0.002496	-0.003906	
22289	    0	11.304963	1.037037	-0.542190	-0.023460	-0.415803	-0.744631	0.113098	0.009949	-0.005188	0.999990	-0.000117	-0.002079	-0.003723	
22290	    0	11.310460	0.759592	-1.668305	-0.216675	-0.405885	-0.677874	0.113163	0.007195	-0.016461	0.999991	-0.001083	-0.002029	-0.003389	
22291	    0	10.274385	0.989671	-3.921922	-0.540163	-0.355340	-0.643160	0.102844	0.009460	-0.039062	0.999990	-0.002701	-0.001777	-0.003216	
22292	    0	8.597586	2.082734	-5.690228	-0.926595	-0.223733	-0.539973	0.086095	0.020331	-0.056901	0.999985	-0.004633	-0.001119	-0.002700	
22293	    0	8.357772	0.911323	-5.595012	-1.182564	-0.078393	-0.421908	0.083618	0.008606	-0.055969	0.999980	-0.005913	-0.000392	-0.002110	
22294	    0	9.013107	-0.100259	-4.409183	-1.157577	0.034142	-0.355723	0.090121	-0.001418	-0.044100	0.999981	-0.005788	0.000171	-0.001779	
22295	    0	9.625634	0.405192	-3.388734	-1.016240	0.059700	-0.325014	0.096252	0.003723	-0.033936	0.999986	-0.005081	0.000299	-0.001625	
22296	    0	9.801724	0.552500	-2.456780	-0.865939	0.039864	-0.306893	0.098021	0.005268	-0.024611	0.999989	-0.004330	0.000199	-0.001534	
22297	    0	9.660725	0.912961	-1.814108	-0.757601	0.027657	-0.309754	0.096619	0.008911	-0.018188	0.999991	-0.003788	0.000138	-0.001549	
22298	    0	9.595053	0.074706	-1.601338	-0.724031	0.016785	-0.309182	0.095950	0.000541	-0.016024	0.999991	-0.003620	0.000084	-0.001546	
22299	    0	9.527944	-0.218028	-1.965961	-0.645448	0.002480	-0.286866	0.095276	-0.002380	-0.019653	0.999993	-0.003227	0.000012	-0.001434	
22300	    0	9.743479	0.892719	-2.109786	-0.638391	-0.006104	-0.293923	0.097448	0.008717	-0.021123	0.999993	-0.003192	-0.000031	-0.001470	
22301	    0	9.843230	0.992164	-1.981581	-0.734713	-0.031090	-0.292970	0.098450	0.009705	-0.019836	0.999991	-0.003674	-0.000155	-0.001465	
22302	    0	9.501366	1.449064	-2.468383	-0.852969	-0.078202	-0.277139	0.095043	0.014254	-0.024708	0.999990	-0.004265	-0.000391	-0.001386	
22303	    0	9.328987	1.472971	-2.639874	-1.031308	-0.097657	-0.274660	0.093323	0.014465	-0.026428	0.999985	-0.005157	-0.000488	-0.001373	
22304	    0	9.874848	-0.235379	-1.401886	-1.057058	-0.050164	-0.301935	0.098748	-0.002577	-0.013981	0.999985	-0.005285	-0.000251	-0.001510	
22305	    0	9.632051	-0.802447	-1.205302	-0.857356	-0.114441	-0.340272	0.096313	-0.008240	-0.011963	0.999989	-0.004287	-0.000572	-0.001701	
22306	    0	9.473905	-0.634503	-1.331102	-0.678636	-0.127793	-0.409890	0.094734	-0.006584	-0.013228	0.999991	-0.003393	-0.000639	-0.002049	
22307	    0	9.573889	0.780579	-0.861542	-0.494386	-0.186730	-0.451661	0.095764	0.007568	-0.008545	0.999993	-0.002472	-0.000934	-0.002258	
22308	    0	10.056594	0.844009	-0.890529	-0.456048	-0.213623	-0.462533	0.100595	0.008187	-0.008817	0.999993	-0.002280	-0.001068	-0.002313	
22309	    0	10.215260	0.290043	-1.158924	-0.419618	-0.235558	-0.492860	0.102173	0.002625	-0.011475	0.999993	-0.002098	-0.001178	-0.002464	
22310	    0	10.506590	0.673753	-1.401386	-0.407411	-0.253296	-0.522805	0.105101	0.006434	-0.013894	0.999993	-0.002037	-0.001266	-0.002614	
22311	    0	10.595365	1.625753	-1.578635	-0.522615	-0.268365	-0.540163	0.106018	0.015930	-0.015686	0.999991	-0.002613	-0.001342	-0.002701	
22312	    0	10.342552	1.607125	-2.071672	-0.699809	-0.245286	-0.613978	0.103499	0.015681	-0.020645	0.999988	-0.003499	-0.001226	-0.003070	
22313	    0	9.884494	0.191594	-2.603376	-0.804714	-0.202943	-0.701145	0.098877	0.001465	-0.025940	0.999985	-0.004024	-0.001015	-0.003506	
22314	    0	9.546806	-0.735351	-2.936045	-0.808339	-0.159837	-0.867467	0.095458	-0.007886	-0.029253	0.999982	-0.004042	-0.000799	-0.004337	
22315	    0	9.767015	-1.618569	-3.313067	-0.735288	-0.101472	-1.103219	0.097595	-0.016846	-0.033020	0.999977	-0.003676	-0.000507	-0.005516	
22316	    0	10.249847	-3.030177	-4.006694	-0.581174	-0.052643	-1.357282	0.102300	-0.031113	-0.039950	0.999972	-0.002906	-0.000263	-0.006786	
22317	    0	11.143651	-2.764361	-4.100680	-0.399785	0.007820	-1.617450	0.111206	-0.028625	-0.040955	0.999965	-0.001999	0.000039	-0.008087	
22318	    0	12.264407	-1.811636	-3.548143	-0.253681	0.025177	-1.865605	0.122463	-0.019304	-0.035473	0.999955	-0.001268	0.000126	-0.009328	
22319	    0	13.095626	-0.776698	-2.872621	-0.209621	0.046540	-2.075233	0.130859	-0.009155	-0.028748	0.999945	-0.001048	0.000233	-0.010376	
22320	    0	13.340344	-0.990073	-2.280871	-0.251775	0.088312	-2.222108	0.133272	-0.011411	-0.022854	0.999937	-0.001259	0.000442	-0.011110	
22321	    0	13.708961	-1.329261	-2.164567	-0.293548	0.151829	-2.378902	0.136902	-0.014954	-0.021729	0.999928	-0.001468	0.000759	-0.011894	
22322	    0	14.365678	-0.032163	-1.918052	-0.389682	0.205809	-2.570034	0.143617	-0.002205	-0.019325	0.999914	-0.001948	0.001029	-0.012850	
22323	    0	14.581190	-1.545955	-1.464301	-0.612469	0.245674	-2.679528	0.145569	-0.017456	-0.014771	0.999905	-0.003062	0.001228	-0.013397	
22324	    0	15.185092	-0.912846	-0.868096	-0.778227	0.297367	-2.853499	0.151687	-0.011328	-0.008865	0.999889	-0.003891	0.001487	-0.014267	
22325	    0	15.419083	-2.777600	-0.299442	-1.219994	0.386255	-2.983224	0.153748	-0.030090	-0.003113	0.999867	-0.006100	0.001931	-0.014915	
22326	    0	16.578910	-4.285698	-1.347604	-1.538737	0.520924	-3.108375	0.165060	-0.045530	-0.013563	0.999846	-0.007693	0.002604	-0.015541	
22327	    0	17.899696	-4.596312	-3.316198	-1.924255	0.565565	-3.332730	0.178101	-0.049255	-0.033203	0.999810	-0.009621	0.002828	-0.016663	
22328	    0	18.988630	-8.615040	-4.295052	-2.497294	0.559087	-3.471834	0.188228	-0.089959	-0.042371	0.999767	-0.012486	0.002795	-0.017358	
22329	    0	19.914639	-11.813134	-4.280970	-2.793179	0.511215	-3.639544	0.196838	-0.122314	-0.041626	0.999733	-0.013965	0.002556	-0.018196	
22330	    0	20.852284	-13.316185	-4.486014	-2.745319	0.453992	-3.901855	0.205765	-0.137797	-0.043459	0.999713	-0.013725	0.002270	-0.019507	
22331	    0	20.877678	-14.839529	-4.643869	-1.885961	0.210590	-4.172881	0.205566	-0.153137	-0.045227	0.999737	-0.009429	0.001053	-0.020863	
22332	    0	19.714257	-7.264908	-2.502818	-0.940789	0.142492	-4.538943	0.195407	-0.077214	-0.024812	0.999731	-0.004704	0.000712	-0.022693	
22333	    0	19.802940	-2.349272	-3.884280	-0.161566	-0.064855	-4.482645	0.197449	-0.027954	-0.038757	0.999748	-0.000808	-0.000324	-0.022411	
22334	    0	19.177193	-2.334994	-7.079602	0.159466	-0.407058	-4.170723	0.191374	-0.027287	-0.070427	0.999780	0.000797	-0.002035	-0.020852	
22335	    0	17.640795	-4.419705	-5.709168	0.350210	-0.604856	-3.711921	0.175720	-0.047363	-0.056641	0.999822	0.001751	-0.003024	-0.018559	
22336	    0	14.545087	-4.484993	-3.532491	0.007248	-0.536181	-3.336875	0.144770	-0.047268	-0.034938	0.999857	0.000036	-0.002681	-0.016684	
22337	    0	13.609499	-3.231306	2.551242	-0.019646	-0.085453	-3.113682	0.135559	-0.034424	0.025574	0.999878	-0.000098	-0.000427	-0.015568	
22338	    0	10.978130	2.505462	-1.134230	-0.670270	-0.184257	-3.047113	0.110156	0.023340	-0.011321	0.999877	-0.003351	-0.000921	-0.015235	
22339	    0	8.102563	11.985312	-3.661492	-0.923182	-0.134853	-2.364413	0.082458	0.118713	-0.037109	0.999919	-0.004616	-0.000674	-0.011822	
22340	    0	9.453774	6.709059	-7.661246	-1.168646	-0.156786	-1.168264	0.094986	0.066088	-0.076926	0.999965	-0.005843	-0.000784	-0.005841	
22341	    0	9.674403	-5.777337	-5.214624	-1.487555	0.090028	-0.141145	0.096680	-0.058228	-0.051758	0.999971	-0.007438	0.000450	-0.000706	
22342	    0	6.882915	-7.475181	-3.271651	-1.466384	0.225832	0.343517	0.068921	-0.074871	-0.032246	0.999970	-0.007332	0.001129	0.001718	
22343	    0	4.099160	-7.468508	-1.178295	-1.002510	0.319102	0.768285	0.041260	-0.074585	-0.011475	0.999978	-0.005013	0.001595	0.003841	
22344	    0	2.553007	-6.130854	0.258209	-0.501255	0.387767	1.123055	0.025879	-0.061157	0.002686	0.999979	-0.002506	0.001939	0.005615	
22345	    0	2.327097	-4.655743	0.699952	-0.048638	0.449376	1.438154	0.023621	-0.046387	0.006958	0.999971	-0.000243	0.002247	0.007191	
22346	    0	2.666098	-2.708661	0.680740	0.257305	0.438887	1.787593	0.026917	-0.026855	0.006714	0.999956	0.001287	0.002194	0.008938	
22347	    0	2.942161	-1.077405	0.004150	0.409707	0.361069	2.226688	0.029539	-0.010446	-0.000033	0.999932	0.002048	0.001805	0.011133	
22348	    0	2.920948	-0.714474	-1.003804	0.366222	0.287828	2.688491	0.029287	-0.006733	-0.010093	0.999907	0.001831	0.001439	0.013442	
22349	    0	2.587461	-1.373985	-1.642070	0.375382	0.258075	3.102239	0.026062	-0.013306	-0.016479	0.999877	0.001877	0.001290	0.015511	
22350	    0	2.474083	-1.935146	-1.938169	0.529317	0.214206	3.490248	0.025052	-0.018865	-0.019459	0.999844	0.002646	0.001071	0.017450	
22351	    0	3.107278	-2.307644	-1.887132	0.719499	0.186360	3.880562	0.031494	-0.022400	-0.018982	0.999804	0.003597	0.000932	0.019402	
22352	    0	4.016996	-2.415616	-1.323616	0.877259	0.162900	4.254104	0.040660	-0.023236	-0.013372	0.999763	0.004386	0.000814	0.021269	
22353	    0	4.398320	-2.058682	-0.891725	0.904166	0.117694	4.583394	0.044434	-0.019531	-0.009033	0.999726	0.004520	0.000588	0.022915	
22354	    0	4.779778	-2.106121	-1.029741	0.779804	0.073631	4.882165	0.048288	-0.019846	-0.010394	0.999694	0.003899	0.000368	0.024408	
22355	    0	4.974979	-2.661445	-1.167580	0.723349	0.043683	5.193161	0.050415	-0.025269	-0.011780	0.999656	0.003616	0.000218	0.025963	
22356	    0	5.538911	-2.822064	-1.568756	0.774483	-0.026897	5.492533	0.056137	-0.026625	-0.015785	0.999615	0.003872	-0.000134	0.027459	
22357	    0	6.473079	-2.545089	-1.871454	0.893718	-0.072489	5.731242	0.065430	-0.023499	-0.018799	0.999578	0.004468	-0.000362	0.028652	
22358	    0	7.596392	-2.111883	-2.049343	0.987773	-0.132771	5.910423	0.076555	-0.018761	-0.020539	0.999551	0.004938	-0.000664	0.029548	
22359	    0	8.854443	-1.980982	-2.048313	1.092706	-0.164631	6.139606	0.089111	-0.016968	-0.020508	0.999513	0.005463	-0.000823	0.030693	
22360	    0	10.690892	-1.891882	-1.584885	1.161207	-0.168258	6.384826	0.107451	-0.015402	-0.015855	0.999473	0.005805	-0.000841	0.031919	
22361	    0	12.824346	-1.529862	-1.021556	1.172096	-0.148610	6.616693	0.128662	-0.010986	-0.010193	0.999434	0.005859	-0.000743	0.033077	
22362	    0	15.042050	-1.105118	-0.939774	1.219992	-0.178373	6.799334	0.150687	-0.005874	-0.009310	0.999403	0.006099	-0.000892	0.033990	
22363	    0	17.769034	-1.030006	-1.466492	1.327219	-0.201458	6.943433	0.177917	-0.004028	-0.014526	0.999374	0.006635	-0.001007	0.034710	
22364	    0	20.751009	-0.681566	-2.453674	1.491677	-0.214051	7.024750	0.207601	0.000658	-0.024328	0.999354	0.007457	-0.001070	0.035116	
22365	    0	23.371949	1.027139	-4.539087	1.574473	-0.241904	7.002237	0.233215	0.018799	-0.044983	0.999355	0.007871	-0.001209	0.035004	
22366	    0	26.242987	5.811741	-5.888807	1.178792	-0.165019	6.905443	0.260256	0.067474	-0.058293	0.999386	0.005893	-0.000825	0.034520	
22367	    0	26.287105	8.598582	-5.655170	0.751641	-0.041016	6.773925	0.259766	0.095032	-0.056152	0.999419	0.003757	-0.000205	0.033863	
22368	    0	26.026564	8.029585	-8.084100	0.915879	-0.201070	6.433666	0.257577	0.088980	-0.080187	0.999471	0.004579	-0.001005	0.032163	
22369	    0	25.635094	10.427633	-9.476607	1.407064	-0.528603	5.695403	0.253479	0.112183	-0.093323	0.999566	0.007034	-0.002643	0.028473	
22370	    0	22.715094	18.573265	-9.415079	1.409297	-0.761875	4.755138	0.222993	0.191721	-0.091959	0.999684	0.007046	-0.003809	0.023773	
22371	    0	18.942140	28.538671	-8.457640	0.548591	-0.968809	3.904229	0.184204	0.289246	-0.082886	0.999793	0.002743	-0.004844	0.019520	
22372	    0	14.963916	34.353459	-3.911332	-0.705174	-0.872455	2.823557	0.144943	0.345464	-0.039690	0.999885	-0.003526	-0.004362	0.014117	
22373	    0	14.268801	31.046255	-1.863729	-1.197071	-0.678836	1.408409	0.140564	0.311340	-0.020020	0.999951	-0.005985	-0.003394	0.007042	
22374	    0	14.019757	25.150978	-0.874101	-0.907330	-0.432016	-0.082779	0.140322	0.251410	-0.009579	0.999987	-0.004537	-0.002160	-0.000414	
22375	    0	17.903551	18.438802	-0.766036	-0.048066	-0.422482	-1.558702	0.180481	0.182983	-0.007324	0.999967	-0.000240	-0.002112	-0.007793	
22376	    0	13.381167	19.141394	-0.717045	0.778417	-0.474947	-2.813633	0.136502	0.189531	-0.006108	0.999890	0.003892	-0.002375	-0.014068	
22377	    0	13.987862	13.691337	-4.245031	0.863692	-0.511005	-3.377708	0.142273	0.134705	-0.041504	0.999845	0.004318	-0.002555	-0.016888	
22378	    0	17.145459	-12.529066	0.977579	0.022317	-0.037195	-2.884011	0.169622	-0.127747	0.009793	0.999895	0.000112	-0.000186	-0.014420	
22379	    0	18.941112	-25.623776	9.619903	0.406849	0.034333	-2.582624	0.186096	-0.258850	0.095642	0.999914	0.002034	0.000172	-0.012913	
22380	    0	17.197750	-3.885913	5.951665	1.341516	-0.307482	-3.463946	0.171174	-0.042228	0.059505	0.999825	0.006707	-0.001537	-0.017319	
22381	    0	20.688372	10.125300	2.460826	1.461341	-0.238057	-4.214828	0.208923	0.096680	0.025574	0.999750	0.007306	-0.001190	-0.021072	
22382	    0	20.163073	11.984215	-5.663730	1.713703	-0.631766	-4.052687	0.204185	0.116198	-0.054989	0.999753	0.008568	-0.003159	-0.020262	
22383	    0	18.385125	13.681456	-11.858883	2.213676	-1.078130	-3.921859	0.187134	0.134460	-0.116089	0.999731	0.011067	-0.005390	-0.019608	
22384	    0	15.885880	3.917408	-5.411670	1.094512	-0.813541	-3.842811	0.159794	0.036403	-0.053264	0.999792	0.005472	-0.004067	-0.019213	
22385	    0	10.872503	1.650305	0.847732	0.723307	-0.919965	-3.460123	0.108948	0.014587	0.009033	0.999833	0.003616	-0.004600	-0.017300	
22386	    0	5.726541	0.567964	1.985870	0.497268	-0.927584	-3.065625	0.057250	0.004752	0.020137	0.999868	0.002486	-0.004638	-0.015327	
22387	    0	4.914575	3.078787	0.236802	0.351156	-0.822478	-2.804667	0.049561	0.030090	0.002625	0.999891	0.001756	-0.004112	-0.014023	
22388	    0	5.353631	4.413559	-4.018506	0.077440	-0.732631	-2.352583	0.054197	0.043516	-0.039970	0.999924	0.000387	-0.003663	-0.011763	
22389	    0	4.957004	4.357407	-5.224004	-0.138857	-0.584993	-1.790646	0.050110	0.043091	-0.052124	0.999955	-0.000694	-0.002925	-0.008953	
22390	    0	7.315495	1.798263	-2.671072	-0.279429	-0.390438	-1.473632	0.073337	0.017406	-0.026592	0.999969	-0.001397	-0.001952	-0.007368	
22391	    0	10.999791	1.757038	-0.537883	-0.087548	-0.249483	-1.201637	0.110107	0.016907	-0.005249	0.999981	-0.000438	-0.001247	-0.006008	
22392	    0	13.555412	0.778747	-0.437926	0.055313	-0.202371	-0.977711	0.135594	0.007126	-0.004240	0.999987	0.000277	-0.001012	-0.004889	
22393	    0	13.484463	-0.835506	-1.659971	0.144959	-0.278283	-0.933079	0.134827	-0.008972	-0.016418	0.999988	0.000725	-0.001391	-0.004665	
22394	    0	12.409949	-1.242758	-2.427283	0.213052	-0.350763	-0.926403	0.124083	-0.012977	-0.024069	0.999987	0.001065	-0.001754	-0.004632	
22395	    0	11.482980	0.260498	-1.831060	0.125885	-0.316430	-0.836184	0.114868	0.002136	-0.018127	0.999990	0.000629	-0.001582	-0.004181	
22396	    0	10.746285	0.872671	-0.985285	-0.041008	-0.307465	-0.728418	0.107509	0.008333	-0.009689	0.999991	-0.000205	-0.001537	-0.003642	
22397	    0	9.964032	0.539306	-0.977829	-0.137329	-0.277520	-0.643159	0.099670	0.005066	-0.009644	0.999993	-0.000687	-0.001388	-0.003216	
22398	    0	9.961190	0.669153	-1.558534	-0.153160	-0.248146	-0.563050	0.099649	0.006399	-0.015467	0.999994	-0.000766	-0.001241	-0.002815	
22399	    0	10.235465	1.349295	-2.852223	-0.279809	-0.192261	-0.526429	0.102417	0.013184	-0.028442	0.999994	-0.001399	-0.000961	-0.002632	
22400	    0	9.912635	0.980176	-4.110686	-0.469590	-0.140953	-0.440026	0.099176	0.009487	-0.041059	0.999994	-0.002348	-0.000705	-0.002200	
22401	    0	9.597957	0.869432	-4.656855	-0.693514	-0.058556	-0.356294	0.096008	0.008362	-0.046570	0.999991	-0.003468	-0.000293	-0.001781	
22402	    0	9.769425	1.331756	-4.243650	-0.913624	0.032044	-0.310327	0.097708	0.012972	-0.042512	0.999988	-0.004568	0.000160	-0.001552	
22403	    0	9.734871	1.122531	-3.298793	-1.069456	0.070191	-0.253297	0.097351	0.010925	-0.033081	0.999985	-0.005347	0.000351	-0.001266	
22404	    0	9.656988	0.538065	-2.782792	-1.144034	0.079155	-0.209047	0.096564	0.005120	-0.027896	0.999983	-0.005720	0.000396	-0.001045	
22405	    0	9.772232	0.303426	-2.283810	-1.121336	0.069428	-0.201417	0.097717	0.002808	-0.022888	0.999983	-0.005607	0.000347	-0.001007	
22406	    0	9.804169	-0.090574	-1.652427	-1.031880	0.059510	-0.186349	0.098036	-0.001082	-0.016548	0.999986	-0.005159	0.000298	-0.000932	
22407	    0	9.680451	0.107255	-1.504793	-0.927547	0.048065	-0.180054	0.096802	0.000916	-0.015076	0.999989	-0.004638	0.000240	-0.000900	
22408	    0	9.496313	0.789263	-1.918244	-0.896648	0.032425	-0.152016	0.094966	0.007734	-0.019233	0.999990	-0.004483	0.000162	-0.000760	
22409	    0	9.484709	1.019484	-2.446607	-0.972752	0.044441	-0.138856	0.094849	0.010010	-0.024536	0.999988	-0.004864	0.000222	-0.000694	
22410	    0	9.801246	1.334175	-2.830284	-1.047902	0.050354	-0.173188	0.098017	0.013108	-0.028397	0.999986	-0.005239	0.000252	-0.000866	
22411	    0	10.273458	-0.511167	-1.860310	-1.058011	0.078583	-0.194551	0.102722	-0.005310	-0.018616	0.999985	-0.005290	0.000393	-0.000973	
22412	    0	9.700033	0.110170	-2.108164	-0.950436	0.020599	-0.208665	0.096999	0.000900	-0.021096	0.999988	-0.004752	0.000103	-0.001043	
22413	    0	9.660915	0.556683	-1.818047	-0.928501	-0.035668	-0.230409	0.096619	0.005371	-0.018188	0.999988	-0.004642	-0.000178	-0.001152	
22414	    0	9.525166	0.361662	-1.601761	-0.901607	-0.078392	-0.263597	0.095263	0.003419	-0.015996	0.999989	-0.004508	-0.000392	-0.001318	
22415	    0	9.259121	-0.535305	-1.465739	-0.800135	-0.103760	-0.308228	0.092590	-0.005554	-0.014587	0.999990	-0.004001	-0.000519	-0.001541	
22416	    0	8.873903	-0.400726	-1.709557	-0.636674	-0.107765	-0.378610	0.088740	-0.004230	-0.017035	0.999992	-0.003183	-0.000539	-0.001893	
22417	    0	9.311301	0.758860	-1.791241	-0.544740	-0.105858	-0.463105	0.093140	0.007324	-0.017883	0.999993	-0.002724	-0.000529	-0.002316	
22418	    0	10.062879	0.390423	-1.761835	-0.517846	-0.098992	-0.511934	0.100647	0.003601	-0.017578	0.999992	-0.002589	-0.000495	-0.002560	
22419	    0	10.555057	0.233788	-1.925190	-0.531579	-0.086594	-0.588800	0.105565	0.001976	-0.019212	0.999990	-0.002658	-0.000433	-0.002944	
22420	    0	10.463498	0.639782	-1.934739	-0.615694	-0.067330	-0.700190	0.104663	0.005972	-0.019331	0.999989	-0.003078	-0.000337	-0.003501	
22421	    0	9.796771	-0.334144	-2.434287	-0.673488	-0.078583	-0.861363	0.097961	-0.003845	-0.024292	0.999985	-0.003367	-0.000393	-0.004307	
22422	    0	9.332704	-1.892593	-2.866557	-0.582317	-0.041008	-1.082618	0.093228	-0.019514	-0.028590	0.999981	-0.002912	-0.000205	-0.005413	
22423	    0	9.294918	-2.599725	-2.697369	-0.421718	-0.003052	-1.332103	0.092773	-0.026672	-0.026917	0.999975	-0.002109	-0.000015	-0.006660	
22424	    0	9.930873	-1.918663	-2.428146	-0.228503	0.003243	-1.588648	0.099152	-0.020002	-0.024261	0.999968	-0.001143	0.000016	-0.007943	
22425	    0	10.940629	-0.912757	-2.128923	-0.111963	0.032044	-1.815058	0.109314	-0.010132	-0.021301	0.999958	-0.000560	0.000160	-0.009075	
22426	    0	12.096288	-0.622224	-1.922755	-0.044633	0.053788	-1.990733	0.120888	-0.007430	-0.019258	0.999949	-0.000223	0.000269	-0.009953	
22427	    0	13.119900	-0.170443	-1.698199	-0.025940	0.071908	-2.143901	0.131165	-0.003113	-0.017029	0.999942	-0.000130	0.000360	-0.010719	
22428	    0	13.495064	-0.100032	-1.326658	-0.048448	0.098231	-2.273990	0.134921	-0.002538	-0.013332	0.999935	-0.000242	0.000491	-0.011370	
22429	    0	13.351894	-0.605821	-1.235782	-0.041200	0.142101	-2.442230	0.133423	-0.007690	-0.012451	0.999925	-0.000206	0.000710	-0.012211	
22430	    0	13.271967	-1.542494	-1.141434	-0.002098	0.189024	-2.603605	0.132493	-0.017151	-0.011539	0.999914	-0.000010	0.000945	-0.013018	
22431	    0	13.507209	-1.105934	-1.082764	0.000000	0.235184	-2.786346	0.134888	-0.012939	-0.010986	0.999902	0.000000	0.001176	-0.013931	
22432	    0	13.986224	-0.685197	-0.863306	-0.176055	0.289546	-2.961268	0.139728	-0.008929	-0.008828	0.999888	-0.000880	0.001448	-0.014806	
22433	    0	14.813607	-1.678901	-1.349420	-0.504896	0.385300	-3.083166	0.147827	-0.019104	-0.013733	0.999876	-0.002524	0.001926	-0.015415	
22434	    0	16.440125	-2.665511	-0.825051	-1.011898	0.558690	-3.221288	0.163919	-0.029341	-0.008565	0.999853	-0.005059	0.002793	-0.016106	
22435	    0	17.484759	-4.531908	-3.924187	-1.441081	0.606570	-3.281583	0.173950	-0.048462	-0.039429	0.999834	-0.007205	0.003033	-0.016407	
22436	    0	19.320353	-5.696592	-6.344761	-1.905952	0.639577	-3.502321	0.191957	-0.060940	-0.063495	0.999796	-0.009529	0.003198	-0.017510	
22437	    0	20.904336	-9.553464	-6.377250	-2.533937	0.624328	-3.679206	0.207031	-0.100159	-0.063171	0.999745	-0.012669	0.003121	-0.018394	
22438	    0	22.627397	-15.317169	-7.326053	-2.715937	0.541356	-3.845384	0.223065	-0.158463	-0.071739	0.999719	-0.013578	0.002707	-0.019225	
22439	    0	23.915508	-14.769532	-4.626744	-2.127086	0.480697	-4.235477	0.235840	-0.153198	-0.045227	0.999716	-0.010634	0.002403	-0.021175	
22440	    0	20.034399	-7.998379	-3.438629	-1.272513	0.180452	-4.596383	0.198401	-0.084776	-0.034037	0.999715	-0.006362	0.000902	-0.022980	
22441	    0	21.351285	-6.248092	-4.164643	-0.579693	-0.012208	-4.499440	0.212036	-0.067383	-0.041443	0.999743	-0.002898	-0.000061	-0.022495	
22442	    0	18.230007	-3.389923	-5.279035	0.050167	-0.248929	-4.340704	0.181573	-0.037832	-0.052573	0.999763	0.000251	-0.001245	-0.021702	
22443	    0	18.923020	-3.417479	-5.706238	0.461606	-0.406481	-3.763808	0.188660	-0.037598	-0.056763	0.999818	0.002308	-0.002032	-0.018818	
22444	    0	15.297357	-2.552986	-3.823292	0.246632	-0.571089	-3.397920	0.152619	-0.028078	-0.037830	0.999850	0.001233	-0.002855	-0.016989	
22445	    0	14.460914	-3.527159	0.561751	-0.086025	-0.144201	-3.059507	0.144043	-0.037476	0.005737	0.999882	-0.000430	-0.000721	-0.015297	
22446	    0	12.764015	-0.222813	1.881486	-0.575851	0.051310	-3.036238	0.127592	-0.004111	0.018792	0.999880	-0.002879	0.000257	-0.015181	
22447	    0	9.395357	8.161472	-2.350118	-0.781847	-0.027467	-2.663507	0.095032	0.080261	-0.023804	0.999903	-0.003909	-0.000137	-0.013317	
22448	    0	9.568803	10.245384	-6.497945	-0.797663	-0.078393	-1.551648	0.096503	0.101447	-0.065348	0.999962	-0.003988	-0.000392	-0.007758	
22449	    0	9.431391	-3.136262	-5.794975	-1.111609	0.056649	-0.373842	0.094238	-0.031860	-0.057800	0.999982	-0.005558	0.000283	-0.001869	
22450	    0	7.152002	-6.397715	-3.545301	-1.190193	0.249483	0.229074	0.071549	-0.064105	-0.035161	0.999980	-0.005951	0.001247	0.001145	
22451	    0	4.427488	-6.811997	-0.581488	-0.785641	0.304414	0.671390	0.044495	-0.067993	-0.005615	0.999985	-0.003928	0.001522	0.003357	
22452	    0	2.578192	-6.189523	0.608520	-0.262262	0.306322	1.052099	0.026116	-0.061750	0.006126	0.999984	-0.001311	0.001532	0.005260	
22453	    0	2.119313	-4.854307	0.844047	0.180246	0.326541	1.397717	0.021545	-0.048401	0.008362	0.999973	0.000901	0.001633	0.006989	
22454	    0	2.231649	-3.130979	0.824439	0.501068	0.363737	1.797322	0.022612	-0.031128	0.008125	0.999954	0.002505	0.001819	0.008986	
22455	    0	2.313358	-1.100143	0.000890	0.648513	0.300033	2.232412	0.023254	-0.010742	-0.000061	0.999930	0.003242	0.001500	0.011162	
22456	    0	2.485809	-0.615343	-0.814220	0.560396	0.259598	2.660071	0.024926	-0.005799	-0.008191	0.999907	0.002802	0.001298	0.013300	
22457	    0	2.486151	-1.598386	-1.353774	0.515005	0.261127	3.077824	0.025085	-0.015564	-0.013611	0.999877	0.002575	0.001306	0.015388	
22458	    0	2.402813	-2.518685	-1.630432	0.611528	0.250639	3.490822	0.024442	-0.024713	-0.016411	0.999841	0.003057	0.001253	0.017453	
22459	    0	2.814925	-2.905366	-1.455978	0.803428	0.242821	3.875223	0.028687	-0.028442	-0.014709	0.999803	0.004017	0.001214	0.019375	
22460	    0	3.514844	-2.646912	-1.120253	0.976448	0.233859	4.222057	0.035683	-0.025664	-0.011371	0.999764	0.004882	0.001169	0.021109	
22461	    0	4.239147	-1.852031	-0.798195	0.962153	0.233671	4.521583	0.042786	-0.017517	-0.008118	0.999732	0.004810	0.001168	0.022606	
22462	    0	4.749970	-1.428507	-0.709915	0.891583	0.251414	4.794788	0.047814	-0.013109	-0.007219	0.999701	0.004457	0.001257	0.023972	
22463	    0	5.140943	-1.727369	-0.664947	0.804418	0.230433	5.093949	0.051819	-0.015930	-0.006775	0.999666	0.004022	0.001152	0.025467	
22464	    0	5.594429	-2.108225	-0.966107	0.800805	0.191331	5.404573	0.056477	-0.019522	-0.009795	0.999626	0.004004	0.000957	0.027020	
22465	    0	6.279035	-2.362740	-1.089675	0.853083	0.174165	5.666364	0.063416	-0.021790	-0.011047	0.999589	0.004265	0.000871	0.028328	
22466	    0	7.326265	-2.267249	-1.311854	0.923484	0.131054	5.883705	0.073877	-0.020444	-0.013265	0.999556	0.004617	0.000655	0.029414	
22467	    0	8.760196	-1.948832	-1.396258	0.976910	0.114459	6.129677	0.088135	-0.016724	-0.014099	0.999517	0.004884	0.000572	0.030643	
22468	    0	10.515105	-1.474703	-1.285788	0.963570	0.125907	6.393784	0.105541	-0.011314	-0.012984	0.999476	0.004817	0.000629	0.031963	
22469	    0	12.445546	-1.017806	-1.168238	0.909595	0.102444	6.648739	0.124695	-0.005981	-0.011780	0.999436	0.004547	0.000512	0.033237	
22470	    0	14.593564	-0.970754	-1.204327	0.898731	0.067724	6.858095	0.146149	-0.004643	-0.012121	0.999401	0.004493	0.000339	0.034284	
22471	    0	17.146721	-1.399357	-1.671709	0.989740	0.021558	7.031201	0.171814	-0.007874	-0.016785	0.999370	0.004948	0.000108	0.035149	
22472	    0	20.415960	-1.383477	-2.597869	1.151907	-0.002099	7.128929	0.204476	-0.006399	-0.026028	0.999348	0.005758	-0.000010	0.035637	
22473	    0	23.827959	-0.042182	-4.483969	1.314069	-0.054753	7.128178	0.238098	0.008362	-0.044739	0.999343	0.006569	-0.000274	0.035633	
22474	    0	26.910350	3.872072	-6.424717	1.253775	-0.136214	7.020149	0.267558	0.048532	-0.063781	0.999364	0.006268	-0.000681	0.035093	
22475	    0	27.645642	9.071817	-6.018531	0.833487	-0.064100	6.880039	0.273132	0.100403	-0.059692	0.999399	0.004167	-0.000320	0.034393	
22476	    0	26.223799	9.415837	-7.149582	0.921611	-0.226635	6.597596	0.259016	0.103066	-0.070740	0.999444	0.004607	-0.001133	0.032982	
22477	    0	26.227552	10.895153	-7.500748	1.245503	-0.480727	5.977039	0.259033	0.117188	-0.073669	0.999531	0.006227	-0.002403	0.029881	
22478	    0	24.784347	16.406376	-7.549761	1.270060	-0.707708	5.066886	0.243836	0.170747	-0.073560	0.999652	0.006350	-0.003538	0.025331	
22479	    0	20.916087	26.468932	-7.444557	0.599145	-0.865241	4.198784	0.203857	0.269226	-0.072754	0.999765	0.002995	-0.004326	0.020992	
22480	    0	16.243910	34.770752	-4.225986	-0.576810	-0.766600	3.239595	0.156943	0.350157	-0.042659	0.999857	-0.002884	-0.003833	0.016197	
22481	    0	13.931554	34.063548	-2.685617	-1.232747	-0.576795	1.854747	0.136230	0.341736	-0.028564	0.999933	-0.006164	-0.002884	0.009274	
22482	    0	13.405851	28.392742	-1.814531	-1.204499	-0.321009	0.312807	0.133645	0.284021	-0.019641	0.999979	-0.006022	-0.001605	0.001564	
22483	    0	14.420967	21.937388	-1.354347	-0.522427	-0.189973	-1.230631	0.145569	0.218445	-0.013977	0.999977	-0.002612	-0.000950	-0.006153	
22484	    0	13.243923	20.499260	-0.931221	0.275428	-0.187879	-2.505751	0.135002	0.203324	-0.008905	0.999920	0.001377	-0.000939	-0.012528	
22485	    0	14.859199	18.551679	-1.342609	0.596075	-0.242626	-3.333443	0.151672	0.183044	-0.012695	0.999855	0.002980	-0.001213	-0.016666	
22486	    0	14.617486	12.174816	-2.194651	0.488501	-0.363372	-3.756941	0.148467	0.119026	-0.021385	0.999819	0.002442	-0.001817	-0.018784	
22487	    0	12.861275	-22.118001	-1.325244	-0.320252	-0.317391	-2.391111	0.125977	-0.222717	-0.012695	0.999926	-0.001601	-0.001587	-0.011955	
22488	    0	14.299006	-36.336137	7.268271	0.162699	-0.065614	-1.879148	0.139544	-0.364742	0.072433	0.999955	0.000813	-0.000328	-0.009396	
22489	    0	15.314177	-9.013784	7.763023	0.906409	-0.074580	-3.002290	0.151733	-0.092773	0.077271	0.999877	0.004532	-0.000373	-0.015011	
22490	    0	15.878298	7.216354	1.691298	1.484779	-0.190747	-3.695160	0.160062	0.069085	0.017586	0.999801	0.007423	-0.000954	-0.018475	
22491	    0	19.977158	11.679036	-2.033752	1.491646	-0.195898	-3.694398	0.201904	0.113220	-0.019287	0.999801	0.007458	-0.000979	-0.018471	
22492	    0	18.059305	11.275560	-12.796544	1.925789	-0.907005	-3.405609	0.183066	0.110872	-0.126065	0.999798	0.009628	-0.004535	-0.017027	
22493	    0	17.001480	14.323151	-10.205713	1.565845	-0.917113	-3.522722	0.172974	0.140991	-0.100159	0.999804	0.007829	-0.004585	-0.017612	
22494	    0	15.140811	-0.440471	-1.160604	0.882192	-0.827258	-3.227012	0.151358	-0.006798	-0.011006	0.999851	0.004411	-0.004136	-0.016134	
22495	    0	9.306600	-2.530386	2.173358	1.026387	-0.937692	-2.839779	0.092590	-0.026733	0.022034	0.999874	0.005132	-0.004688	-0.014198	
22496	    0	5.245343	1.070786	1.275795	0.853189	-0.845369	-2.750118	0.052539	0.009931	0.013023	0.999887	0.004266	-0.004227	-0.013750	
22497	    0	6.904842	5.762566	-2.090442	0.496878	-0.732443	-2.452920	0.069824	0.056824	-0.020508	0.999914	0.002484	-0.003662	-0.012264	
