// Start Time: Unknown
// Update Rate: 100.0Hz
// Filter Profile: human (34.3)
// Firmware Version: 2.1.4
PacketCounter	SampleTimeFine	Acc_X	Acc_Y	Acc_Z	Gyr_X	Gyr_Y	Gyr_Z	VelInc_X	VelInc_Y	VelInc_Z	OriInc_q0	OriInc_q1	OriInc_q2	OriInc_q3	
 9879	    0	9.750024	-0.658466	-1.958382	-1.100928	0.218393	-0.168611	0.097473	-0.006775	-0.019653	0.999984	-0.005505	0.001092	-0.000843	
 9880	    0	9.815729	-0.578480	-1.846916	-0.933651	0.181962	-0.216866	0.098134	-0.005978	-0.018531	0.999988	-0.004668	0.000910	-0.001084	
 9881	    0	9.694270	-0.253293	-2.020152	-0.799372	0.150300	-0.273896	0.096924	-0.002747	-0.020264	0.999990	-0.003997	0.000751	-0.001369	
 9882	    0	9.648253	0.087167	-2.328719	-0.760462	0.126076	-0.308419	0.096469	0.000634	-0.023351	0.999990	-0.003802	0.000630	-0.001542	
 9883	    0	10.084149	0.079094	-1.738133	-0.764277	0.143433	-0.347139	0.100830	0.000549	-0.017456	0.999990	-0.003821	0.000717	-0.001736	
 9884	    0	10.042533	0.037449	-1.034107	-0.711062	0.147820	-0.427247	0.100418	0.000123	-0.010416	0.999990	-0.003555	0.000739	-0.002136	
 9885	    0	9.270247	0.704150	-1.034966	-0.759890	0.132180	-0.489809	0.092712	0.006775	-0.010437	0.999990	-0.003799	0.000661	-0.002449	
 9886	    0	9.082106	-0.508452	-1.199800	-0.815586	0.070954	-0.552752	0.090802	-0.005384	-0.012009	0.999988	-0.004078	0.000355	-0.002764	
 9887	    0	9.554848	-0.796505	-1.111110	-0.664523	0.051308	-0.625613	0.095520	-0.008301	-0.011108	0.999990	-0.003323	0.000257	-0.003128	
 9888	    0	10.163324	-0.605204	-1.006445	-0.520136	0.031662	-0.710490	0.101609	-0.006439	-0.010064	0.999990	-0.002601	0.000158	-0.003552	
 9889	    0	11.063067	-0.821117	-1.287949	-0.382043	0.027466	-0.779727	0.110596	-0.008667	-0.012878	0.999990	-0.001910	0.000137	-0.003899	
 9890	    0	11.414661	0.547205	-1.469401	-0.324632	0.035858	-0.830081	0.114165	0.004974	-0.014723	0.999990	-0.001623	0.000179	-0.004150	
 9891	    0	11.003064	1.897623	-0.903356	-0.473787	0.029945	-0.837711	0.110107	0.018494	-0.009094	0.999988	-0.002369	0.000150	-0.004189	
 9892	    0	10.580859	1.744064	-0.629244	-0.701145	0.014305	-0.847821	0.105881	0.016970	-0.006360	0.999985	-0.003506	0.000072	-0.004239	
 9893	    0	10.099941	0.365764	-0.760024	-0.794988	0.031471	-0.897985	0.101013	0.003174	-0.007629	0.999982	-0.003975	0.000157	-0.004490	
 9894	    0	9.652029	-0.773657	-1.329106	-0.741582	0.054932	-1.013953	0.096476	-0.008275	-0.013288	0.999980	-0.003708	0.000275	-0.005070	
 9895	    0	9.783319	-0.798377	-1.060689	-0.637822	0.081826	-1.203165	0.097778	-0.008606	-0.010620	0.999976	-0.003189	0.000409	-0.006016	
 9896	    0	10.364443	-1.467140	-0.750966	-0.521283	0.108720	-1.429762	0.103532	-0.015431	-0.007526	0.999970	-0.002606	0.000544	-0.007149	
 9897	    0	10.739863	-2.496226	-0.649255	-0.306705	0.144388	-1.690695	0.107178	-0.025879	-0.006531	0.999963	-0.001534	0.000722	-0.008453	
 9898	    0	11.353027	-2.765565	-0.802013	-0.056840	0.167849	-1.954682	0.113246	-0.028766	-0.008107	0.999951	-0.000284	0.000839	-0.009773	
 9899	    0	12.240410	-1.769485	-0.659124	0.190167	0.171665	-2.215622	0.122192	-0.019043	-0.006714	0.999937	0.000951	0.000858	-0.011078	
 9900	    0	12.997134	-1.095102	-0.071457	0.285346	0.181775	-2.402937	0.129827	-0.012510	-0.000850	0.999926	0.001427	0.000909	-0.012014	
 9901	    0	13.744617	-0.361056	0.568351	0.272377	0.178723	-2.551340	0.137390	-0.005371	0.005554	0.999917	0.001362	0.000894	-0.012756	
 9902	    0	14.212169	0.176103	0.425791	0.169950	0.217635	-2.681050	0.142133	-0.000148	0.004104	0.999908	0.000850	0.001088	-0.013405	
 9903	    0	14.270540	0.101655	-0.055445	-0.026513	0.249489	-2.793213	0.142700	-0.000977	-0.000732	0.999901	-0.000133	0.001247	-0.013966	
 9904	    0	13.978099	-0.944553	-0.679736	-0.301181	0.286113	-2.905568	0.139614	-0.011485	-0.006981	0.999892	-0.001506	0.001431	-0.014527	
 9905	    0	14.145928	-1.607044	-1.160294	-0.609613	0.325979	-3.034333	0.141174	-0.018250	-0.011780	0.999879	-0.003048	0.001630	-0.015171	
 9906	    0	15.344226	-3.458299	-1.262464	-1.010560	0.396365	-3.140212	0.152848	-0.037050	-0.012745	0.999862	-0.005053	0.001982	-0.015700	
 9907	    0	17.053865	-5.076025	-2.675410	-1.329683	0.460077	-3.263264	0.169617	-0.053711	-0.026794	0.999842	-0.006648	0.002300	-0.016315	
 9908	    0	18.748135	-6.143216	-4.530242	-1.586439	0.458555	-3.453656	0.186275	-0.065015	-0.045224	0.999816	-0.007932	0.002293	-0.017267	
 9909	    0	19.924649	-8.700700	-5.153705	-1.803523	0.423461	-3.629554	0.197510	-0.091064	-0.051147	0.999792	-0.009017	0.002117	-0.018147	
 9910	    0	20.797014	-10.113103	-5.792167	-1.837868	0.355366	-3.807544	0.205886	-0.105593	-0.057332	0.999775	-0.009189	0.001777	-0.019036	
 9911	    0	20.437988	-9.643924	-7.543516	-1.470297	0.123796	-4.022524	0.202332	-0.101074	-0.074829	0.999770	-0.007351	0.000619	-0.020111	
 9912	    0	21.668333	-6.381606	-6.241729	-0.738772	-0.070577	-4.180268	0.215305	-0.068556	-0.062094	0.999774	-0.003694	-0.000353	-0.020900	
 9913	    0	19.023615	-2.905630	-4.270757	0.083166	-0.253123	-4.130086	0.189636	-0.032959	-0.042480	0.999785	0.000416	-0.001266	-0.020649	
 9914	    0	17.540415	0.076594	-6.127542	-0.212873	-0.466566	-3.795474	0.175518	-0.002629	-0.060864	0.999816	-0.001064	-0.002333	-0.018976	
 9915	    0	16.609468	-2.301082	-4.789137	-0.343912	-0.658449	-3.358625	0.165833	-0.025879	-0.047302	0.999851	-0.001719	-0.003292	-0.016792	
 9916	    0	14.578434	-1.343769	-3.368996	-0.456448	-0.643566	-3.074584	0.145661	-0.015754	-0.033187	0.999873	-0.002282	-0.003218	-0.015372	
 9917	    0	13.879540	-1.802539	1.896080	-0.804743	-0.182350	-2.988554	0.138489	-0.020020	0.019165	0.999880	-0.004024	-0.000912	-0.014942	
 9918	    0	11.314960	3.470261	-2.153952	-1.259283	-0.220499	-2.861712	0.113653	0.032943	-0.021626	0.999877	-0.006296	-0.001102	-0.014308	
 9919	    0	10.659932	8.979838	-3.741937	-1.363410	-0.227934	-2.166808	0.107605	0.088379	-0.037903	0.999917	-0.006817	-0.001140	-0.010834	
 9920	    0	11.153915	3.638686	-7.469592	-1.723322	-0.227360	-1.200698	0.111837	0.035071	-0.074875	0.999944	-0.008616	-0.001137	-0.006003	
 9921	    0	10.135214	-6.158917	-5.183977	-2.104799	-0.077058	-0.369270	0.101257	-0.062317	-0.051147	0.999943	-0.010524	-0.000385	-0.001846	
 9922	    0	6.469749	-7.463997	-2.434176	-1.861790	0.066949	0.061608	0.064713	-0.074842	-0.023667	0.999956	-0.009309	0.000335	0.000308	
 9923	    0	3.755235	-7.278088	-0.006359	-1.227578	0.087929	0.460056	0.037720	-0.072693	0.000366	0.999978	-0.006138	0.000440	0.002300	
 9924	    0	2.391878	-6.288096	0.698440	-0.497629	0.130845	0.815395	0.024179	-0.062765	0.007125	0.999988	-0.002488	0.000654	0.004077	
 9925	    0	2.308451	-4.786238	0.968991	0.098420	0.196267	1.182563	0.023376	-0.047729	0.009644	0.999982	0.000492	0.000981	0.005913	
 9926	    0	2.789778	-3.025090	0.714192	0.474172	0.203707	1.529329	0.028135	-0.030053	0.007042	0.999967	0.002371	0.001019	0.007647	
 9927	    0	3.051040	-1.987821	0.217033	0.694287	0.174907	1.914248	0.030701	-0.019592	0.002075	0.999948	0.003471	0.000875	0.009571	
 9928	    0	2.980319	-1.643493	-0.671299	0.830671	0.111010	2.274187	0.029984	-0.016067	-0.006797	0.999927	0.004153	0.000555	0.011371	
 9929	    0	2.861360	-2.022235	-1.380535	0.975259	0.093845	2.635280	0.028870	-0.019775	-0.013916	0.999901	0.004876	0.000469	0.013176	
 9930	    0	2.953094	-2.671148	-1.664688	1.130725	0.104146	2.994475	0.029917	-0.026171	-0.016811	0.999871	0.005653	0.000521	0.014972	
 9931	    0	3.305775	-3.124401	-1.478649	1.359824	0.112158	3.376194	0.033569	-0.030579	-0.015015	0.999834	0.006799	0.000561	0.016880	
 9932	    0	3.880223	-3.098831	-1.034756	1.508814	0.131044	3.721487	0.039362	-0.030180	-0.010603	0.999798	0.007544	0.000655	0.018606	
 9933	    0	4.486020	-2.515488	-0.924347	1.547553	0.121317	4.037790	0.045349	-0.024170	-0.009460	0.999765	0.007737	0.000607	0.020187	
 9934	    0	4.868276	-1.919473	-1.165494	1.534787	0.111399	4.307741	0.049073	-0.018050	-0.011824	0.999738	0.007673	0.000557	0.021537	
 9935	    0	5.321354	-1.490119	-1.714937	1.485777	0.073249	4.579605	0.053528	-0.013550	-0.017273	0.999710	0.007428	0.000366	0.022896	
 9936	    0	5.910488	-1.711295	-2.110911	1.459470	0.024798	4.883532	0.059494	-0.015509	-0.021234	0.999675	0.007297	0.000124	0.024415	
 9937	    0	6.712139	-2.077192	-2.238068	1.483524	-0.009919	5.174117	0.067627	-0.018860	-0.022522	0.999638	0.007417	-0.000050	0.025867	
 9938	    0	7.579158	-2.130048	-2.170964	1.519404	-0.022700	5.420828	0.076331	-0.019071	-0.021852	0.999603	0.007596	-0.000113	0.027101	
 9939	    0	8.652067	-1.768084	-2.040616	1.520182	-0.045020	5.641977	0.086975	-0.015076	-0.020508	0.999573	0.007600	-0.000225	0.028206	
 9940	    0	9.967452	-1.443967	-1.821932	1.465640	-0.041205	5.874387	0.100042	-0.011371	-0.018290	0.999541	0.007327	-0.000206	0.029367	
 9941	    0	11.635836	-0.747591	-1.873032	1.339178	-0.044830	6.123592	0.116516	-0.003784	-0.018738	0.999509	0.006695	-0.000224	0.030613	
 9942	    0	13.523123	-0.420218	-2.060014	1.192684	-0.057231	6.379484	0.135277	0.000236	-0.020569	0.999473	0.005962	-0.000286	0.031892	
 9943	    0	15.612240	-0.530604	-2.274960	1.080526	-0.069250	6.637298	0.156189	0.000000	-0.022705	0.999434	0.005402	-0.000346	0.033180	
 9944	    0	17.902120	-0.614457	-3.096102	1.042954	-0.088137	6.811536	0.179102	0.000116	-0.030892	0.999406	0.005214	-0.000441	0.034051	
 9945	    0	20.244186	-0.439247	-4.364008	1.113544	-0.118280	6.872421	0.202454	0.002808	-0.043518	0.999393	0.005567	-0.000591	0.034355	
 9946	    0	22.551319	1.010055	-6.257428	1.198057	-0.246861	6.858496	0.225059	0.018198	-0.062203	0.999393	0.005989	-0.001234	0.034286	
 9947	    0	25.005960	5.464410	-7.786579	0.876026	-0.412640	6.777752	0.248169	0.063416	-0.077087	0.999413	0.004379	-0.002063	0.033882	
 9948	    0	25.563037	11.495774	-4.225601	-0.232930	-0.142314	6.594710	0.251687	0.123252	-0.042216	0.999455	-0.001164	-0.000711	0.032968	
 9949	    0	24.739811	8.941371	-4.602786	-0.284432	-0.314383	6.270869	0.244507	0.097046	-0.045776	0.999506	-0.001422	-0.001572	0.031349	
 9950	    0	25.307631	10.704141	-4.824417	0.164626	-0.578193	5.570377	0.250102	0.114075	-0.047426	0.999607	0.000823	-0.002891	0.027848	
 9951	    0	23.292468	16.911178	-3.590736	0.437395	-0.695101	4.610865	0.229065	0.174500	-0.034729	0.999725	0.002187	-0.003475	0.023052	
 9952	    0	19.720190	26.825329	-3.098286	0.154314	-0.704997	3.685214	0.192322	0.271851	-0.030090	0.999824	0.000772	-0.003525	0.018425	
 9953	    0	15.459597	32.350669	-2.361564	-0.547236	-0.619145	2.646722	0.150372	0.325450	-0.024035	0.999903	-0.002736	-0.003096	0.013233	
 9954	    0	13.382873	30.709263	-2.255664	-0.963795	-0.487333	1.297966	0.131889	0.307840	-0.023716	0.999964	-0.004819	-0.002437	0.006490	
 9955	    0	13.335226	26.862041	-0.787390	-0.883296	-0.314332	-0.133515	0.133545	0.268494	-0.008850	0.999989	-0.004416	-0.001572	-0.000668	
 9956	    0	14.096252	23.177329	0.549239	-0.349239	-0.228121	-1.465430	0.142650	0.230742	0.005251	0.999970	-0.001746	-0.001141	-0.007327	
 9957	    0	17.363449	18.962041	0.548021	0.244338	-0.309762	-2.551340	0.176025	0.187378	0.005981	0.999916	0.001222	-0.001549	-0.012756	
 9958	    0	14.110193	17.325330	0.444686	0.620492	-0.361079	-3.413373	0.144022	0.170796	0.005238	0.999847	0.003102	-0.001805	-0.017066	
 9959	    0	13.964590	3.009970	-4.293108	0.275624	-0.414295	-3.244164	0.140199	0.027887	-0.042602	0.999865	0.001378	-0.002071	-0.016220	
 9960	    0	15.896653	-24.240112	2.991898	-0.128940	-0.036431	-2.266742	0.156200	-0.244163	0.030105	0.999935	-0.000645	-0.000182	-0.011333	
 9961	    0	17.058364	-20.095147	7.518484	0.422871	0.058748	-2.603988	0.167969	-0.203308	0.074707	0.999912	0.002114	0.000294	-0.013020	
 9962	    0	17.399441	-2.034751	6.570506	1.127875	-0.002861	-3.377902	0.173613	-0.023652	0.065580	0.999840	0.005639	-0.000014	-0.016889	
 9963	    0	17.741172	6.727057	1.018422	1.502524	-0.078588	-3.825648	0.178650	0.063782	0.010742	0.999788	0.007512	-0.000393	-0.019127	
 9964	    0	16.780446	6.592436	-5.641992	1.583013	-0.432997	-3.630115	0.169090	0.063305	-0.055547	0.999801	0.007915	-0.002165	-0.018149	
 9965	    0	14.102308	8.735953	-11.910756	2.337834	-0.932196	-3.590681	0.143127	0.086182	-0.117432	0.999759	0.011688	-0.004661	-0.017952	
 9966	    0	13.067960	8.347261	-9.581861	2.083174	-0.862378	-3.631678	0.132587	0.082065	-0.094390	0.999771	0.010415	-0.004312	-0.018157	
 9967	    0	10.153275	0.706074	-1.620369	1.500974	-0.688972	-3.199941	0.101685	0.005554	-0.015808	0.999838	0.007504	-0.003445	-0.015999	
 9968	    0	5.106346	1.068147	0.906133	1.459186	-0.789868	-2.784851	0.051168	0.009902	0.009337	0.999868	0.007296	-0.003949	-0.013924	
 9969	    0	4.092877	4.278157	-0.856404	1.159709	-0.673508	-2.577300	0.041504	0.042297	-0.008179	0.999894	0.005798	-0.003367	-0.012886	
 9970	    0	8.246847	7.585522	-2.449748	0.539983	-0.388918	-2.306421	0.083384	0.074963	-0.024133	0.999928	0.002700	-0.001945	-0.011532	
 9971	    0	10.098698	6.856946	-1.030443	-0.130274	-0.186923	-1.845577	0.101624	0.067627	-0.010254	0.999956	-0.000651	-0.000935	-0.009228	
 9972	    0	10.942967	4.225059	0.218221	-0.372509	-0.223162	-1.454940	0.109731	0.041457	0.002227	0.999970	-0.001863	-0.001116	-0.007275	
 9973	    0	11.969285	2.246704	0.711244	-0.372126	-0.218202	-1.153572	0.119812	0.021790	0.007202	0.999981	-0.001861	-0.001091	-0.005768	
 9974	    0	13.119007	1.091750	0.055383	-0.311090	-0.192452	-0.941662	0.131239	0.010301	0.000664	0.999987	-0.001555	-0.000962	-0.004708	
 9975	    0	13.254503	0.267857	-1.072104	-0.287629	-0.249291	-0.887302	0.132568	0.002075	-0.010559	0.999988	-0.001438	-0.001246	-0.004436	
 9976	    0	11.966121	-0.739461	-1.847176	-0.270463	-0.323678	-0.837138	0.119658	-0.007920	-0.018268	0.999989	-0.001352	-0.001618	-0.004186	
 9977	    0	10.402470	0.262902	-2.054119	-0.216485	-0.303651	-0.787356	0.104065	0.002197	-0.020386	0.999990	-0.001082	-0.001518	-0.003937	
 9978	    0	9.912354	0.449914	-1.762507	-0.245286	-0.251389	-0.733187	0.099161	0.004114	-0.017506	0.999991	-0.001226	-0.001257	-0.003666	
 9979	    0	9.984759	-0.142096	-1.794859	-0.214386	-0.127220	-0.660707	0.099854	-0.001770	-0.017883	0.999993	-0.001072	-0.000636	-0.003304	
 9980	    0	10.548735	0.816478	-2.081685	-0.259018	-0.032234	-0.600434	0.105515	0.007821	-0.020810	0.999994	-0.001295	-0.000161	-0.003002	
 9981	    0	10.341608	1.558302	-3.085145	-0.420953	0.000000	-0.501252	0.103455	0.015259	-0.030884	0.999994	-0.002105	0.000000	-0.002506	
 9982	    0	9.863311	1.948597	-4.609283	-0.685503	0.056076	-0.418855	0.098660	0.019121	-0.046186	0.999991	-0.003428	0.000280	-0.002094	
 9983	    0	9.328086	1.588480	-5.062840	-0.954251	0.167847	-0.299836	0.093262	0.015503	-0.050781	0.999987	-0.004771	0.000839	-0.001499	
 9984	    0	9.020201	0.762518	-4.821134	-1.115805	0.255014	-0.205041	0.090148	0.007263	-0.048368	0.999983	-0.005579	0.001275	-0.001025	
 9985	    0	9.026664	0.167770	-3.812452	-1.099974	0.302126	-0.141145	0.090210	0.001404	-0.038269	0.999983	-0.005500	0.001511	-0.000706	
 9986	    0	9.622198	-0.173509	-3.360521	-0.954632	0.279046	-0.079346	0.096174	-0.001934	-0.033731	0.999987	-0.004773	0.001395	-0.000397	
 9987	    0	10.274921	0.258054	-2.287420	-0.785067	0.245858	-0.095368	0.102722	0.002441	-0.023010	0.999991	-0.003925	0.001229	-0.000477	
 9988	    0	10.295149	0.901293	-1.655991	-0.770380	0.219727	-0.100899	0.102938	0.008897	-0.016707	0.999991	-0.003852	0.001099	-0.000504	
 9989	    0	10.010889	0.835130	-1.580129	-0.851443	0.187111	-0.087738	0.100098	0.008240	-0.015930	0.999990	-0.004257	0.000936	-0.000439	
 9990	    0	10.536696	0.680866	-1.080182	-0.897601	0.160599	-0.081826	0.105361	0.006717	-0.010917	0.999990	-0.004488	0.000803	-0.000409	
 9991	    0	10.833479	0.349032	0.045147	-0.823786	0.131226	-0.136567	0.108337	0.003418	0.000366	0.999990	-0.004119	0.000656	-0.000683	
 9992	    0	10.270165	0.893773	0.084188	-0.822451	0.095558	-0.152779	0.102709	0.008862	0.000756	0.999990	-0.004112	0.000478	-0.000764	
 9993	    0	9.606277	0.479319	0.455816	-0.904659	0.041962	-0.237275	0.096069	0.004700	0.004517	0.999989	-0.004523	0.000210	-0.001186	
 9994	    0	9.227121	0.351476	0.167075	-0.921634	0.000763	-0.313188	0.092277	0.003378	0.001655	0.999988	-0.004608	0.000004	-0.001566	
 9995	    0	9.413675	-0.981227	-0.071613	-0.842098	-0.006104	-0.413515	0.094116	-0.010010	-0.000671	0.999989	-0.004210	-0.000031	-0.002068	
 9996	    0	9.590558	-2.089771	-0.581812	-0.584985	-0.032044	-0.518228	0.095852	-0.021163	-0.005741	0.999991	-0.002925	-0.000160	-0.002591	
 9997	    0	10.335273	-0.671952	-1.114622	-0.316430	-0.051880	-0.663759	0.103333	-0.007080	-0.011108	0.999992	-0.001582	-0.000259	-0.003319	
 9998	    0	10.787898	0.837591	-1.184375	-0.278474	-0.079346	-0.748636	0.107914	0.007956	-0.011812	0.999991	-0.001392	-0.000397	-0.003743	
 9999	    0	10.848270	0.852078	-1.271822	-0.366975	-0.070000	-0.812533	0.108521	0.008057	-0.012695	0.999990	-0.001835	-0.000350	-0.004063	
10000	    0	10.588452	1.032486	-1.255164	-0.503924	-0.046349	-0.897221	0.105932	0.009818	-0.012552	0.999987	-0.002520	-0.000232	-0.004486	
10001	    0	10.052398	-0.006006	-1.418325	-0.622562	-0.043297	-1.007086	0.100525	-0.000610	-0.014160	0.999982	-0.003113	-0.000216	-0.005035	
10002	    0	9.688735	-1.271604	-1.574380	-0.580410	-0.028801	-1.178750	0.096812	-0.013332	-0.015692	0.999977	-0.002902	-0.000144	-0.005894	
10003	    0	9.593792	-2.438356	-1.677103	-0.446133	0.016785	-1.387036	0.095764	-0.025085	-0.016724	0.999973	-0.002231	0.000084	-0.006935	
10004	    0	9.998319	-1.820112	-1.789702	-0.237468	0.040055	-1.648922	0.099825	-0.019046	-0.017895	0.999965	-0.001187	0.000200	-0.008245	
10005	    0	10.763515	-1.460237	-1.979907	-0.102998	0.084115	-1.882963	0.107483	-0.015625	-0.019836	0.999955	-0.000515	0.000421	-0.009415	
10006	    0	11.759933	-1.748597	-2.133124	0.037194	0.123408	-2.084579	0.117395	-0.018706	-0.021407	0.999945	0.000186	0.000617	-0.010423	
10007	    0	12.647320	-0.913244	-1.923948	0.135043	0.161174	-2.278187	0.126343	-0.010559	-0.019348	0.999934	0.000675	0.000806	-0.011391	
10008	    0	12.974302	0.047601	-1.529130	0.082209	0.187688	-2.432884	0.129722	-0.001096	-0.015413	0.999925	0.000411	0.000938	-0.012164	
10009	    0	13.157463	-0.128714	-1.083607	-0.034333	0.229079	-2.587200	0.131531	-0.002991	-0.010986	0.999915	-0.000172	0.001145	-0.012936	
10010	    0	13.326698	-0.907242	-1.301034	-0.144963	0.280008	-2.729883	0.133108	-0.010900	-0.013189	0.999906	-0.000725	0.001400	-0.013649	
10011	    0	13.794057	-1.374225	-1.842377	-0.279246	0.309192	-2.872568	0.137695	-0.015747	-0.018616	0.999894	-0.001396	0.001546	-0.014362	
10012	    0	14.262851	-1.341796	-2.334800	-0.494977	0.316632	-3.020978	0.142366	-0.015628	-0.023537	0.999881	-0.002475	0.001583	-0.015104	
10013	    0	14.744595	-2.153856	-2.891674	-0.842132	0.317397	-3.161000	0.147034	-0.023987	-0.029053	0.999865	-0.004210	0.001587	-0.015804	
10014	    0	15.552327	-3.612825	-3.092018	-1.314995	0.331515	-3.277187	0.154850	-0.038873	-0.030928	0.999843	-0.006575	0.001657	-0.016385	
10015	    0	16.669236	-5.602100	-3.533046	-1.792827	0.344107	-3.381556	0.165649	-0.059143	-0.035095	0.999815	-0.008964	0.001720	-0.016907	
10016	    0	18.481838	-6.791849	-4.705740	-2.106246	0.331330	-3.560703	0.183487	-0.071686	-0.046620	0.999784	-0.010530	0.001657	-0.017802	
10017	    0	20.888599	-9.868862	-4.621554	-2.214989	0.308443	-3.751671	0.206909	-0.103088	-0.045410	0.999761	-0.011074	0.001542	-0.018757	
10018	    0	20.986910	-11.019033	-5.931138	-2.067353	0.198380	-3.907904	0.207597	-0.114868	-0.058347	0.999755	-0.010336	0.000992	-0.019538	
10019	    0	20.328671	-9.539761	-7.551588	-1.549462	-0.045017	-4.078998	0.201294	-0.100098	-0.074707	0.999762	-0.007747	-0.000225	-0.020393	
10020	    0	21.594767	-5.285764	-3.581485	-0.576444	-0.102432	-4.180074	0.214797	-0.057458	-0.035543	0.999777	-0.002882	-0.000512	-0.020899	
10021	    0	17.868974	1.930733	-5.086215	-0.380734	-0.398856	-4.143063	0.179138	0.015503	-0.050537	0.999782	-0.001904	-0.001994	-0.020714	
10022	    0	18.740435	-0.831534	-5.073376	-0.630034	-0.549539	-3.650688	0.187347	-0.011894	-0.050185	0.999825	-0.003150	-0.002748	-0.018252	
10023	    0	16.076416	-1.645318	-3.886589	-1.023154	-0.626214	-3.283096	0.160583	-0.019287	-0.038269	0.999846	-0.005116	-0.003131	-0.016415	
10024	    0	15.085300	-3.622375	-0.594298	-1.152088	-0.370995	-2.975592	0.150302	-0.038495	-0.005446	0.999870	-0.005760	-0.001855	-0.014877	
10025	    0	13.211464	-2.195003	0.650137	-1.352558	-0.177009	-2.879455	0.131775	-0.023804	0.006775	0.999872	-0.006763	-0.000885	-0.014397	
10026	    0	9.811901	5.351274	-1.851929	-1.738815	-0.270092	-2.706645	0.098855	0.052015	-0.018843	0.999869	-0.008694	-0.001350	-0.013533	
10027	    0	9.928727	11.379840	-5.566397	-1.769882	-0.408948	-1.990569	0.100525	0.112305	-0.056458	0.999908	-0.008849	-0.002045	-0.009953	
10028	    0	10.694486	-0.328555	-6.768794	-1.768714	-0.283055	-0.907913	0.107022	-0.004369	-0.067501	0.999949	-0.008843	-0.001415	-0.004539	
10029	    0	8.690862	-6.676150	-4.227328	-1.651020	-0.075341	-0.212863	0.086853	-0.067200	-0.041687	0.999965	-0.008255	-0.000377	-0.001064	
10030	    0	6.190977	-7.117681	-1.076778	-1.084715	-0.006294	0.175668	0.061973	-0.071179	-0.010380	0.999985	-0.005424	-0.000031	0.000878	
10031	    0	3.410915	-6.407497	0.522418	-0.233269	-0.065613	0.607301	0.034302	-0.063965	0.005310	0.999994	-0.001166	-0.000328	0.003036	
10032	    0	2.338446	-5.598707	1.309544	0.456240	-0.066567	0.986104	0.023656	-0.055901	0.012976	0.999985	0.002281	-0.000333	0.004930	
10033	    0	2.296340	-3.464393	1.351028	0.852403	-0.032807	1.342788	0.023193	-0.034546	0.013367	0.999968	0.004262	-0.000164	0.006714	
10034	    0	2.488848	-1.476274	0.561495	1.055736	-0.071145	1.754219	0.025015	-0.014573	0.005547	0.999947	0.005279	-0.000356	0.008771	
10035	    0	2.387819	-0.975171	-0.527568	1.099423	-0.151638	2.188928	0.023987	-0.009460	-0.005310	0.999925	0.005497	-0.000758	0.010944	
10036	    0	2.418395	-1.670662	-1.346199	1.142922	-0.176054	2.595989	0.024409	-0.016314	-0.013535	0.999899	0.005714	-0.000880	0.012980	
10037	    0	2.447430	-1.969619	-1.712105	1.195005	-0.202188	2.977881	0.024780	-0.019226	-0.017212	0.999870	0.005975	-0.001011	0.014889	
10038	    0	2.775050	-2.373744	-1.742710	1.296876	-0.206958	3.344907	0.028159	-0.023155	-0.017550	0.999838	0.006484	-0.001035	0.016724	
10039	    0	3.406305	-2.263177	-1.140812	1.455022	-0.195898	3.706605	0.034485	-0.021912	-0.011536	0.999801	0.007275	-0.000979	0.018532	
10040	    0	4.051693	-1.815614	-0.816620	1.495667	-0.162137	4.026914	0.040877	-0.017274	-0.008265	0.999768	0.007478	-0.000811	0.020133	
10041	    0	4.607771	-1.752458	-0.503974	1.429302	-0.142682	4.354477	0.046448	-0.016479	-0.005127	0.999737	0.007146	-0.000713	0.021770	
10042	    0	5.153877	-1.778772	-0.379743	1.341379	-0.107585	4.659728	0.051936	-0.016555	-0.003883	0.999705	0.006706	-0.000538	0.023296	
10043	    0	5.579282	-1.783949	-0.560161	1.242963	-0.108158	4.942857	0.056213	-0.016418	-0.005676	0.999675	0.006214	-0.000541	0.024712	
10044	    0	6.103697	-2.170886	-0.719390	1.177928	-0.101483	5.211115	0.061578	-0.020066	-0.007284	0.999642	0.005889	-0.000507	0.026052	
10045	    0	6.788937	-2.493815	-0.910993	1.176607	-0.095952	5.484728	0.068542	-0.023010	-0.009216	0.999606	0.005882	-0.000480	0.027420	
10046	    0	7.977308	-2.464474	-0.840317	1.178145	-0.073634	5.705114	0.080435	-0.022306	-0.008510	0.999576	0.005890	-0.000368	0.028522	
10047	    0	9.387340	-2.035099	-0.735499	1.183690	-0.038153	5.920546	0.094421	-0.017517	-0.007446	0.999544	0.005918	-0.000191	0.029598	
10048	    0	10.955194	-1.201480	-0.701137	1.194194	-0.017360	6.120720	0.109851	-0.008614	-0.007060	0.999514	0.005970	-0.000087	0.030599	
10049	    0	12.640326	-0.272527	-0.872976	1.150713	-0.002862	6.356391	0.126404	0.001343	-0.008728	0.999478	0.005753	-0.000014	0.031776	
10050	    0	14.497746	-0.527426	-1.034915	1.136421	0.010492	6.609057	0.145044	-0.000422	-0.010368	0.999437	0.005681	0.000052	0.033039	
10051	    0	16.761829	-1.244053	-1.481853	1.259100	0.023847	6.785404	0.167908	-0.006653	-0.014893	0.999404	0.006294	0.000119	0.033920	
10052	    0	19.371925	-1.191930	-2.862336	1.517225	0.007631	6.844205	0.193970	-0.005066	-0.028687	0.999385	0.007585	0.000038	0.034214	
10053	    0	21.907462	0.309219	-5.019374	1.785840	0.006486	6.826482	0.218787	0.011012	-0.050126	0.999376	0.008927	0.000032	0.034125	
10054	    0	24.482495	2.510919	-7.598365	1.965930	-0.078790	6.771346	0.243801	0.034121	-0.075582	0.999378	0.009828	-0.000394	0.033850	
10055	    0	26.724558	7.713667	-8.981960	1.594087	-0.078407	6.599931	0.264526	0.086609	-0.089050	0.999423	0.007969	-0.000392	0.032993	
10056	    0	25.877893	9.731777	-9.213520	1.190965	-0.150707	6.354295	0.255571	0.106018	-0.091328	0.999476	0.005954	-0.000753	0.031766	
10057	    0	25.553399	10.820968	-9.142510	1.192649	-0.424829	5.790032	0.252441	0.116089	-0.090210	0.999560	0.005962	-0.002124	0.028946	
10058	    0	23.705357	16.253748	-8.008600	1.197374	-0.754439	4.923596	0.233247	0.168783	-0.078203	0.999672	0.005986	-0.003772	0.024615	
10059	    0	19.882858	24.994776	-6.456850	0.618978	-0.878205	3.969854	0.194092	0.254028	-0.062927	0.999788	0.003095	-0.004391	0.019848	
10060	    0	15.916434	31.833418	-3.677679	-0.485058	-0.711851	2.957270	0.154567	0.320553	-0.036997	0.999881	-0.002425	-0.003559	0.014786	
10061	    0	13.534425	29.594818	-3.895762	-1.020641	-0.555430	1.781497	0.132812	0.296936	-0.040100	0.999943	-0.005103	-0.002777	0.008907	
10062	    0	13.150223	25.410321	-3.598030	-0.967603	-0.333597	0.409128	0.131043	0.254194	-0.036991	0.999985	-0.004838	-0.001668	0.002046	
10063	    0	13.784321	22.259447	-1.801620	-0.446322	-0.290491	-0.997167	0.138977	0.221863	-0.018311	0.999984	-0.002232	-0.001452	-0.004986	
10064	    0	15.481530	20.237305	-0.600889	0.028420	-0.395210	-2.145047	0.156985	0.200698	-0.005672	0.999940	0.000142	-0.001976	-0.010725	
10065	    0	13.159201	17.739761	0.293557	0.223741	-0.428026	-3.058746	0.134277	0.175354	0.003418	0.999880	0.001119	-0.002140	-0.015293	
10066	    0	13.828434	8.459299	-2.635556	0.210390	-0.398845	-3.305398	0.139709	0.082319	-0.025990	0.999861	0.001052	-0.001994	-0.016526	
10067	    0	15.518262	-15.540421	0.217603	-0.263221	-0.076868	-2.531501	0.153198	-0.157349	0.002441	0.999919	-0.001316	-0.000384	-0.012657	
10068	    0	17.713649	-23.747653	7.583754	-0.006104	0.086023	-2.329688	0.174387	-0.239516	0.075769	0.999931	-0.000031	0.000430	-0.011648	
10069	    0	17.547860	-4.925285	6.468292	0.724251	-0.019074	-3.084693	0.174683	-0.052185	0.064514	0.999874	0.003621	-0.000095	-0.015423	
10070	    0	18.085399	7.537283	0.307376	1.001228	-0.123794	-3.663856	0.182192	0.072026	0.003552	0.999819	0.005006	-0.000619	-0.018318	
10071	    0	18.291813	7.083377	-5.432291	1.071422	-0.397515	-3.603578	0.184265	0.067810	-0.053589	0.999821	0.005357	-0.001987	-0.018017	
10072	    0	16.450953	8.281123	-11.352822	1.894706	-1.004864	-3.566046	0.166529	0.080919	-0.111922	0.999784	0.009473	-0.005024	-0.017829	
10073	    0	14.288109	7.730452	-8.233961	1.509390	-0.903383	-3.697463	0.144653	0.075256	-0.081116	0.999790	0.007546	-0.004517	-0.018486	
10074	    0	11.450354	1.039001	0.583735	0.898027	-0.654636	-3.365311	0.114636	0.008434	0.006253	0.999843	0.004490	-0.003273	-0.016826	
10075	    0	7.004824	0.115038	3.334393	0.982899	-0.639371	-2.991614	0.069946	-0.000061	0.033569	0.999870	0.004914	-0.003197	-0.014957	
10076	    0	5.919641	2.661408	2.034989	0.873027	-0.509282	-2.853884	0.059515	0.025677	0.020615	0.999885	0.004365	-0.002546	-0.014269	
10077	    0	7.908828	5.370934	-0.792362	0.632495	-0.471319	-2.512432	0.079773	0.052734	-0.007568	0.999913	0.003162	-0.002357	-0.012562	
10078	    0	8.006605	5.648792	-3.047450	0.170329	-0.383575	-2.047385	0.080697	0.055690	-0.030272	0.999945	0.000852	-0.001918	-0.010237	
10079	    0	8.498197	3.083786	-2.067050	0.032044	-0.370602	-1.619739	0.085266	0.030151	-0.020508	0.999965	0.000160	-0.001853	-0.008099	
10080	    0	10.176182	2.244820	-1.993457	0.053215	-0.381473	-1.303301	0.101943	0.021790	-0.019734	0.999976	0.000266	-0.001907	-0.006516	
10081	    0	12.461970	2.266289	-1.488229	-0.153352	-0.206567	-1.088720	0.124756	0.021973	-0.014771	0.999984	-0.000767	-0.001033	-0.005444	
10082	    0	13.241663	1.241571	-1.089825	-0.213433	-0.234796	-0.951389	0.132486	0.011774	-0.010756	0.999987	-0.001067	-0.001174	-0.004757	
10083	    0	12.418547	-0.066318	-1.775924	-0.208092	-0.289918	-0.868228	0.124207	-0.001221	-0.017578	0.999989	-0.001040	-0.001450	-0.004341	
10084	    0	10.491970	0.117015	-2.622132	-0.155449	-0.306703	-0.817302	0.104963	0.000721	-0.026061	0.999990	-0.000777	-0.001534	-0.004086	
10085	    0	9.955611	0.778200	-2.505630	-0.244141	-0.205041	-0.735476	0.099609	0.007385	-0.024963	0.999991	-0.001221	-0.001025	-0.003677	
10086	    0	10.051487	0.138946	-2.394009	-0.313187	-0.109864	-0.617982	0.100532	0.001041	-0.023887	0.999993	-0.001566	-0.000549	-0.003090	
10087	    0	10.409950	0.911248	-2.080719	-0.371361	-0.020599	-0.547029	0.104126	0.008789	-0.020813	0.999994	-0.001857	-0.000103	-0.002735	
10088	    0	10.503402	1.672589	-2.517848	-0.518991	0.019074	-0.466157	0.105070	0.016416	-0.025231	0.999993	-0.002595	0.000095	-0.002331	
10089	    0	10.221314	1.692536	-3.579693	-0.714113	0.062752	-0.382997	0.102234	0.016602	-0.035889	0.999991	-0.003571	0.000314	-0.001915	
10090	    0	9.784115	1.140204	-4.239547	-0.950054	0.158883	-0.298883	0.097824	0.011054	-0.042526	0.999987	-0.004750	0.000794	-0.001494	
10091	    0	9.404201	0.625052	-4.349123	-1.081854	0.247384	-0.200654	0.093994	0.005920	-0.043640	0.999984	-0.005409	0.001237	-0.001003	
10092	    0	9.298224	0.545284	-4.099561	-1.154525	0.291826	-0.143433	0.092926	0.005149	-0.041162	0.999982	-0.005773	0.001459	-0.000717	
10093	    0	9.594175	-0.060232	-3.862480	-1.142127	0.285532	-0.064850	0.095886	-0.000854	-0.038757	0.999982	-0.005711	0.001428	-0.000324	
10094	    0	9.784974	0.499091	-3.290251	-1.111800	0.257303	-0.064278	0.097809	0.004776	-0.033055	0.999983	-0.005559	0.001287	-0.000321	
10095	    0	10.457411	0.648416	-1.783508	-1.156623	0.255014	-0.062561	0.104553	0.006348	-0.018005	0.999982	-0.005783	0.001275	-0.000313	
10096	    0	10.892856	0.072508	0.483059	-1.058965	0.270273	-0.116540	0.108935	0.000687	0.004680	0.999985	-0.005295	0.001351	-0.000583	
10097	    0	10.747400	0.613594	0.598797	-0.957493	0.184823	-0.112915	0.107483	0.006104	0.005859	0.999988	-0.004787	0.000924	-0.000565	
10098	    0	10.172869	0.078596	0.624212	-0.892452	0.125313	-0.168992	0.101733	0.000728	0.006175	0.999989	-0.004462	0.000627	-0.000845	
10099	    0	9.539417	0.221118	0.613592	-0.810053	0.049591	-0.209046	0.095398	0.002136	0.006104	0.999990	-0.004050	0.000248	-0.001045	
10100	    0	9.337546	0.149911	0.416418	-0.757410	0.028229	-0.284768	0.093378	0.001382	0.004146	0.999991	-0.003787	0.000141	-0.001424	
10101	    0	9.070697	-0.421087	-0.020679	-0.662042	-0.020599	-0.403596	0.090698	-0.004395	-0.000183	0.999992	-0.003310	-0.000103	-0.002018	
10102	    0	9.376032	-1.171878	-1.406848	-0.530244	-0.042343	-0.480081	0.093735	-0.011981	-0.014017	0.999993	-0.002651	-0.000212	-0.002400	
10103	    0	9.925476	-0.626025	-2.981866	-0.405885	-0.041008	-0.546266	0.099243	-0.006592	-0.029785	0.999993	-0.002029	-0.000205	-0.002731	
10104	    0	10.263628	0.836987	-3.132975	-0.370217	-0.043488	-0.584604	0.102667	0.008012	-0.031322	0.999993	-0.001851	-0.000217	-0.002923	
10105	    0	10.212868	1.068984	-2.974425	-0.443078	-0.084686	-0.605012	0.102173	0.010315	-0.029724	0.999992	-0.002215	-0.000423	-0.003025	
10106	    0	9.979835	0.970290	-2.301586	-0.544168	-0.093270	-0.658419	0.099840	0.009312	-0.022995	0.999990	-0.002721	-0.000466	-0.003292	
10107	    0	9.665557	1.465175	-1.932464	-0.623705	-0.089455	-0.746158	0.096718	0.014231	-0.019326	0.999988	-0.003119	-0.000447	-0.003731	
10108	    0	9.212646	-0.169661	-1.626687	-0.714878	-0.067330	-0.886350	0.092123	-0.002163	-0.016229	0.999983	-0.003574	-0.000337	-0.004432	
10109	    0	8.935324	-2.203191	-1.827880	-0.651364	-0.038910	-1.101692	0.089233	-0.022583	-0.018188	0.999979	-0.003257	-0.000195	-0.005508	
10110	    0	8.994059	-2.901526	-2.355819	-0.478558	-0.001335	-1.364148	0.089740	-0.029684	-0.023487	0.999973	-0.002393	-0.000007	-0.006821	
10111	    0	9.854271	-2.516504	-2.723415	-0.286678	0.049592	-1.619739	0.098328	-0.026001	-0.027222	0.999966	-0.001433	0.000248	-0.008099	
10112	    0	11.011655	-1.475012	-2.492125	-0.152209	0.087549	-1.854160	0.109962	-0.015789	-0.024958	0.999956	-0.000761	0.000438	-0.009271	
10113	    0	12.226974	-1.150829	-2.049549	-0.044251	0.124552	-2.035558	0.122131	-0.012756	-0.020569	0.999948	-0.000221	0.000623	-0.010178	
10114	    0	12.757355	-0.125826	-1.452554	0.022507	0.138476	-2.180715	0.127540	-0.002647	-0.014614	0.999940	0.000113	0.000692	-0.010903	
10115	    0	12.698260	-0.098022	-0.905811	-0.019646	0.153354	-2.300313	0.126953	-0.002441	-0.009155	0.999933	-0.000098	0.000767	-0.011501	
10116	    0	12.629549	-0.656521	-0.340369	-0.028039	0.205617	-2.407514	0.126201	-0.008085	-0.003532	0.999927	-0.000140	0.001028	-0.012037	
10117	    0	12.644169	-0.632214	-0.331167	-0.015259	0.265701	-2.551339	0.126343	-0.007935	-0.003479	0.999917	-0.000076	0.001328	-0.012756	
10118	    0	12.890399	-0.254778	-0.927268	-0.083926	0.333796	-2.685438	0.128839	-0.004282	-0.009486	0.999907	-0.000420	0.001669	-0.013427	
10119	    0	13.112837	-0.282923	-1.514341	-0.272951	0.370801	-2.822209	0.131042	-0.004700	-0.015381	0.999897	-0.001365	0.001854	-0.014111	
10120	    0	13.338528	-0.601869	-2.125599	-0.571272	0.408569	-2.921787	0.133234	-0.008027	-0.021507	0.999887	-0.002856	0.002043	-0.014608	
10121	    0	13.864399	-0.916470	-2.527798	-1.097728	0.423450	-3.045790	0.138428	-0.011414	-0.025513	0.999866	-0.005488	0.002117	-0.015228	
10122	    0	15.310245	-3.571623	-3.117658	-1.677794	0.494411	-3.132416	0.152438	-0.038369	-0.031240	0.999839	-0.008389	0.002472	-0.015661	
10123	    0	17.711773	-4.484974	-4.946157	-2.086584	0.531040	-3.300690	0.176208	-0.048279	-0.049438	0.999805	-0.010432	0.002655	-0.016502	
10124	    0	19.112508	-7.613630	-6.072530	-2.434153	0.458562	-3.490905	0.189610	-0.080190	-0.060202	0.999770	-0.012170	0.002293	-0.017453	
10125	    0	20.173278	-11.546772	-6.164899	-2.367591	0.299287	-3.679952	0.199463	-0.119873	-0.060547	0.999759	-0.011837	0.001496	-0.018398	
10126	    0	21.273628	-12.054925	-4.298830	-1.663525	0.204293	-3.928292	0.210266	-0.125049	-0.042176	0.999771	-0.008317	0.001021	-0.019640	
10127	    0	19.874095	-6.826461	-4.494240	-0.808014	-0.038722	-4.172067	0.197266	-0.072571	-0.044617	0.999774	-0.004040	-0.000194	-0.020859	
10128	    0	21.304825	-2.650633	-2.859692	-0.038150	-0.194754	-4.141150	0.212466	-0.030915	-0.028384	0.999784	-0.000191	-0.000974	-0.020704	
10129	    0	18.459246	2.193191	-5.080372	-0.008202	-0.553168	-3.979760	0.185120	0.018250	-0.050293	0.999798	-0.000041	-0.002766	-0.019897	
10130	    0	18.064957	-0.789316	-5.238219	-0.379392	-0.711288	-3.465072	0.180660	-0.011122	-0.051721	0.999842	-0.001897	-0.003556	-0.017324	
10131	    0	16.012908	-0.913069	-3.805822	-0.902410	-0.742375	-3.173216	0.160095	-0.011841	-0.037415	0.999857	-0.004512	-0.003712	-0.015865	
10132	    0	14.857058	-3.065874	-0.673897	-0.997393	-0.297558	-2.930569	0.148109	-0.032864	-0.006358	0.999879	-0.004987	-0.001488	-0.014652	
10133	    0	13.041352	-0.971860	0.596646	-1.213888	-0.108151	-2.938967	0.130249	-0.011597	0.006104	0.999873	-0.006069	-0.000541	-0.014694	
10134	    0	10.845082	5.077755	-2.333248	-1.452692	-0.074389	-2.635674	0.109115	0.049171	-0.023653	0.999887	-0.007263	-0.000372	-0.013178	
10135	    0	10.659684	10.329098	-5.300207	-1.319724	-0.165562	-1.882976	0.107605	0.101929	-0.053589	0.999933	-0.006598	-0.000828	-0.009415	
10136	    0	11.937619	0.911060	-5.911064	-1.551649	0.029374	-0.929464	0.119407	0.008097	-0.059194	0.999959	-0.007758	0.000147	-0.004647	
10137	    0	9.066381	-4.953071	-3.724438	-1.509872	0.127603	-0.257113	0.090576	-0.049927	-0.036926	0.999970	-0.007549	0.000638	-0.001286	
10138	    0	5.740108	-5.967426	-2.050070	-1.103026	0.245096	0.181199	0.057430	-0.059734	-0.020242	0.999983	-0.005515	0.001225	0.000906	
10139	    0	3.589585	-5.967057	-0.453579	-0.448610	0.296975	0.612642	0.036072	-0.059570	-0.004456	0.999991	-0.002243	0.001485	0.003063	
10140	    0	2.669752	-5.567989	0.573972	0.225068	0.354196	1.002126	0.026986	-0.055552	0.005630	0.999985	0.001125	0.001771	0.005011	
10141	    0	2.406061	-4.101896	1.020424	0.719459	0.389294	1.332869	0.024353	-0.040894	0.010010	0.999969	0.003597	0.001946	0.006664	
10142	    0	2.384880	-2.097893	0.936841	1.031511	0.386435	1.671438	0.024041	-0.020826	0.009214	0.999949	0.005157	0.001932	0.008357	
10143	    0	2.121771	-0.795170	0.258626	1.191167	0.350197	2.024126	0.021301	-0.007751	0.002502	0.999929	0.005956	0.001751	0.010120	
10144	    0	2.014135	-0.366497	-0.832184	1.163708	0.337992	2.365373	0.020168	-0.003378	-0.008376	0.999911	0.005818	0.001690	0.011827	
10145	    0	2.054865	-0.849918	-1.743293	1.162000	0.351919	2.716928	0.020630	-0.008118	-0.017517	0.999888	0.005810	0.001760	0.013584	
10146	    0	2.232471	-1.540456	-2.281516	1.203783	0.359933	3.060862	0.022514	-0.014923	-0.022946	0.999863	0.006019	0.001800	0.015304	
10147	    0	2.867107	-2.150552	-2.030953	1.355820	0.383208	3.412822	0.028992	-0.020874	-0.020508	0.999829	0.006779	0.001916	0.017063	
10148	    0	3.515346	-1.686059	-1.588582	1.467994	0.387027	3.715574	0.035426	-0.016087	-0.016074	0.999798	0.007339	0.001935	0.018577	
10149	    0	4.068588	-0.934469	-1.463010	1.429857	0.382452	4.004210	0.040833	-0.008423	-0.014771	0.999772	0.007149	0.001912	0.020020	
10150	    0	4.459962	-1.307940	-1.409568	1.295200	0.368913	4.321849	0.044841	-0.012020	-0.014258	0.999743	0.006475	0.001844	0.021607	
10151	    0	4.748456	-2.298469	-1.455723	1.156155	0.355564	4.643695	0.047974	-0.021790	-0.014771	0.999712	0.005780	0.001778	0.023216	
10152	    0	5.193869	-2.905478	-1.543095	1.134230	0.342787	4.916715	0.052604	-0.027678	-0.015680	0.999680	0.005671	0.001714	0.024581	
10153	    0	5.881221	-2.689724	-1.770012	1.172011	0.313795	5.145100	0.059448	-0.025269	-0.017944	0.999650	0.005859	0.001569	0.025723	
10154	    0	7.125277	-2.118985	-2.052928	1.194531	0.291098	5.332849	0.071752	-0.019157	-0.020752	0.999625	0.005972	0.001455	0.026661	
10155	    0	8.452108	-1.640570	-2.274827	1.159252	0.272406	5.560289	0.084900	-0.013916	-0.022949	0.999596	0.005795	0.001362	0.027798	
10156	    0	9.802740	-1.562622	-2.286861	1.111955	0.227007	5.789452	0.098396	-0.012653	-0.023056	0.999564	0.005559	0.001135	0.028943	
10157	    0	11.252046	-1.613865	-2.062663	1.091364	0.196869	6.012899	0.112915	-0.012634	-0.020813	0.999533	0.005456	0.000984	0.030060	
10158	    0	12.975762	-1.494189	-1.886090	1.142883	0.134872	6.212886	0.130123	-0.010795	-0.019018	0.999500	0.005713	0.000674	0.031059	
10159	    0	15.055325	-1.563364	-1.926682	1.242286	0.087181	6.407540	0.150940	-0.010681	-0.019409	0.999467	0.006210	0.000436	0.032032	
10160	    0	17.630722	-1.534151	-2.488359	1.375074	0.054751	6.552203	0.176673	-0.009385	-0.025010	0.999439	0.006874	0.000274	0.032755	
10161	    0	20.253758	-1.143794	-3.490091	1.468369	0.022130	6.635799	0.202759	-0.004456	-0.034973	0.999422	0.007340	0.000111	0.033173	
10162	    0	22.595350	0.123867	-5.305488	1.528085	-0.061429	6.671491	0.225752	0.009177	-0.052936	0.999413	0.007639	-0.000307	0.033351	
10163	    0	24.524604	2.263224	-7.691218	1.557654	-0.224348	6.655655	0.244385	0.031372	-0.076416	0.999414	0.007787	-0.001122	0.033272	
10164	    0	25.419186	5.711251	-10.303106	1.447759	-0.538737	6.542102	0.252402	0.066130	-0.101892	0.999434	0.007237	-0.002693	0.032704	
10165	    0	26.283325	12.296786	-7.140232	0.518121	-0.440861	6.251030	0.258972	0.131287	-0.070496	0.999505	0.002590	-0.002204	0.031250	
10166	    0	24.873306	11.170837	-4.108179	0.262488	-0.562366	5.793246	0.245472	0.118904	-0.040236	0.999576	0.001312	-0.002811	0.028962	
10167	    0	23.902849	13.031212	-2.743574	0.539647	-0.750813	4.987870	0.235779	0.136292	-0.026184	0.999678	0.002698	-0.003754	0.024937	
10168	    0	21.588437	20.140716	-2.339815	0.453791	-0.782450	4.038908	0.211846	0.205764	-0.022100	0.999785	0.002269	-0.003912	0.020193	
10169	    0	18.140255	29.813530	-0.909298	-0.179108	-0.573755	3.113686	0.176758	0.300903	-0.008850	0.999874	-0.000896	-0.002869	0.015568	
10170	    0	14.760240	31.591461	-2.241399	-0.783364	-0.403794	2.014964	0.144457	0.317290	-0.023361	0.999939	-0.003917	-0.002019	0.010075	
10171	    0	12.757670	28.028950	-2.981038	-1.157960	-0.193788	0.640111	0.126709	0.280518	-0.031311	0.999977	-0.005790	-0.000969	0.003201	
10172	    0	13.359373	22.652856	-1.660915	-1.036460	-0.090600	-0.766378	0.134468	0.225924	-0.017720	0.999979	-0.005182	-0.000453	-0.003832	
10173	    0	13.857722	19.680259	0.290864	-0.583468	-0.061799	-1.966892	0.140503	0.195435	0.002380	0.999947	-0.002917	-0.000309	-0.009834	
10174	    0	15.750648	17.040675	0.631804	-0.236710	-0.156599	-2.881723	0.159935	0.168121	0.006243	0.999895	-0.001184	-0.000783	-0.014408	
10175	    0	14.478526	14.277712	-0.363968	-0.115209	-0.163849	-3.354803	0.147156	0.140320	-0.003601	0.999858	-0.000576	-0.000819	-0.016773	
10176	    0	13.477619	-1.883988	-3.202248	-0.752666	-0.123791	-2.814202	0.134512	-0.020854	-0.031863	0.999893	-0.003763	-0.000619	-0.014071	
10177	    0	16.116895	-18.548661	2.075982	-1.232942	0.150494	-2.150019	0.159180	-0.187073	0.021790	0.999923	-0.006165	0.000752	-0.010750	
10178	    0	16.713171	-13.088308	3.361284	-0.846888	0.146489	-2.514150	0.165495	-0.132827	0.034051	0.999911	-0.004234	0.000732	-0.012570	
10179	    0	16.694791	-1.851620	1.979359	0.010109	0.020600	-3.193037	0.166626	-0.021179	0.019775	0.999872	0.000051	0.000103	-0.015965	
10180	    0	17.085864	4.190298	-1.462653	0.834894	-0.030519	-3.597655	0.171578	0.038881	-0.014434	0.999829	0.004174	-0.000153	-0.017987	
10181	    0	15.718627	2.932951	-8.379510	1.619057	-0.401903	-3.454039	0.157837	0.027283	-0.083252	0.999816	0.008095	-0.002009	-0.017269	
10182	    0	13.069669	8.214666	-9.350873	2.321419	-0.711876	-3.504065	0.132451	0.080911	-0.092095	0.999772	0.011606	-0.003559	-0.017519	
10183	    0	11.926554	5.937721	-4.884082	1.609898	-0.459889	-3.378496	0.120361	0.057739	-0.048096	0.999822	0.008049	-0.002299	-0.016891	
10184	    0	8.490330	1.336743	-0.891580	1.564670	-0.454351	-2.887286	0.085105	0.012208	-0.008624	0.999862	0.007823	-0.002272	-0.014436	
10185	    0	5.485641	1.622434	-2.138579	1.609103	-0.508710	-2.576548	0.055115	0.015686	-0.021118	0.999881	0.008045	-0.002543	-0.012882	
10186	    0	6.476657	4.078712	-2.257470	1.166759	-0.393497	-2.311391	0.065277	0.040165	-0.022211	0.999914	0.005834	-0.001967	-0.011557	
10187	    0	8.788049	5.406828	-2.531746	0.577746	-0.313574	-1.942478	0.088440	0.053284	-0.025024	0.999947	0.002889	-0.001568	-0.009712	
10188	    0	10.099706	6.726757	-1.513899	-0.168611	-0.181391	-1.539055	0.101524	0.066475	-0.015103	0.999969	-0.000843	-0.000907	-0.007695	
10189	    0	11.175716	4.311080	0.547158	-0.636868	-0.172426	-1.157388	0.112000	0.042480	0.005432	0.999977	-0.003184	-0.000862	-0.005787	
10190	    0	12.218844	2.158845	0.868611	-0.701717	-0.156213	-0.891118	0.122276	0.021074	0.008707	0.999983	-0.003509	-0.000781	-0.004456	
10191	    0	12.869352	0.907139	0.544493	-0.611117	-0.116539	-0.749210	0.128723	0.008606	0.005493	0.999988	-0.003056	-0.000583	-0.003746	
10192	    0	12.723674	-0.382962	-0.475140	-0.479127	-0.169182	-0.672533	0.127227	-0.004269	-0.004634	0.999990	-0.002396	-0.000846	-0.003363	
10193	    0	11.750485	-0.737715	-0.961023	-0.378228	-0.230408	-0.606538	0.117493	-0.007751	-0.009460	0.999992	-0.001891	-0.001152	-0.003033	
10194	    0	10.774229	0.780609	-1.247244	-0.340653	-0.217438	-0.575448	0.107778	0.007475	-0.012368	0.999993	-0.001703	-0.001087	-0.002877	
10195	    0	10.356308	0.374793	-0.635738	-0.396538	-0.150299	-0.495149	0.103577	0.003479	-0.006287	0.999994	-0.001983	-0.000751	-0.002476	
10196	    0	10.287707	-0.679128	-0.891860	-0.309372	-0.110436	-0.427247	0.102867	-0.007025	-0.008851	0.999996	-0.001547	-0.000552	-0.002136	
10197	    0	10.594203	0.471038	-1.705420	-0.305748	-0.061035	-0.431824	0.105957	0.004456	-0.017029	0.999996	-0.001529	-0.000305	-0.002159	
10198	    0	10.463259	1.243082	-3.389784	-0.525475	-0.053215	-0.363160	0.104664	0.012152	-0.033902	0.999994	-0.002627	-0.000266	-0.001816	
10199	    0	9.977152	1.693597	-4.514968	-0.898555	0.004578	-0.263215	0.099792	0.016602	-0.045227	0.999989	-0.004493	0.000023	-0.001316	
10200	    0	9.318040	1.169701	-4.372816	-1.331721	0.081444	-0.182916	0.093173	0.011320	-0.043842	0.999977	-0.006659	0.000407	-0.000915	
10201	    0	8.944207	0.395239	-3.676771	-1.576059	0.152589	-0.136568	0.089417	0.003601	-0.036865	0.999968	-0.007880	0.000763	-0.000683	
10202	    0	9.168379	-0.471419	-2.498655	-1.574914	0.174906	-0.135805	0.091659	-0.004973	-0.025028	0.999968	-0.007874	0.000875	-0.000679	
10203	    0	9.718414	-1.140000	-2.169961	-1.328860	0.091553	-0.108338	0.097168	-0.011597	-0.021667	0.999977	-0.006644	0.000458	-0.000542	
10204	    0	10.368154	-0.926719	-2.306735	-1.134116	0.058937	-0.139046	0.103668	-0.009470	-0.023045	0.999983	-0.005671	0.000295	-0.000695	
10205	    0	10.504756	-0.571263	-2.114561	-1.037602	0.005531	-0.186921	0.105042	-0.005920	-0.021118	0.999986	-0.005188	0.000028	-0.000935	
10206	    0	11.007756	-0.917046	-0.950763	-0.908092	0.049782	-0.230218	0.110065	-0.009340	-0.009493	0.999989	-0.004540	0.000249	-0.001151	
10207	    0	9.918154	0.054149	-0.884826	-0.686456	0.000763	-0.292206	0.099182	0.000366	-0.008850	0.999992	-0.003432	0.000004	-0.001461	
10208	    0	9.282241	0.228210	-0.892016	-0.615503	-0.062561	-0.329209	0.092829	0.002102	-0.008898	0.999993	-0.003078	-0.000313	-0.001646	
10209	    0	8.610763	0.416223	-0.949539	-0.543977	-0.106621	-0.392915	0.086121	0.003967	-0.009460	0.999993	-0.002720	-0.000533	-0.001965	
10210	    0	8.333516	0.395799	-0.999156	-0.584604	-0.106621	-0.459291	0.083349	0.003737	-0.009958	0.999992	-0.002923	-0.000533	-0.002296	
10211	    0	8.246646	-0.499503	-1.165309	-0.527765	-0.103760	-0.541688	0.082458	-0.005249	-0.011597	0.999992	-0.002639	-0.000519	-0.002708	
10212	    0	8.998944	-1.184865	-1.633279	-0.415231	-0.078201	-0.670626	0.089955	-0.012184	-0.016273	0.999991	-0.002076	-0.000391	-0.003353	
10213	    0	9.797410	-0.494542	-2.250475	-0.246239	-0.076294	-0.812533	0.097961	-0.005371	-0.022461	0.999990	-0.001231	-0.000381	-0.004063	
10214	    0	9.987743	0.177023	-2.012983	-0.158120	-0.074196	-0.934795	0.099892	0.001287	-0.020094	0.999989	-0.000791	-0.000371	-0.004674	
10215	    0	9.791944	-0.429699	-1.639248	-0.146485	-0.064659	-1.047521	0.097900	-0.004822	-0.016357	0.999986	-0.000732	-0.000323	-0.005238	
10216	    0	9.655774	-1.124631	-1.848353	-0.140000	-0.047112	-1.207168	0.096492	-0.011842	-0.018453	0.999981	-0.000700	-0.000236	-0.006036	
10217	    0	9.655066	-0.749432	-1.935963	-0.159265	-0.010681	-1.386272	0.096497	-0.008179	-0.019348	0.999975	-0.000796	-0.000053	-0.006931	
10218	    0	10.083272	-1.883892	-1.830697	-0.190928	0.009728	-1.544396	0.100682	-0.019634	-0.018293	0.999969	-0.000955	0.000049	-0.007722	
10219	    0	10.985763	-1.259813	-1.616276	-0.080110	0.030709	-1.721976	0.109741	-0.013550	-0.016174	0.999963	-0.000401	0.000154	-0.008610	
10220	    0	11.903891	-0.572770	-1.343303	-0.039864	0.046159	-1.886968	0.118975	-0.006853	-0.013459	0.999955	-0.000199	0.000231	-0.009435	
10221	    0	12.836393	-0.541536	-1.203741	-0.013542	0.074769	-2.022587	0.128296	-0.006714	-0.012085	0.999949	-0.000068	0.000374	-0.010113	
10222	    0	13.156342	-0.844277	-0.979349	0.015641	0.088503	-2.148097	0.131458	-0.009854	-0.009852	0.999942	0.000078	0.000443	-0.010740	
10223	    0	13.095772	-0.728758	-0.603318	0.082590	0.102236	-2.298024	0.130859	-0.008789	-0.006104	0.999933	0.000413	0.000511	-0.011490	
10224	    0	12.927438	-0.271671	-0.362072	0.130084	0.132564	-2.451005	0.129226	-0.004298	-0.003709	0.999924	0.000650	0.000663	-0.012255	
10225	    0	12.982866	-0.373970	-0.432514	0.105289	0.197035	-2.611617	0.129761	-0.005432	-0.004456	0.999913	0.000526	0.000985	-0.013058	
10226	    0	13.260597	-0.533099	-0.615943	0.039865	0.243195	-2.776427	0.132507	-0.007170	-0.006322	0.999903	0.000199	0.001216	-0.013882	
10227	    0	13.671666	-0.555410	-1.231121	-0.160986	0.302326	-2.933609	0.136597	-0.007568	-0.012512	0.999890	-0.000805	0.001512	-0.014668	
10228	    0	14.466143	-0.561428	-1.942578	-0.473614	0.348678	-3.070575	0.144518	-0.007880	-0.019661	0.999877	-0.002368	0.001743	-0.015352	
10229	    0	15.707635	-1.583597	-2.693062	-1.004839	0.406094	-3.215181	0.156738	-0.018494	-0.027161	0.999856	-0.005024	0.002030	-0.016075	
10230	    0	17.641999	-3.908157	-3.354926	-1.673032	0.472096	-3.289794	0.175663	-0.042256	-0.033620	0.999826	-0.008365	0.002360	-0.016448	
10231	    0	19.236591	-5.415145	-5.103845	-2.182921	0.441200	-3.418969	0.191284	-0.057983	-0.050842	0.999791	-0.010914	0.002206	-0.017094	
10232	    0	20.057429	-9.352319	-6.318998	-2.535075	0.367195	-3.637423	0.198705	-0.097942	-0.062333	0.999752	-0.012674	0.001836	-0.018186	
10233	    0	20.903458	-13.697650	-6.292951	-2.561228	0.257897	-3.876082	0.206238	-0.141785	-0.061401	0.999729	-0.012805	0.001289	-0.019379	
10234	    0	19.690957	-11.964041	-5.672363	-2.133755	0.063711	-4.161070	0.194338	-0.124298	-0.055476	0.999726	-0.010668	0.000319	-0.020803	
10235	    0	19.887650	-8.200001	-6.479945	-1.633408	-0.140393	-4.317095	0.197083	-0.086792	-0.063965	0.999733	-0.008166	-0.000702	-0.021584	
10236	    0	21.672990	-3.680016	-2.717994	-0.686700	-0.208490	-4.318964	0.215895	-0.041561	-0.026817	0.999760	-0.003433	-0.001042	-0.021593	
10237	    0	17.467182	1.525591	-4.369815	-0.567478	-0.526467	-4.112544	0.175049	0.011536	-0.043274	0.999781	-0.002837	-0.002632	-0.020561	
10238	    0	18.316892	-1.091326	-4.332031	-0.783584	-0.696222	-3.555501	0.183084	-0.014337	-0.042631	0.999827	-0.003918	-0.003481	-0.017776	
10239	    0	15.343373	-1.644171	-3.295664	-1.373172	-0.709571	-3.181623	0.153259	-0.019104	-0.032288	0.999844	-0.006866	-0.003548	-0.015907	
10240	    0	14.617747	-2.959146	-0.133160	-1.467197	-0.296606	-2.872593	0.145734	-0.031694	-0.000888	0.999868	-0.007336	-0.001483	-0.014362	
10241	    0	13.286575	-2.071183	-1.060828	-1.678541	-0.163848	-2.781037	0.132568	-0.022644	-0.010315	0.999867	-0.008392	-0.000819	-0.013905	
10242	    0	9.951859	4.657919	-2.583766	-1.943481	-0.221453	-2.544894	0.100127	0.045054	-0.026170	0.999870	-0.009717	-0.001107	-0.012724	
10243	    0	8.543053	10.478822	-6.534462	-1.878411	-0.366794	-1.801352	0.086487	0.103394	-0.066162	0.999913	-0.009392	-0.001834	-0.009007	
10244	    0	10.057809	1.161919	-5.366785	-2.028696	-0.109675	-0.751319	0.100649	0.010696	-0.053724	0.999941	-0.010143	-0.000548	-0.003757	
10245	    0	8.011124	-4.114696	-2.546549	-2.046812	0.107576	-0.094606	0.080078	-0.041443	-0.025085	0.999947	-0.010234	0.000538	-0.000473	
10246	    0	5.335523	-6.101721	-0.318869	-1.528947	0.207522	0.369648	0.053465	-0.060941	-0.002778	0.999969	-0.007645	0.001038	0.001848	
10247	    0	2.784011	-5.872953	0.738815	-0.709346	0.198365	0.779728	0.028076	-0.058594	0.007568	0.999985	-0.003547	0.000992	0.003899	
10248	    0	1.760773	-5.415171	1.123687	0.102616	0.231363	1.136786	0.017928	-0.054056	0.011189	0.999983	0.000513	0.001157	0.005684	
10249	    0	1.801452	-3.823531	1.279341	0.713547	0.251773	1.467149	0.018311	-0.038147	0.012634	0.999966	0.003568	0.001259	0.007336	
10250	    0	2.052964	-1.857432	0.866531	1.112196	0.179866	1.816593	0.020705	-0.018435	0.008544	0.999943	0.005561	0.000899	0.009083	
10251	    0	2.131960	-0.978084	-0.358704	1.326025	0.106242	2.199615	0.021423	-0.009521	-0.003662	0.999917	0.006630	0.000531	0.010998	
10252	    0	2.057021	-1.323398	-1.185926	1.396801	0.068667	2.550406	0.020732	-0.012887	-0.011957	0.999894	0.006984	0.000343	0.012752	
10253	    0	2.050831	-2.156364	-1.807562	1.580883	0.055888	2.913036	0.020813	-0.021118	-0.018250	0.999862	0.007904	0.000279	0.014565	
10254	    0	2.182313	-2.463767	-1.953447	1.775270	0.057033	3.241342	0.022211	-0.024105	-0.019756	0.999828	0.008876	0.000285	0.016206	
10255	    0	2.768844	-2.238867	-1.594737	1.986261	0.064091	3.579962	0.028076	-0.021729	-0.016174	0.999790	0.009931	0.000320	0.017899	
10256	    0	3.440196	-1.731917	-1.425334	2.038739	0.066190	3.899698	0.034724	-0.016498	-0.014436	0.999758	0.010193	0.000331	0.019497	
10257	    0	4.090782	-1.465693	-1.236506	1.926594	0.059705	4.208750	0.041199	-0.013672	-0.012512	0.999732	0.009632	0.000299	0.021042	
10258	    0	4.574059	-1.468558	-1.192636	1.745778	0.061804	4.540700	0.046053	-0.013537	-0.012062	0.999703	0.008728	0.000309	0.022701	
10259	    0	4.953711	-1.467483	-1.354678	1.584223	0.063331	4.823821	0.049866	-0.013367	-0.013672	0.999678	0.007920	0.000317	0.024117	
10260	    0	5.387262	-1.766899	-1.736068	1.489623	0.034718	5.089021	0.054294	-0.016161	-0.017494	0.999648	0.007447	0.000174	0.025442	
10261	    0	6.299954	-2.142385	-1.827417	1.450534	0.037580	5.360338	0.063538	-0.019592	-0.018433	0.999614	0.007252	0.000188	0.026798	
10262	    0	7.427743	-1.849107	-1.941777	1.391411	0.017550	5.573848	0.074750	-0.016276	-0.019543	0.999587	0.006956	0.000088	0.027865	
10263	    0	8.684177	-1.697735	-1.796184	1.330189	0.007631	5.770191	0.087280	-0.014343	-0.018066	0.999561	0.006650	0.000038	0.028847	
10264	    0	10.180354	-1.740230	-1.573645	1.276596	0.001335	5.974745	0.102261	-0.014251	-0.015835	0.999533	0.006382	0.000007	0.029869	
10265	    0	12.155015	-1.539844	-1.525190	1.247804	-0.019840	6.184650	0.121948	-0.011536	-0.015320	0.999502	0.006238	-0.000099	0.030918	
10266	    0	14.352692	-0.998719	-1.470372	1.203178	-0.021557	6.407919	0.143748	-0.005295	-0.014729	0.999468	0.006015	-0.000108	0.032034	
10267	    0	16.784611	-0.744890	-1.787175	1.155500	-0.011446	6.639593	0.167969	-0.001770	-0.017883	0.999432	0.005776	-0.000057	0.033192	
10268	    0	19.578199	-0.452842	-2.677623	1.097514	0.022511	6.793600	0.195779	0.002270	-0.026798	0.999408	0.005486	0.000113	0.033961	
10269	    0	22.357093	-0.011715	-4.096111	1.076917	0.019077	6.899137	0.223389	0.007812	-0.040955	0.999390	0.005383	0.000095	0.034489	
10270	    0	24.744908	0.763249	-5.987132	1.016633	-0.054371	6.920127	0.246997	0.016489	-0.059735	0.999388	0.005082	-0.000272	0.034594	
10271	    0	25.903264	2.290129	-7.803259	0.858669	-0.209850	6.863247	0.258118	0.032104	-0.077637	0.999401	0.004292	-0.001049	0.034309	
10272	    0	26.106610	5.828785	-9.336983	0.419123	-0.469296	6.680979	0.259139	0.067162	-0.092626	0.999436	0.002095	-0.002346	0.033399	
10273	    0	25.367451	10.253013	-5.403304	-0.526326	-0.384586	6.332704	0.250366	0.110352	-0.053833	0.999493	-0.002631	-0.001923	0.031658	
10274	    0	24.077577	10.277740	-4.691071	-0.692849	-0.663853	5.808906	0.237814	0.109552	-0.046490	0.999566	-0.003464	-0.003319	0.029040	
10275	    0	22.770079	16.286287	-3.007261	-1.024556	-0.851539	5.109999	0.223572	0.168457	-0.029968	0.999651	-0.005122	-0.004257	0.025547	
10276	    0	19.526251	24.713895	1.707493	-1.735071	-0.644929	4.098665	0.190090	0.251209	0.015526	0.999746	-0.008675	-0.003224	0.020492	
10277	    0	16.388222	30.239424	1.575876	-1.929570	-0.444625	2.832172	0.159546	0.304810	0.013184	0.999850	-0.009647	-0.002223	0.014160	
10278	    0	14.750040	29.184001	-0.937987	-1.816407	-0.168804	1.342421	0.145547	0.292721	-0.011912	0.999935	-0.009082	-0.000844	0.006712	
10279	    0	14.552161	22.271635	-1.230656	-1.152808	-0.053978	-0.313570	0.145874	0.222412	-0.013550	0.999982	-0.005764	-0.000270	-0.001568	
10280	    0	13.019682	18.427826	-0.651451	-0.278095	-0.118448	-1.750969	0.131807	0.183120	-0.006692	0.999960	-0.001390	-0.000592	-0.008755	
10281	    0	12.199155	16.651028	0.057690	0.161748	-0.134091	-2.678761	0.124207	0.164856	0.000793	0.999909	0.000809	-0.000670	-0.013393	
10282	    0	16.874344	11.403453	0.682002	0.430697	-0.187691	-3.120552	0.170488	0.111368	0.007221	0.999875	0.002153	-0.000938	-0.015602	
10283	    0	15.398159	7.418124	3.135250	0.891352	-0.160989	-3.475376	0.155212	0.071350	0.031799	0.999838	0.004457	-0.000805	-0.017376	
10284	    0	13.819951	-0.539183	-1.971623	1.141796	-0.393124	-3.247614	0.138127	-0.007524	-0.019484	0.999849	0.005709	-0.001966	-0.016237	
10285	    0	14.469415	-14.757672	0.075949	0.939209	-0.224121	-2.621164	0.142743	-0.149458	0.000221	0.999902	0.004696	-0.001121	-0.013105	
10286	    0	15.386011	-12.116677	2.830194	1.084368	-0.073436	-2.792463	0.152137	-0.123450	0.027693	0.999887	0.005422	-0.000367	-0.013962	
10287	    0	16.105870	-2.900202	2.810666	1.164490	0.042727	-3.125908	0.160583	-0.031677	0.027893	0.999861	0.005822	0.000214	-0.015629	
10288	    0	16.193282	1.906240	1.689069	1.308320	0.078968	-3.317818	0.162225	0.016262	0.016939	0.999841	0.006541	0.000395	-0.016588	
10289	    0	16.695618	5.778678	0.002695	1.301647	0.029184	-3.405187	0.167908	0.054932	0.000366	0.999833	0.006508	0.000146	-0.017025	
10290	    0	14.173058	3.745831	-5.246592	1.657202	-0.363944	-3.351218	0.142431	0.035507	-0.051908	0.999824	0.008286	-0.001820	-0.016755	
10291	    0	11.672838	4.963816	-9.242663	2.298336	-0.737055	-3.484605	0.117920	0.048645	-0.091431	0.999775	0.011491	-0.003685	-0.017422	
10292	    0	9.415393	1.139068	-7.662368	1.860542	-0.594176	-3.304494	0.094560	0.010541	-0.076242	0.999815	0.009302	-0.002971	-0.016521	
10293	    0	6.421032	0.804598	-2.617951	1.545214	-0.563075	-2.868783	0.064392	0.007324	-0.025940	0.999863	0.007726	-0.002815	-0.014343	
10294	    0	4.729540	3.857591	-3.055808	1.294183	-0.658250	-2.552887	0.047884	0.038163	-0.030153	0.999891	0.006471	-0.003291	-0.012764	
10295	    0	6.882355	3.874687	-3.036509	0.735492	-0.563635	-2.231652	0.069336	0.038086	-0.030029	0.999927	0.003677	-0.002818	-0.011158	
10296	    0	8.776632	4.178262	-0.932701	0.250439	-0.409323	-1.857405	0.088168	0.040977	-0.009095	0.999953	0.001252	-0.002047	-0.009287	
10297	    0	11.034388	7.162655	1.964704	-0.138666	-0.210574	-1.626605	0.110901	0.070740	0.019714	0.999966	-0.000693	-0.001053	-0.008133	
10298	    0	12.825682	6.120674	1.548843	-0.229647	-0.215532	-1.335155	0.128645	0.060367	0.015557	0.999976	-0.001148	-0.001078	-0.006676	
10299	    0	13.602132	1.942121	0.878582	-0.204469	-0.212670	-1.017766	0.136108	0.018738	0.008911	0.999986	-0.001022	-0.001063	-0.005089	
10300	    0	13.093011	-0.030731	-0.304826	-0.170708	-0.215150	-0.932506	0.130930	-0.000920	-0.002907	0.999988	-0.000854	-0.001076	-0.004663	
10301	    0	11.930814	-0.102966	-1.827272	-0.141717	-0.241853	-0.912479	0.119324	-0.001587	-0.018127	0.999989	-0.000709	-0.001209	-0.004562	
10302	    0	10.802258	-0.062759	-2.625175	-0.188828	-0.199509	-0.854495	0.108045	-0.001114	-0.026143	0.999990	-0.000944	-0.000998	-0.004272	
10303	    0	10.000990	0.218211	-2.370041	-0.183869	-0.163079	-0.780489	0.100037	0.001770	-0.023621	0.999991	-0.000919	-0.000815	-0.003902	
10304	    0	10.058379	0.846380	-1.738723	-0.215531	-0.066567	-0.724794	0.100619	0.008080	-0.017363	0.999992	-0.001078	-0.000333	-0.003624	
10305	    0	10.472238	0.450157	-1.342488	-0.297547	-0.006676	-0.632478	0.104736	0.004150	-0.013428	0.999993	-0.001488	-0.000033	-0.003162	
10306	    0	10.775578	1.098895	-1.636659	-0.367928	0.016975	-0.518800	0.107782	0.010679	-0.016396	0.999994	-0.001840	0.000085	-0.002594	
10307	    0	10.592166	1.805666	-2.367823	-0.548555	0.029182	-0.434876	0.105957	0.017761	-0.023743	0.999993	-0.002743	0.000146	-0.002174	
10308	    0	10.220620	1.871915	-3.510058	-0.803569	0.069809	-0.349427	0.102226	0.018399	-0.035211	0.999990	-0.004018	0.000349	-0.001747	
10309	    0	9.515883	1.644425	-3.995410	-1.087194	0.121499	-0.238038	0.095154	0.016113	-0.040100	0.999984	-0.005436	0.000607	-0.001190	
10310	    0	9.013761	1.112804	-3.813547	-1.260575	0.190164	-0.139428	0.090109	0.010824	-0.038290	0.999979	-0.006303	0.000951	-0.000697	
10311	    0	9.104071	0.550549	-3.422402	-1.310549	0.228121	-0.069428	0.091003	0.005249	-0.034363	0.999977	-0.006553	0.001141	-0.000347	
10312	    0	9.818675	-0.480921	-3.060729	-1.254662	0.187494	-0.043869	0.098157	-0.005023	-0.030668	0.999979	-0.006273	0.000937	-0.000219	
10313	    0	10.121804	-0.533614	-2.435884	-1.110083	0.168801	-0.042725	0.101196	-0.005493	-0.024414	0.999984	-0.005550	0.000844	-0.000214	
10314	    0	9.922522	0.388079	-2.022366	-1.037984	0.115967	-0.057602	0.099215	0.003747	-0.020301	0.999986	-0.005190	0.000580	-0.000288	
10315	    0	10.358655	0.141331	-1.628402	-1.059537	0.128174	-0.086976	0.103577	0.001282	-0.016357	0.999985	-0.005298	0.000641	-0.000435	
10316	    0	10.755160	0.006959	-0.418495	-0.882533	0.136185	-0.176240	0.107549	-0.000044	-0.004258	0.999990	-0.004413	0.000681	-0.000881	
10317	    0	10.009141	0.799643	-0.653899	-0.823023	0.040436	-0.191498	0.100098	0.007874	-0.006592	0.999990	-0.004115	0.000202	-0.000957	
10318	    0	9.246413	0.180279	-0.354568	-0.831416	-0.002861	-0.253487	0.092466	0.001671	-0.003551	0.999990	-0.004157	-0.000014	-0.001267	
10319	    0	8.739979	0.178917	0.139244	-0.782588	-0.041199	-0.335694	0.087402	0.001648	0.001404	0.999990	-0.003913	-0.000206	-0.001678	
10320	    0	8.900805	-0.312245	0.112405	-0.689127	-0.048447	-0.435067	0.089001	-0.003312	0.001157	0.999991	-0.003446	-0.000242	-0.002175	
10321	    0	9.219557	-1.242044	-0.914585	-0.484277	-0.045776	-0.548555	0.092163	-0.012695	-0.009094	0.999992	-0.002421	-0.000229	-0.002743	
10322	    0	9.966706	-0.715295	-1.463327	-0.262070	-0.026703	-0.659372	0.099645	-0.007501	-0.014610	0.999993	-0.001310	-0.000134	-0.003297	
10323	    0	10.421475	0.809776	-2.003366	-0.208092	-0.042725	-0.741579	0.104248	0.007690	-0.020020	0.999992	-0.001040	-0.000214	-0.003708	
10324	    0	10.249134	1.447786	-1.857119	-0.289536	-0.040627	-0.794222	0.102551	0.014044	-0.018571	0.999990	-0.001448	-0.000203	-0.003971	
10325	    0	9.885151	0.553077	-1.593574	-0.433351	-0.034142	-0.870517	0.098877	0.005066	-0.015930	0.999988	-0.002167	-0.000171	-0.004353	
10326	    0	9.649690	0.020343	-1.536582	-0.477221	-0.017548	-0.997930	0.096498	-0.000315	-0.015357	0.999984	-0.002386	-0.000088	-0.004990	
10327	    0	9.636435	-0.805739	-1.869062	-0.416568	0.007820	-1.184853	0.096313	-0.008667	-0.018677	0.999980	-0.002083	0.000039	-0.005924	
10328	    0	9.839913	-2.196919	-2.103168	-0.307658	0.057984	-1.373302	0.098239	-0.022676	-0.021026	0.999974	-0.001538	0.000290	-0.006866	
10329	    0	10.535663	-1.508731	-2.077896	-0.161745	0.088693	-1.569383	0.105225	-0.015930	-0.020813	0.999969	-0.000809	0.000443	-0.007847	
10330	    0	11.226269	-1.058664	-2.147247	-0.092698	0.108720	-1.742004	0.112153	-0.011574	-0.021528	0.999961	-0.000463	0.000544	-0.008710	
10331	    0	12.210569	-0.755686	-2.151365	-0.032807	0.154307	-1.913482	0.122009	-0.008728	-0.021606	0.999953	-0.000164	0.000772	-0.009567	
10332	    0	12.898200	-0.730827	-1.910073	-0.031663	0.178722	-2.058829	0.128881	-0.008638	-0.019215	0.999947	-0.000158	0.000894	-0.010294	
10333	    0	13.111789	-0.453852	-1.562307	-0.018120	0.189976	-2.199599	0.131042	-0.005981	-0.015747	0.999939	-0.000091	0.000950	-0.010998	
10334	    0	12.797162	-0.538450	-0.976773	-0.031853	0.195126	-2.354867	0.127887	-0.006892	-0.009892	0.999929	-0.000159	0.000976	-0.011774	
10335	    0	12.521029	-1.012887	-0.595743	-0.033380	0.236518	-2.539894	0.125061	-0.011719	-0.006104	0.999918	-0.000167	0.001183	-0.012699	
10336	    0	12.855619	-1.154329	-0.358031	-0.035478	0.332843	-2.709091	0.128378	-0.013284	-0.003792	0.999907	-0.000177	0.001664	-0.013545	
10337	    0	13.508250	-0.721014	-0.566133	-0.159460	0.393881	-2.874857	0.134949	-0.009155	-0.005920	0.999894	-0.000797	0.001969	-0.014374	
10338	    0	14.001115	-0.896615	-1.145509	-0.391785	0.436037	-3.023267	0.139829	-0.011104	-0.011740	0.999881	-0.001959	0.002180	-0.015116	
10339	    0	14.748861	-2.010868	-1.980146	-0.756870	0.490783	-3.175498	0.147095	-0.022522	-0.020081	0.999864	-0.003784	0.002454	-0.015877	
10340	    0	16.159861	-4.102106	-2.319652	-1.230305	0.543814	-3.286725	0.160830	-0.043812	-0.023371	0.999842	-0.006151	0.002719	-0.016433	
10341	    0	17.525830	-4.894145	-4.681466	-1.611998	0.541720	-3.422755	0.174255	-0.052307	-0.046875	0.999817	-0.008060	0.002708	-0.017113	
10342	    0	19.698043	-7.132859	-5.988683	-1.935526	0.516738	-3.635095	0.195479	-0.075469	-0.059676	0.999784	-0.009677	0.002584	-0.018174	
10343	    0	21.326803	-11.397881	-5.983386	-2.010505	0.459517	-3.851625	0.210876	-0.118652	-0.059143	0.999761	-0.010052	0.002297	-0.019257	
10344	    0	21.024341	-12.356877	-7.538358	-1.688904	0.287842	-4.071376	0.207554	-0.128445	-0.074613	0.999756	-0.008444	0.001439	-0.020355	
10345	    0	21.139623	-7.806077	-6.397241	-1.159766	0.093277	-4.355227	0.209595	-0.083008	-0.063599	0.999745	-0.005798	0.000466	-0.021774	
10346	    0	21.110293	-4.828894	-4.797410	-0.284027	-0.116930	-4.335363	0.210017	-0.052917	-0.047778	0.999763	-0.001420	-0.000585	-0.021675	
10347	    0	17.777308	0.535043	-4.955910	-0.258465	-0.345637	-4.159849	0.177917	0.001587	-0.049255	0.999781	-0.001292	-0.001728	-0.020798	
10348	    0	18.555780	-1.620649	-4.735233	-0.504903	-0.432611	-3.588876	0.185328	-0.019652	-0.046905	0.999833	-0.002524	-0.002163	-0.017943	
10349	    0	15.532661	-1.850756	-3.290688	-0.632506	-0.558307	-3.231962	0.155090	-0.021118	-0.032410	0.999860	-0.003162	-0.002791	-0.016159	
10350	    0	14.634118	-2.927442	-0.672112	-0.607514	-0.315678	-2.964325	0.145896	-0.031459	-0.006397	0.999884	-0.003037	-0.001578	-0.014821	
10351	    0	13.315168	-1.341456	-0.088694	-1.000826	-0.029756	-2.950406	0.132935	-0.015381	-0.000793	0.999878	-0.005004	-0.000149	-0.014751	
10352	    0	10.340955	5.232328	-2.205481	-1.242495	-0.128751	-2.776062	0.104136	0.050743	-0.022306	0.999884	-0.006212	-0.000644	-0.013880	
10353	    0	10.231642	11.315567	-5.733727	-1.099420	-0.298888	-1.982923	0.103516	0.111816	-0.057800	0.999934	-0.005497	-0.001494	-0.009914	
10354	    0	10.522232	0.998596	-6.353519	-1.373497	-0.141336	-0.901423	0.105309	0.009075	-0.063525	0.999966	-0.006867	-0.000707	-0.004507	
10355	    0	8.716929	-4.968582	-3.319621	-1.543442	0.059701	-0.249484	0.087097	-0.050049	-0.032837	0.999969	-0.007717	0.000299	-0.001247	
10356	    0	5.772432	-5.980743	-0.507036	-1.017194	0.106431	0.157548	0.057769	-0.059787	-0.004797	0.999986	-0.005086	0.000532	0.000788	
10357	    0	3.206441	-5.771681	0.860612	-0.263215	0.093269	0.548554	0.032227	-0.057617	0.008667	0.999995	-0.001316	0.000466	0.002743	
10358	    0	2.275507	-4.778599	1.136059	0.405695	0.132561	0.918011	0.022982	-0.047704	0.011249	0.999987	0.002028	0.000663	0.004590	
10359	    0	2.410683	-2.806921	0.905228	0.853738	0.178720	1.265729	0.024292	-0.027954	0.008911	0.999970	0.004269	0.000894	0.006329	
10360	    0	2.531979	-0.943139	0.079796	1.039903	0.135615	1.636149	0.025396	-0.009228	0.000732	0.999952	0.005199	0.000678	0.008181	
10361	    0	2.591559	-0.898099	-0.872787	1.094080	0.101664	2.048539	0.026001	-0.008667	-0.008789	0.999932	0.005470	0.000508	0.010242	
10362	    0	2.606155	-1.791625	-1.236931	1.137386	0.084117	2.441099	0.026272	-0.017526	-0.012481	0.999908	0.005687	0.000421	0.012205	
10363	    0	2.501887	-2.295049	-1.174370	1.253559	0.127607	2.808491	0.025330	-0.022522	-0.011902	0.999881	0.006268	0.000638	0.014042	
10364	    0	2.666216	-2.091034	-0.962451	1.373168	0.154503	3.137170	0.026978	-0.020422	-0.009787	0.999852	0.006866	0.000772	0.015685	
10365	    0	3.075797	-1.848392	-0.789471	1.477330	0.183116	3.497525	0.031067	-0.017883	-0.008057	0.999819	0.007386	0.000916	0.017487	
10366	    0	3.622238	-1.666723	-0.657106	1.473723	0.203338	3.860367	0.036528	-0.015915	-0.006727	0.999785	0.007368	0.001017	0.019300	
10367	    0	4.156896	-1.538272	-0.663044	1.381985	0.202958	4.169800	0.041870	-0.014465	-0.006775	0.999758	0.006909	0.001015	0.020847	
10368	    0	4.540240	-1.739714	-0.839339	1.246564	0.212498	4.465504	0.045766	-0.016325	-0.008546	0.999730	0.006232	0.001062	0.022326	
10369	    0	5.034466	-2.212613	-0.806359	1.176570	0.200864	4.751299	0.050842	-0.020874	-0.008240	0.999700	0.005882	0.001004	0.023754	
10370	    0	5.598783	-2.082229	-0.902757	1.169716	0.186941	5.021461	0.056478	-0.019355	-0.009196	0.999667	0.005848	0.000935	0.025105	
10371	    0	6.260477	-1.605535	-0.980468	1.179075	0.178549	5.261105	0.062988	-0.014343	-0.009949	0.999636	0.005895	0.000893	0.026302	
10372	    0	7.156468	-1.452810	-1.181860	1.169740	0.163481	5.492551	0.071917	-0.012486	-0.011954	0.999605	0.005848	0.000817	0.027459	
10373	    0	8.297743	-1.583393	-1.309349	1.130838	0.170351	5.748046	0.083374	-0.013367	-0.013245	0.999570	0.005653	0.000852	0.028736	
10374	    0	9.697497	-1.903976	-1.428474	1.074766	0.163294	5.994389	0.097474	-0.016046	-0.014456	0.999536	0.005373	0.000816	0.029967	
10375	    0	11.359677	-1.801180	-1.143585	1.056847	0.137543	6.225858	0.114075	-0.014404	-0.011597	0.999501	0.005283	0.000688	0.031124	
10376	    0	13.120898	-1.083399	-1.170761	1.049037	0.105686	6.430047	0.131459	-0.006548	-0.011819	0.999469	0.005244	0.000528	0.032145	
10377	    0	15.166524	-0.938155	-1.564184	1.132415	0.094050	6.613637	0.151855	-0.004272	-0.015747	0.999436	0.005661	0.000470	0.033062	
10378	    0	17.820950	-1.361414	-2.440977	1.362691	0.070395	6.785794	0.178522	-0.007393	-0.024537	0.999401	0.006812	0.000352	0.033922	
10379	    0	20.991144	-1.554154	-3.918492	1.640661	0.033767	6.873989	0.210266	-0.007996	-0.039307	0.999375	0.008202	0.000169	0.034363	
10380	    0	24.297986	-0.376050	-5.558204	1.887150	-0.045214	6.881075	0.242918	0.005123	-0.055507	0.999363	0.009434	-0.000226	0.034398	
10381	    0	26.329448	2.394609	-7.667599	2.007146	-0.197643	6.836622	0.262329	0.033691	-0.076111	0.999365	0.010034	-0.000988	0.034176	
10382	    0	27.465058	7.555264	-9.365564	1.672884	-0.404247	6.665592	0.272100	0.085427	-0.092417	0.999407	0.008363	-0.002021	0.033321	
10383	    0	26.372656	12.179731	-6.518565	0.857882	-0.282336	6.354851	0.259766	0.130371	-0.064270	0.999485	0.004289	-0.001411	0.031769	
10384	    0	24.948207	10.962213	-5.762275	0.933973	-0.519446	5.787349	0.246314	0.117046	-0.056445	0.999567	0.004669	-0.002597	0.028933	
10385	    0	23.342316	15.513459	-5.790778	1.155406	-0.776757	4.910048	0.229736	0.161133	-0.056091	0.999674	0.005776	-0.003883	0.024548	
10386	    0	19.904088	25.764380	-4.244716	0.528371	-0.738575	3.900979	0.194118	0.261572	-0.041037	0.999799	0.002642	-0.003693	0.019504	
10387	    0	15.724070	33.662676	-2.037623	-0.514239	-0.482004	2.818397	0.152527	0.338745	-0.020874	0.999894	-0.002571	-0.002410	0.014091	
10388	    0	12.820468	31.605041	-3.689727	-1.200314	-0.276570	1.520563	0.125851	0.316785	-0.038622	0.999951	-0.006001	-0.001383	0.007603	
10389	    0	13.002654	25.256925	-4.033955	-1.303110	-0.081444	0.030518	0.130005	0.252319	-0.041931	0.999978	-0.006516	-0.000407	0.000153	
10390	    0	13.761817	20.657815	-2.458593	-0.765809	-0.061608	-1.410881	0.139078	0.205504	-0.025331	0.999968	-0.003829	-0.000308	-0.007054	
10391	    0	13.236554	19.272591	-0.724475	-0.259978	-0.070955	-2.502507	0.134766	0.191040	-0.007446	0.999920	-0.001300	-0.000355	-0.012512	
10392	    0	15.801994	14.990863	-0.853084	-0.062182	-0.215731	-3.226039	0.160419	0.147331	-0.008405	0.999868	-0.000311	-0.001079	-0.016129	
10393	    0	13.968097	9.883852	-3.111306	-0.110441	-0.315110	-3.474603	0.141418	0.096375	-0.030945	0.999847	-0.000552	-0.001575	-0.017372	
10394	    0	12.295733	-11.374854	-4.647145	-0.776314	-0.278481	-2.550201	0.121556	-0.115483	-0.045856	0.999909	-0.003881	-0.001392	-0.012751	
10395	    0	15.284100	-21.503454	2.008621	-0.834675	-0.091364	-2.202657	0.150452	-0.216614	0.021057	0.999930	-0.004173	-0.000457	-0.011013	
10396	    0	16.677386	-8.802610	4.042242	-0.354779	-0.005150	-2.811907	0.165514	-0.090287	0.040586	0.999899	-0.001774	-0.000026	-0.014059	
10397	    0	17.120203	3.842297	0.924996	0.229846	-0.054171	-3.367775	0.171814	0.035522	0.009338	0.999857	0.001149	-0.000271	-0.016838	
10398	    0	19.443506	5.146490	-1.438790	0.589403	-0.120170	-3.581053	0.195324	0.048015	-0.014126	0.999835	0.002947	-0.000601	-0.017904	
10399	    0	17.661961	4.315027	-9.058436	1.514724	-0.687453	-3.589101	0.177673	0.040649	-0.089661	0.999804	0.007573	-0.003437	-0.017944	
10400	    0	13.627390	8.305153	-10.498627	1.985327	-0.991328	-3.781622	0.138340	0.081481	-0.103490	0.999760	0.009926	-0.004956	-0.018907	
10401	    0	10.914428	0.594188	-3.690680	1.386538	-0.796558	-3.518896	0.109375	0.004272	-0.036438	0.999813	0.006932	-0.003983	-0.017593	
10402	    0	6.700186	-0.337196	-0.275862	1.503069	-0.770609	-3.109522	0.066949	-0.004394	-0.002531	0.999843	0.007515	-0.003853	-0.015547	
10403	    0	4.039555	1.609444	-0.823679	1.414744	-0.640135	-2.897012	0.040649	0.015564	-0.007996	0.999865	0.007073	-0.003201	-0.014484	
10404	    0	6.207101	4.562778	-1.004974	1.160282	-0.489825	-2.645396	0.062692	0.044858	-0.009635	0.999892	0.005801	-0.002449	-0.013227	
10405	    0	8.757554	7.495537	-1.945090	0.712030	-0.325020	-2.241569	0.088440	0.074036	-0.019043	0.999929	0.003560	-0.001625	-0.011208	
10406	    0	10.063987	6.400026	-0.340417	0.240138	-0.224116	-1.758408	0.101201	0.063116	-0.003215	0.999960	0.001201	-0.001121	-0.008792	
10407	    0	11.056195	5.050076	0.138741	0.079537	-0.324252	-1.365673	0.110901	0.049744	0.001587	0.999975	0.000398	-0.001621	-0.006828	
10408	    0	12.693399	2.780115	-0.098478	-0.202561	-0.238229	-1.059538	0.127080	0.027127	-0.000861	0.999985	-0.001013	-0.001191	-0.005298	
10409	    0	13.393192	0.866189	-0.254165	-0.311281	-0.259973	-0.897983	0.133972	0.008057	-0.002380	0.999988	-0.001556	-0.001300	-0.004490	
10410	    0	12.943204	0.352266	-1.212763	-0.274468	-0.317193	-0.830272	0.129464	0.002969	-0.011927	0.999989	-0.001372	-0.001586	-0.004151	
10411	    0	11.348000	0.174958	-2.181314	-0.265504	-0.367547	-0.773623	0.113525	0.001282	-0.021606	0.999990	-0.001328	-0.001838	-0.003868	
10412	    0	10.225883	0.954782	-2.349493	-0.341989	-0.286866	-0.691034	0.102324	0.009154	-0.023364	0.999991	-0.001710	-0.001434	-0.003455	
10413	    0	10.072848	0.735791	-2.022439	-0.448419	-0.196076	-0.582887	0.100769	0.007019	-0.020142	0.999992	-0.002242	-0.000980	-0.002914	
10414	    0	10.493519	0.842670	-1.565753	-0.493241	-0.122452	-0.497247	0.104965	0.008127	-0.015614	0.999993	-0.002466	-0.000612	-0.002486	
10415	    0	10.605185	0.935982	-1.748194	-0.553132	-0.096703	-0.409699	0.106079	0.009094	-0.017456	0.999993	-0.002766	-0.000484	-0.002048	
10416	    0	10.343459	1.918451	-2.689465	-0.624658	-0.076294	-0.302888	0.103474	0.018944	-0.026915	0.999993	-0.003123	-0.000381	-0.001514	
10417	    0	9.964565	2.289045	-3.733076	-0.793459	-0.012779	-0.196839	0.099670	0.022644	-0.037415	0.999991	-0.003967	-0.000064	-0.000984	
10418	    0	9.671176	1.804037	-4.539396	-1.034932	0.086975	-0.086594	0.096700	0.017763	-0.045528	0.999986	-0.005175	0.000435	-0.000433	
10419	    0	9.269867	1.078313	-4.720681	-1.272401	0.192262	0.034333	0.092651	0.010498	-0.047363	0.999979	-0.006362	0.000961	0.000172	
10420	    0	9.071855	0.181874	-4.325719	-1.417935	0.265696	0.105477	0.090660	0.001559	-0.043389	0.999973	-0.007090	0.001328	0.000527	
10421	    0	9.331715	0.211446	-4.081750	-1.421178	0.263979	0.146486	0.093262	0.001892	-0.040955	0.999973	-0.007106	0.001320	0.000732	
10422	    0	9.710290	-0.093738	-3.213232	-1.374256	0.222589	0.149156	0.097068	-0.001086	-0.032233	0.999975	-0.006871	0.001113	0.000746	
10423	    0	10.213279	-0.058933	-2.304190	-1.317416	0.185396	0.137330	0.102112	-0.000671	-0.023132	0.999977	-0.006587	0.000927	0.000687	
10424	    0	11.168633	-0.820836	-0.207588	-1.184852	0.235940	0.070572	0.111687	-0.008182	-0.002159	0.999981	-0.005924	0.001180	0.000353	
10425	    0	10.736251	0.370475	-0.106110	-1.023106	0.148202	0.045014	0.107361	0.003723	-0.001160	0.999986	-0.005116	0.000741	0.000225	
10426	    0	10.602603	0.494902	-0.339143	-1.021008	0.072670	0.001717	0.106025	0.004932	-0.003455	0.999987	-0.005105	0.000363	0.000009	
10427	    0	9.985183	0.534535	-0.089405	-1.061254	-0.013542	-0.061035	0.099854	0.005310	-0.000916	0.999986	-0.005306	-0.000068	-0.000305	
10428	    0	9.076539	-0.437850	0.170773	-1.031690	-0.089264	-0.111962	0.090762	-0.004420	0.001771	0.999986	-0.005158	-0.000446	-0.000560	
10429	    0	8.308239	-1.189354	-0.461261	-0.842288	-0.109673	-0.267793	0.083069	-0.012024	-0.004517	0.999990	-0.004211	-0.000548	-0.001339	
10430	    0	8.525895	-1.520902	-1.197379	-0.575639	-0.109864	-0.414468	0.085234	-0.015420	-0.011883	0.999993	-0.002878	-0.000549	-0.002072	
10431	    0	9.358604	-0.984654	-1.800398	-0.370599	-0.087738	-0.538636	0.093567	-0.010132	-0.017944	0.999994	-0.001853	-0.000439	-0.002693	
10432	    0	9.781157	0.058169	-2.081735	-0.266457	-0.082016	-0.647165	0.097821	0.000237	-0.020778	0.999993	-0.001332	-0.000410	-0.003236	
10433	    0	9.621865	0.643969	-2.426394	-0.272370	-0.086022	-0.756838	0.096252	0.006042	-0.024231	0.999991	-0.001362	-0.000430	-0.003784	
10434	    0	9.386201	0.396568	-2.330637	-0.326730	-0.097084	-0.868419	0.093889	0.003520	-0.023267	0.999989	-0.001634	-0.000485	-0.004342	
10435	    0	9.475384	-0.649032	-2.372528	-0.451472	-0.059510	-1.003270	0.094727	-0.007019	-0.023682	0.999985	-0.002257	-0.000298	-0.005016	
10436	    0	9.710159	-1.147100	-2.512002	-0.422862	-0.033188	-1.183327	0.097035	-0.012098	-0.025079	0.999980	-0.002114	-0.000166	-0.005917	
10437	    0	9.886245	-1.501632	-2.169988	-0.403408	-0.002289	-1.390851	0.098755	-0.015747	-0.021667	0.999973	-0.002017	-0.000011	-0.006954	
10438	    0	10.547896	-2.164250	-2.227117	-0.345997	0.038529	-1.547448	0.105303	-0.022496	-0.022253	0.999969	-0.001730	0.000193	-0.007737	
10439	    0	11.338533	-1.021392	-2.004457	-0.243953	0.086976	-1.750969	0.113281	-0.011230	-0.020081	0.999960	-0.001220	0.000435	-0.008755	
10440	    0	12.111267	-0.922403	-1.915662	-0.215534	0.107385	-1.924354	0.121006	-0.010409	-0.019211	0.999952	-0.001078	0.000537	-0.009622	
10441	    0	12.706691	-0.917672	-1.677671	-0.152591	0.120737	-2.060736	0.126953	-0.010498	-0.016846	0.999946	-0.000763	0.000604	-0.010303	
10442	    0	12.758509	-1.133146	-1.315497	-0.103190	0.135615	-2.196166	0.127441	-0.012738	-0.013235	0.999939	-0.000516	0.000678	-0.010981	
10443	    0	12.497718	-0.695986	-0.703023	-0.042726	0.180249	-2.339989	0.124878	-0.008423	-0.007141	0.999930	-0.000214	0.000901	-0.011700	
10444	    0	12.397732	-0.635634	-0.312320	-0.048639	0.224692	-2.499837	0.123881	-0.007906	-0.003261	0.999921	-0.000243	0.001123	-0.012499	
10445	    0	12.729357	-0.563476	-0.445721	-0.059320	0.288400	-2.653582	0.127197	-0.007324	-0.004639	0.999910	-0.000297	0.001442	-0.013268	
10446	    0	12.995687	-0.693702	-1.015099	-0.167852	0.355542	-2.794740	0.129825	-0.008760	-0.010375	0.999900	-0.000839	0.001778	-0.013973	
10447	    0	13.259818	-1.085166	-1.826036	-0.368323	0.386062	-2.916824	0.132385	-0.012817	-0.018494	0.999889	-0.001842	0.001930	-0.014584	
10448	    0	13.832637	-0.894690	-2.459554	-0.686102	0.414293	-3.057798	0.138116	-0.011145	-0.024846	0.999875	-0.003430	0.002071	-0.015288	
10449	    0	14.681648	-2.647490	-3.061163	-1.248040	0.444816	-3.174748	0.146301	-0.028992	-0.030762	0.999851	-0.006240	0.002224	-0.015873	
10450	    0	16.591040	-4.872426	-3.684660	-1.783095	0.512344	-3.283505	0.164983	-0.051766	-0.036818	0.999822	-0.008915	0.002562	-0.016417	
10451	    0	18.589292	-5.464408	-5.611138	-2.169000	0.516547	-3.478488	0.184753	-0.058472	-0.055969	0.999786	-0.010844	0.002583	-0.017391	
10452	    0	19.830155	-9.853531	-6.340797	-2.421577	0.424229	-3.679576	0.196301	-0.102921	-0.062597	0.999755	-0.012107	0.002121	-0.018396	
10453	    0	21.125343	-13.575830	-6.024291	-2.150716	0.318172	-3.921074	0.208435	-0.140503	-0.059082	0.999748	-0.010753	0.001591	-0.019604	
10454	    0	20.625048	-10.883115	-5.077140	-1.366348	0.167288	-4.265379	0.203820	-0.113540	-0.050178	0.999748	-0.006831	0.000836	-0.021325	
10455	    0	20.525489	-6.518303	-6.536023	-0.685176	-0.121127	-4.384973	0.203796	-0.069885	-0.065002	0.999753	-0.003426	-0.000606	-0.021923	
10456	    0	20.465158	-2.301616	-3.127359	0.056081	-0.289750	-4.386683	0.204126	-0.027489	-0.030985	0.999758	0.000280	-0.001449	-0.021932	
10457	    0	18.665874	1.138207	-5.528230	-0.057224	-0.639196	-3.998839	0.187012	0.007629	-0.054688	0.999795	-0.000286	-0.003196	-0.019993	
10458	    0	17.329942	-0.593566	-4.426944	-0.482395	-0.754398	-3.530507	0.173323	-0.009101	-0.043596	0.999834	-0.002412	-0.003772	-0.017652	
10459	    0	15.738745	-1.746460	-3.081964	-1.125200	-0.556973	-3.186954	0.157166	-0.020142	-0.030273	0.999853	-0.005626	-0.002785	-0.015934	
10460	    0	15.252640	-2.830342	1.346065	-1.003881	-0.088505	-3.041397	0.152067	-0.030550	0.013678	0.999871	-0.005019	-0.000443	-0.015206	
10461	    0	12.173162	1.929505	-1.811010	-1.507448	-0.093846	-2.992389	0.122009	0.017334	-0.018188	0.999859	-0.007537	-0.000469	-0.014961	
10462	    0	10.659229	10.364573	-4.098772	-1.409195	-0.160985	-2.416881	0.107865	0.102056	-0.041624	0.999902	-0.007046	-0.000805	-0.012084	
10463	    0	12.300919	5.514435	-6.997657	-1.535826	-0.031090	-1.450375	0.123413	0.053711	-0.070374	0.999944	-0.007679	-0.000155	-0.007252	
10464	    0	10.679093	-4.500676	-4.313463	-1.577015	0.167658	-0.586135	0.106622	-0.045658	-0.042866	0.999964	-0.007885	0.000838	-0.002931	
10465	    0	7.625074	-5.957525	-1.958629	-1.262674	0.364116	-0.145722	0.076172	-0.059753	-0.019348	0.999978	-0.006313	0.001821	-0.000729	
10466	    0	4.858330	-6.049280	0.019713	-0.568582	0.415231	0.284577	0.048670	-0.060423	0.000268	0.999992	-0.002843	0.002076	0.001423	
10467	    0	3.072039	-5.790131	0.861124	0.199319	0.451662	0.709536	0.030945	-0.057800	0.008484	0.999990	0.000997	0.002258	0.003548	
10468	    0	2.444943	-4.480217	1.105941	0.786788	0.503926	1.087580	0.024720	-0.044711	0.010821	0.999974	0.003934	0.002520	0.005438	
10469	    0	2.559865	-2.673783	1.047392	1.165790	0.502213	1.450370	0.025818	-0.026611	0.010254	0.999953	0.005829	0.002511	0.007252	
10470	    0	2.509681	-1.171199	0.326322	1.350052	0.460826	1.836437	0.025210	-0.011502	0.003127	0.999932	0.006750	0.002304	0.009182	
10471	    0	2.324924	-0.763376	-0.734413	1.377337	0.437940	2.219456	0.023315	-0.007324	-0.007446	0.999912	0.006886	0.002190	0.011097	
10472	    0	2.202984	-1.056669	-1.551518	1.380018	0.462740	2.608015	0.022128	-0.010171	-0.015637	0.999888	0.006900	0.002314	0.013040	
10473	    0	2.262980	-1.640695	-1.912181	1.399296	0.463317	3.006885	0.022827	-0.015930	-0.019287	0.999860	0.006996	0.002316	0.015034	
10474	    0	2.602221	-2.309847	-1.765654	1.465692	0.459316	3.397566	0.026367	-0.022522	-0.017883	0.999825	0.007328	0.002296	0.016987	
10475	    0	3.077416	-2.284484	-1.301867	1.529037	0.469813	3.760409	0.031164	-0.022161	-0.013263	0.999789	0.007645	0.002349	0.018801	
10476	    0	3.612542	-1.871440	-0.809263	1.467058	0.458563	4.076326	0.036477	-0.017913	-0.008309	0.999763	0.007335	0.002293	0.020380	
10477	    0	4.110205	-1.675008	-0.522695	1.339840	0.470203	4.384238	0.041443	-0.015808	-0.005432	0.999734	0.006699	0.002351	0.021919	
10478	    0	4.506042	-1.209651	-0.656313	1.195834	0.450369	4.673461	0.045311	-0.011000	-0.006733	0.999706	0.005979	0.002252	0.023365	
10479	    0	4.899002	-1.264392	-1.270917	1.076815	0.430345	4.971853	0.049255	-0.011353	-0.012878	0.999674	0.005383	0.002151	0.024857	
10480	    0	5.630688	-2.175666	-1.617969	1.034480	0.394106	5.275411	0.056821	-0.020178	-0.016398	0.999637	0.005172	0.001970	0.026374	
10481	    0	6.600476	-2.793130	-1.688974	1.047655	0.365687	5.538151	0.066711	-0.026001	-0.017151	0.999600	0.005238	0.001828	0.027687	
10482	    0	7.747467	-2.754701	-1.561758	1.114241	0.327538	5.729347	0.078194	-0.025226	-0.015890	0.999573	0.005570	0.001637	0.028643	
10483	    0	9.036144	-2.218275	-1.433387	1.202767	0.289198	5.919786	0.090942	-0.019409	-0.014587	0.999542	0.006013	0.001446	0.029594	
10484	    0	10.532864	-1.553972	-1.610242	1.258482	0.233879	6.111184	0.105717	-0.012211	-0.016310	0.999513	0.006291	0.001169	0.030551	
10485	    0	12.286847	-1.268529	-1.733209	1.273569	0.197064	6.348766	0.123169	-0.008667	-0.017517	0.999475	0.006367	0.000985	0.031738	
10486	    0	14.465298	-1.239739	-1.812293	1.306018	0.155669	6.607924	0.144940	-0.007492	-0.018295	0.999433	0.006529	0.000778	0.033033	
10487	    0	16.980666	-1.137441	-2.223347	1.392836	0.135067	6.808316	0.170044	-0.005432	-0.022400	0.999395	0.006963	0.000675	0.034035	
10488	    0	19.836407	-0.740927	-3.470392	1.554817	0.075738	6.940206	0.198442	-0.000253	-0.034800	0.999367	0.007772	0.000379	0.034694	
10489	    0	22.584296	0.191404	-5.226801	1.712597	-0.016788	6.993851	0.225586	0.010254	-0.052185	0.999352	0.008561	-0.000084	0.034962	
10490	    0	25.081264	2.063104	-7.441813	1.833742	-0.169409	6.986612	0.249935	0.030053	-0.073959	0.999347	0.009167	-0.000847	0.034925	
10491	    0	26.714344	5.593986	-9.825092	1.832969	-0.428672	6.879357	0.265198	0.065979	-0.097107	0.999364	0.009163	-0.002143	0.034389	
10492	    0	27.641658	13.206734	-7.670922	0.919704	-0.274328	6.622978	0.271939	0.141473	-0.075698	0.999440	0.004598	-0.001371	0.033109	
10493	    0	25.890595	11.621325	-5.462090	0.665585	-0.393743	6.283856	0.255188	0.124451	-0.053711	0.999498	0.003327	-0.001968	0.031414	
10494	    0	25.796227	13.646819	-5.312607	0.979360	-0.641334	5.461831	0.254271	0.143702	-0.051615	0.999610	0.004896	-0.003206	0.027306	
10495	    0	23.018764	22.152535	-5.155993	0.785896	-0.767393	4.424669	0.225403	0.226746	-0.049805	0.999740	0.003929	-0.003837	0.022121	
10496	    0	18.886828	34.462678	-2.307135	-0.283065	-0.572805	3.385521	0.183065	0.347726	-0.023032	0.999851	-0.001415	-0.002864	0.016927	
10497	    0	14.649525	36.421303	-2.887132	-1.195367	-0.405895	2.179013	0.142578	0.365601	-0.030762	0.999920	-0.005977	-0.002029	0.010895	
10498	    0	12.606617	30.473307	-3.899522	-1.591511	-0.139238	0.624283	0.125143	0.304802	-0.041333	0.999963	-0.007957	-0.000696	0.003121	
10499	    0	14.163939	23.556491	-2.709744	-1.214612	-0.029564	-1.003276	0.142822	0.234680	-0.028503	0.999969	-0.006073	-0.000148	-0.005016	
10500	    0	13.626423	21.784403	-0.826348	-0.603119	-0.023842	-2.363264	0.138826	0.216187	-0.008901	0.999926	-0.003016	-0.000119	-0.011816	
10501	    0	16.153170	18.339790	-0.871070	-0.337997	-0.130278	-3.251030	0.164490	0.180725	-0.008911	0.999866	-0.001690	-0.000651	-0.016254	
10502	    0	14.353140	10.304563	-3.984298	-0.493458	-0.265327	-3.555871	0.145385	0.100373	-0.039901	0.999838	-0.002467	-0.001327	-0.017778	
10503	    0	12.255767	-20.640235	-4.451249	-1.373329	-0.196653	-2.158415	0.120361	-0.208008	-0.042969	0.999917	-0.006866	-0.000983	-0.010792	
10504	    0	14.653338	-27.325561	2.930990	-1.111817	-0.017929	-1.966900	0.143835	-0.274510	0.030847	0.999934	-0.005559	-0.000090	-0.009834	
10505	    0	16.046858	-5.347429	4.002911	-0.589583	-0.038911	-2.886304	0.159668	-0.055664	0.040222	0.999891	-0.002948	-0.000195	-0.014431	
10506	    0	16.754301	6.279750	0.750078	-0.098996	-0.077633	-3.377312	0.168569	0.059960	0.007536	0.999857	-0.000495	-0.000388	-0.016886	
10507	    0	20.032881	5.809358	-2.281273	0.307670	-0.082402	-3.424241	0.201294	0.054688	-0.022644	0.999851	0.001538	-0.000412	-0.017120	
10508	    0	17.881782	1.669484	-4.870465	0.569944	-0.362605	-3.380752	0.179155	0.013806	-0.048338	0.999851	0.002850	-0.001813	-0.016903	
10509	    0	12.573163	3.580982	-7.216071	1.291922	-0.735516	-3.411299	0.126587	0.034119	-0.071472	0.999826	0.006459	-0.003677	-0.017056	
10510	    0	10.785864	6.242337	-6.146969	1.562978	-0.822118	-3.422949	0.109161	0.061038	-0.060542	0.999814	0.007814	-0.004110	-0.017114	
10511	    0	9.704297	0.536259	-1.761552	1.246131	-0.648530	-3.096157	0.097168	0.003967	-0.017273	0.999855	0.006230	-0.003242	-0.015480	
10512	    0	6.733993	2.010469	-1.226874	1.308687	-0.716430	-2.811551	0.067657	0.019234	-0.011899	0.999873	0.006543	-0.003582	-0.014057	
10513	    0	5.163243	3.074157	-3.251551	1.081120	-0.713944	-2.473530	0.052124	0.030273	-0.032166	0.999902	0.005405	-0.003570	-0.012367	
10514	    0	6.828851	3.282551	-2.375743	0.625433	-0.518238	-2.151346	0.068698	0.032162	-0.023479	0.999933	0.003127	-0.002591	-0.010756	
10515	    0	8.547950	4.719073	-2.212071	0.260929	-0.345426	-1.799037	0.085938	0.046448	-0.021912	0.999957	0.001305	-0.001727	-0.008995	
10516	    0	10.399729	5.047713	-1.044979	-0.136377	-0.203325	-1.457609	0.104372	0.049710	-0.010378	0.999972	-0.000682	-0.001017	-0.007288	
10517	    0	12.000255	3.029041	-0.703916	-0.278475	-0.204278	-1.129920	0.120178	0.029602	-0.006958	0.999982	-0.001392	-0.001021	-0.005650	
10518	    0	13.184601	1.176828	-0.051263	-0.348856	-0.163842	-0.959019	0.131901	0.011135	-0.000424	0.999987	-0.001744	-0.000819	-0.004795	
10519	    0	12.725853	0.005798	-0.111124	-0.215150	-0.211144	-0.856784	0.127258	-0.000488	-0.000977	0.999990	-0.001076	-0.001056	-0.004284	
10520	    0	11.759020	-0.080284	-1.315996	-0.128174	-0.255395	-0.805094	0.117602	-0.001285	-0.013009	0.999990	-0.000641	-0.001277	-0.004025	
10521	    0	10.800071	0.266996	-1.729151	-0.119782	-0.263024	-0.743105	0.108032	0.002258	-0.017151	0.999991	-0.000599	-0.001315	-0.003716	
10522	    0	10.351890	0.011363	-1.639228	-0.140190	-0.245858	-0.678255	0.103539	-0.000249	-0.016265	0.999992	-0.000701	-0.001229	-0.003391	
10523	    0	10.202064	0.587553	-1.394545	-0.131798	-0.184632	-0.611879	0.102051	0.005554	-0.013855	0.999994	-0.000659	-0.000923	-0.003059	
10524	    0	10.247504	1.676033	-1.687116	-0.256539	-0.119019	-0.548554	0.102530	0.016458	-0.016831	0.999995	-0.001283	-0.000595	-0.002743	
10525	    0	10.164345	1.497677	-2.320308	-0.438691	-0.082970	-0.425721	0.101685	0.014709	-0.023193	0.999995	-0.002193	-0.000415	-0.002129	
10526	    0	10.059894	1.364323	-3.131268	-0.588609	-0.028992	-0.334168	0.100626	0.013383	-0.031338	0.999993	-0.002943	-0.000145	-0.001671	
10527	    0	9.783171	1.473100	-3.873797	-0.775149	0.049019	-0.235749	0.097839	0.014465	-0.038818	0.999991	-0.003876	0.000245	-0.001179	
10528	    0	9.498374	1.311867	-4.403868	-0.997548	0.137520	-0.134850	0.094962	0.012835	-0.044168	0.999987	-0.004988	0.000688	-0.000674	
10529	    0	9.245472	0.864017	-4.311791	-1.188476	0.228883	-0.046540	0.092407	0.008362	-0.043274	0.999981	-0.005942	0.001144	-0.000233	
10530	    0	9.131733	0.412849	-3.665049	-1.256761	0.265314	0.002289	0.091269	0.003899	-0.036797	0.999979	-0.006284	0.001327	0.000011	
10531	    0	9.427710	0.126509	-2.855207	-1.227578	0.270273	0.019837	0.094238	0.001099	-0.028687	0.999980	-0.006138	0.001351	0.000099	
10532	    0	9.903908	-0.766988	-2.704424	-1.122672	0.228692	0.036431	0.099010	-0.007804	-0.027114	0.999983	-0.005613	0.001143	0.000182	
10533	    0	10.304735	-0.821692	-2.117580	-0.979428	0.203706	0.038910	0.103027	-0.008301	-0.021240	0.999987	-0.004897	0.001019	0.000195	
10534	    0	10.081940	0.369669	-1.792561	-0.919536	0.134469	0.006485	0.100807	0.003617	-0.018010	0.999989	-0.004598	0.000672	0.000032	
10535	    0	9.949437	0.791795	-2.006555	-0.988011	0.074959	-0.012207	0.099487	0.007812	-0.020142	0.999988	-0.004940	0.000375	-0.000061	
10536	    0	10.736622	-0.171109	-0.374388	-1.010136	0.089837	-0.093842	0.107364	-0.001781	-0.003783	0.999987	-0.005051	0.000449	-0.000469	
10537	    0	9.484784	0.125788	-0.438508	-0.962833	0.007820	-0.162507	0.094849	0.001160	-0.004395	0.999988	-0.004814	0.000039	-0.000813	
10538	    0	9.101976	-0.599343	-0.735750	-0.982479	-0.024223	-0.221444	0.091014	-0.006130	-0.007317	0.999987	-0.004912	-0.000121	-0.001107	
10539	    0	9.138681	-1.073034	-0.697604	-0.828555	-0.074578	-0.363923	0.091370	-0.010925	-0.006897	0.999990	-0.004143	-0.000373	-0.001820	
10540	    0	9.918830	-1.203880	-0.586994	-0.659372	-0.072861	-0.464059	0.099162	-0.012288	-0.005794	0.999991	-0.003297	-0.000364	-0.002320	
10541	    0	10.127291	-0.633360	-0.890782	-0.465203	-0.083924	-0.589754	0.101257	-0.006653	-0.008850	0.999992	-0.002326	-0.000420	-0.002949	
10542	    0	10.309249	-0.128219	-1.027293	-0.376512	-0.081253	-0.703623	0.103091	-0.001664	-0.010228	0.999991	-0.001883	-0.000406	-0.003518	
10543	    0	10.489920	0.454435	-0.966352	-0.455286	-0.056458	-0.825504	0.104919	0.004089	-0.009644	0.999989	-0.002276	-0.000282	-0.004128	
10544	    0	10.178461	-0.293161	-1.078753	-0.526049	-0.044060	-0.954442	0.101771	-0.003446	-0.010756	0.999985	-0.002630	-0.000220	-0.004772	
10545	    0	9.886295	-1.911390	-1.605623	-0.505069	-0.031853	-1.133735	0.098755	-0.019714	-0.015991	0.999980	-0.002525	-0.000159	-0.005669	
10546	    0	9.865404	-2.420431	-1.950269	-0.310710	-0.032616	-1.372730	0.098488	-0.024911	-0.019448	0.999975	-0.001554	-0.000163	-0.006864	
10547	    0	10.326803	-2.230494	-1.662449	-0.173952	-0.005913	-1.576249	0.103088	-0.023132	-0.016602	0.999969	-0.000870	-0.000030	-0.007881	
10548	    0	11.345977	-1.317015	-1.735331	-0.071908	0.033570	-1.765656	0.113335	-0.014177	-0.017367	0.999961	-0.000360	0.000168	-0.008828	
10549	    0	12.279706	-0.450208	-1.528122	-0.063134	0.065614	-1.905089	0.122742	-0.005676	-0.015320	0.999954	-0.000316	0.000328	-0.009525	
10550	    0	12.897718	-0.623618	-1.476779	-0.083353	0.076867	-2.022969	0.128900	-0.007546	-0.014814	0.999949	-0.000417	0.000384	-0.010115	
10551	    0	13.059642	-0.811252	-1.263820	-0.083162	0.093271	-2.150768	0.130493	-0.009521	-0.012695	0.999942	-0.000416	0.000466	-0.010754	
10552	    0	12.835070	-1.023029	-0.806663	-0.075914	0.108531	-2.293828	0.128218	-0.011704	-0.008132	0.999933	-0.000380	0.000543	-0.011469	
10553	    0	12.619895	-0.694982	-0.504410	-0.021935	0.132755	-2.431548	0.126099	-0.008484	-0.005127	0.999926	-0.000110	0.000664	-0.012157	
10554	    0	12.620669	-0.844081	-0.379502	-0.011826	0.207525	-2.566218	0.126081	-0.010059	-0.003925	0.999917	-0.000059	0.001038	-0.012831	
10555	    0	12.978896	-0.880055	-1.037305	-0.079157	0.292978	-2.705467	0.129639	-0.010559	-0.010559	0.999907	-0.000396	0.001465	-0.013527	
10556	    0	13.229595	-0.795879	-1.606444	-0.277529	0.354397	-2.819348	0.132137	-0.009845	-0.016286	0.999898	-0.001388	0.001772	-0.014096	
10557	    0	13.257922	-0.861444	-2.479468	-0.564596	0.389304	-2.922168	0.132385	-0.010620	-0.025024	0.999887	-0.002823	0.001946	-0.014610	
10558	    0	13.604339	-1.554782	-3.240475	-1.006361	0.422687	-3.032053	0.135716	-0.017771	-0.032606	0.999869	-0.005032	0.002113	-0.015160	
10559	    0	14.789417	-4.003942	-3.443156	-1.533396	0.506618	-3.119057	0.147156	-0.042603	-0.034485	0.999846	-0.007667	0.002533	-0.015594	
10560	    0	16.038765	-4.798316	-5.483945	-1.905556	0.515587	-3.251653	0.159432	-0.051103	-0.054774	0.999819	-0.009527	0.002578	-0.016257	
10561	    0	17.620162	-5.768087	-7.069817	-2.259037	0.475346	-3.473152	0.174988	-0.061523	-0.070435	0.999783	-0.011294	0.002377	-0.017365	
10562	    0	18.850393	-10.145481	-6.823273	-2.402116	0.314928	-3.645616	0.186497	-0.105679	-0.067275	0.999760	-0.012010	0.001575	-0.018227	
10563	    0	20.287703	-12.338603	-5.894128	-1.816507	0.188460	-3.868398	0.200378	-0.127808	-0.057983	0.999771	-0.009082	0.000942	-0.019341	
10564	    0	19.937201	-7.613642	-5.531715	-0.990562	0.018693	-4.166349	0.197720	-0.080540	-0.054944	0.999770	-0.004952	0.000093	-0.020830	
10565	    0	20.666101	-3.144447	-3.891259	-0.283071	-0.221841	-4.138481	0.205994	-0.035767	-0.038635	0.999784	-0.001415	-0.001109	-0.020691	
10566	    0	17.794931	0.883747	-4.027459	-0.046161	-0.579874	-4.038137	0.178195	0.005232	-0.039760	0.999791	-0.000231	-0.002899	-0.020189	
10567	    0	17.647512	0.236188	-4.559509	-0.636326	-0.694122	-3.479955	0.176636	-0.000854	-0.044983	0.999837	-0.003181	-0.003470	-0.017399	
10568	    0	15.530577	-1.188945	-3.282913	-1.219047	-0.747718	-3.142704	0.155212	-0.014526	-0.032166	0.999850	-0.006095	-0.003738	-0.015713	
10569	    0	15.120197	-3.354228	-0.712569	-1.150940	-0.288975	-2.855796	0.150712	-0.035736	-0.006706	0.999879	-0.005754	-0.001445	-0.014278	
10570	    0	13.174989	-1.477918	0.693828	-1.425996	-0.165184	-2.889949	0.131513	-0.016630	0.007161	0.999869	-0.007130	-0.000826	-0.014449	
10571	    0	10.024013	3.971847	-1.833134	-1.740339	-0.104336	-2.682610	0.100769	0.038208	-0.018616	0.999871	-0.008701	-0.000522	-0.013412	
10572	    0	10.071672	11.069833	-5.323061	-1.530689	-0.328836	-2.030619	0.101919	0.109257	-0.053904	0.999917	-0.007653	-0.001644	-0.010153	
10573	    0	11.661118	0.875323	-6.380175	-1.543449	-0.140192	-1.082627	0.116699	0.007629	-0.063782	0.999955	-0.007717	-0.000701	-0.005413	
10574	    0	8.926261	-4.985409	-4.548307	-1.472869	-0.019074	-0.365452	0.089175	-0.050350	-0.045105	0.999970	-0.007364	-0.000095	-0.001827	
10575	    0	6.635005	-5.726456	-2.007223	-1.196106	0.138856	0.031281	0.066345	-0.057373	-0.019775	0.999981	-0.005980	0.000694	0.000156	
10576	    0	4.378187	-6.140223	0.003994	-0.574113	0.154305	0.467302	0.043925	-0.061299	0.000182	0.999992	-0.002871	0.000772	0.002337	
10577	    0	3.264110	-5.872759	1.097828	0.079537	0.180817	0.842288	0.032898	-0.058594	0.010925	0.999990	0.000398	0.000904	0.004211	
10578	    0	2.833023	-4.413162	1.135531	0.595669	0.203134	1.180658	0.028602	-0.043997	0.011195	0.999977	0.002978	0.001016	0.005903	
10579	    0	2.860771	-2.508453	0.892780	0.852214	0.225261	1.529713	0.028809	-0.024902	0.008789	0.999961	0.004261	0.001126	0.007648	
10580	    0	2.829157	-1.369322	0.106400	1.009579	0.182346	1.893271	0.028420	-0.013430	0.000970	0.999942	0.005048	0.000912	0.009466	
10581	    0	2.759270	-1.116056	-0.828284	1.036290	0.161747	2.270567	0.027710	-0.010803	-0.008362	0.999922	0.005181	0.000809	0.011353	
10582	    0	2.757563	-1.392807	-1.498300	1.072347	0.162130	2.611247	0.027741	-0.013486	-0.015079	0.999900	0.005362	0.000811	0.013056	
10583	    0	2.976561	-1.928512	-1.811436	1.127672	0.190171	2.970249	0.030029	-0.018738	-0.018250	0.999873	0.005638	0.000951	0.014851	
10584	    0	3.433742	-2.485528	-1.602234	1.243849	0.194178	3.353489	0.034731	-0.024175	-0.016208	0.999839	0.006219	0.000971	0.016767	
10585	    0	3.838435	-2.458588	-1.030274	1.330079	0.182354	3.685997	0.038818	-0.023804	-0.010498	0.999807	0.006650	0.000912	0.018429	
10586	    0	4.235666	-2.099872	-0.614810	1.308728	0.171102	3.985888	0.042758	-0.020108	-0.006318	0.999779	0.006543	0.000855	0.019928	
10587	    0	4.543084	-1.706065	-0.516776	1.234729	0.180069	4.274340	0.045776	-0.016052	-0.005310	0.999752	0.006173	0.000900	0.021370	
10588	    0	4.887527	-1.343718	-0.740967	1.130017	0.180261	4.558029	0.049157	-0.012277	-0.007525	0.999723	0.005650	0.000901	0.022788	
10589	    0	5.293967	-1.296376	-1.399661	1.058497	0.145737	4.865768	0.053223	-0.011597	-0.014099	0.999689	0.005292	0.000729	0.024326	
10590	    0	5.970254	-2.002138	-1.681150	1.045919	0.117697	5.145283	0.060180	-0.018389	-0.016946	0.999655	0.005229	0.000588	0.025723	
10591	    0	6.893919	-2.320948	-1.858146	1.086563	0.107779	5.387794	0.069519	-0.021240	-0.018738	0.999621	0.005432	0.000539	0.026936	
10592	    0	8.002966	-2.086281	-1.613115	1.173560	0.081836	5.590627	0.080563	-0.018520	-0.016277	0.999592	0.005867	0.000409	0.027949	
10593	    0	9.305844	-1.953261	-1.561218	1.239959	0.054367	5.806059	0.093567	-0.016724	-0.015747	0.999558	0.006199	0.000272	0.029026	
10594	    0	11.046802	-1.509230	-1.505433	1.308459	0.033765	6.045161	0.110852	-0.011646	-0.015157	0.999521	0.006541	0.000169	0.030221	
10595	    0	12.859726	-0.878139	-1.385296	1.323928	0.036055	6.293046	0.128784	-0.004639	-0.013916	0.999482	0.006618	0.000180	0.031460	
10596	    0	14.993703	-0.988799	-1.494233	1.330812	0.047120	6.524910	0.150147	-0.004891	-0.015021	0.999445	0.006653	0.000236	0.032619	
10597	    0	17.643781	-1.566796	-2.028341	1.431747	0.090808	6.722057	0.176819	-0.009583	-0.020447	0.999409	0.007157	0.000454	0.033604	
10598	    0	20.556512	-1.402995	-3.095701	1.615090	0.095768	6.799556	0.205863	-0.006783	-0.031130	0.999389	0.008074	0.000479	0.033991	
10599	    0	23.048148	-0.359353	-5.094579	1.829906	0.031478	6.792324	0.230408	0.004700	-0.050964	0.999381	0.009148	0.000157	0.033955	
10600	    0	24.994088	1.484539	-7.469810	2.037279	-0.131253	6.744063	0.249283	0.024018	-0.074321	0.999379	0.010184	-0.000656	0.033713	
10601	    0	26.401695	5.398017	-9.776396	1.967247	-0.372960	6.592338	0.262207	0.063599	-0.096680	0.999406	0.009834	-0.001864	0.032955	
10602	    0	26.681954	11.343995	-6.812886	1.218049	-0.283290	6.269187	0.263177	0.122139	-0.067028	0.999489	0.006089	-0.001416	0.031341	
10603	    0	25.058688	10.433483	-6.751584	1.315501	-0.559126	5.764092	0.247620	0.111938	-0.066101	0.999558	0.006577	-0.002795	0.028816	
10604	    0	23.493892	14.499705	-6.795120	1.675609	-0.833035	4.922673	0.231544	0.151281	-0.065732	0.999653	0.008377	-0.004165	0.024611	
10605	    0	21.352310	23.709550	-5.163881	1.373393	-0.929901	3.872967	0.209106	0.241516	-0.049011	0.999778	0.006866	-0.004649	0.019363	
10606	    0	17.133092	33.719129	-2.339337	0.550099	-0.758008	2.801425	0.166670	0.339609	-0.021824	0.999890	0.002750	-0.003790	0.014007	
10607	    0	14.190164	33.247451	-3.605952	-0.048638	-0.533301	1.556414	0.139404	0.333557	-0.035767	0.999966	-0.000243	-0.002666	0.007782	
10608	    0	13.283698	27.998382	-4.761091	-0.204849	-0.327873	0.051498	0.132843	0.279969	-0.047680	0.999998	-0.001024	-0.001639	0.000257	
10609	    0	13.819536	23.786187	-2.908660	0.174715	-0.276759	-1.448835	0.139954	0.236877	-0.028687	0.999972	0.000874	-0.001384	-0.007244	
10610	    0	15.285319	21.289846	-1.735859	0.549334	-0.451675	-2.683344	0.155729	0.210868	-0.016428	0.999904	0.002747	-0.002258	-0.013416	
10611	    0	13.937503	17.690043	-1.990766	0.614197	-0.461411	-3.393726	0.142395	0.174561	-0.019043	0.999848	0.003071	-0.002307	-0.016968	
10612	    0	12.473649	1.177791	-4.012167	0.123792	-0.389115	-3.101475	0.124977	0.009866	-0.039872	0.999877	0.000619	-0.001945	-0.015507	
10613	    0	16.096179	-21.679550	2.494385	-0.479137	-0.058557	-2.300315	0.158447	-0.218567	0.025513	0.999930	-0.002396	-0.000293	-0.011501	
10614	    0	15.686681	-14.728349	4.789681	-0.200086	-0.117305	-2.572703	0.154927	-0.149237	0.048137	0.999916	-0.001000	-0.000587	-0.012863	
10615	    0	16.359463	2.472500	2.161601	-0.060275	-0.220308	-3.218981	0.163940	0.022095	0.021790	0.999869	-0.000301	-0.001101	-0.016094	
10616	    0	17.445786	5.125263	-1.499111	-0.058749	-0.204287	-3.462584	0.175325	0.048218	-0.014827	0.999849	-0.000294	-0.001021	-0.017312	
10617	    0	17.654051	0.872739	-4.914649	-0.042536	-0.431081	-3.303681	0.176758	0.005798	-0.048767	0.999861	-0.000213	-0.002155	-0.016518	
10618	    0	12.480697	5.071228	-12.658983	1.275137	-1.180145	-3.314784	0.126376	0.049429	-0.125529	0.999825	0.006375	-0.005900	-0.016573	
10619	    0	12.058419	12.968028	-9.770811	1.671147	-1.217738	-3.576151	0.123474	0.128296	-0.095886	0.999786	0.008355	-0.006088	-0.017879	
10620	    0	13.150934	2.427449	0.780917	0.818674	-0.626213	-3.261344	0.131856	0.022093	0.008315	0.999853	0.004093	-0.003131	-0.016306	
10621	    0	9.394280	0.586860	4.595967	0.922620	-0.601982	-2.816117	0.093872	0.004333	0.046265	0.999886	0.004613	-0.003010	-0.014080	
10622	    0	6.633264	1.802348	1.347228	0.729967	-0.590344	-2.679724	0.066525	0.017083	0.013732	0.999899	0.003650	-0.002952	-0.013398	
10623	    0	8.663431	3.112219	-1.082941	0.653095	-0.533882	-2.454445	0.087036	0.030090	-0.010498	0.999915	0.003265	-0.002669	-0.012272	
10624	    0	8.943082	5.262219	-1.510436	0.434121	-0.443085	-2.009810	0.089987	0.051752	-0.014792	0.999945	0.002171	-0.002215	-0.010049	
10625	    0	8.860025	3.739539	-1.213528	0.242618	-0.424772	-1.638814	0.088928	0.036682	-0.011902	0.999963	0.001213	-0.002124	-0.008194	
10626	    0	9.690103	3.029949	-2.305525	0.199701	-0.416378	-1.326953	0.097147	0.029678	-0.022823	0.999975	0.000998	-0.002082	-0.006635	
10627	    0	11.410616	2.443528	-1.751850	-0.128174	-0.243188	-1.086431	0.114258	0.023804	-0.017395	0.999984	-0.000641	-0.001216	-0.005432	
10628	    0	12.303549	1.209380	-0.676515	-0.277520	-0.239945	-0.887302	0.123096	0.011539	-0.006634	0.999988	-0.001388	-0.001200	-0.004436	
10629	    0	12.132505	0.013871	-1.005445	-0.241090	-0.274468	-0.812533	0.121338	-0.000366	-0.009888	0.999990	-0.001205	-0.001372	-0.004063	
10630	    0	11.209542	0.793974	-1.501863	-0.286866	-0.268174	-0.785830	0.112145	0.007478	-0.014879	0.999990	-0.001434	-0.001341	-0.003929	
10631	    0	10.567237	0.522223	-1.892082	-0.296021	-0.244713	-0.704958	0.105713	0.004822	-0.018799	0.999991	-0.001480	-0.001224	-0.003525	
10632	    0	10.677717	0.320287	-2.223177	-0.384141	-0.133324	-0.613977	0.106801	0.002832	-0.022166	0.999992	-0.001921	-0.000667	-0.003070	
10633	    0	10.781261	1.001388	-2.985691	-0.513269	-0.066376	-0.544740	0.107849	0.009644	-0.029846	0.999992	-0.002566	-0.000332	-0.002724	
10634	    0	10.372867	1.729414	-3.690989	-0.782397	-0.008774	-0.424005	0.103766	0.016930	-0.036972	0.999990	-0.003912	-0.000044	-0.002120	
10635	    0	9.581335	1.565247	-4.018388	-1.020818	0.042916	-0.265504	0.095825	0.015320	-0.040283	0.999986	-0.005104	0.000215	-0.001328	
10636	    0	9.399895	1.068176	-4.033145	-1.165969	0.114442	-0.167657	0.093985	0.010367	-0.040446	0.999982	-0.005830	0.000572	-0.000838	
10637	    0	9.676790	0.166830	-3.861809	-1.131255	0.144196	-0.094605	0.096741	0.001404	-0.038696	0.999983	-0.005656	0.000721	-0.000473	
10638	    0	10.181644	0.444662	-3.283870	-1.059156	0.174523	-0.037193	0.101789	0.004253	-0.032950	0.999985	-0.005296	0.000873	-0.000186	
10639	    0	10.188837	1.091191	-3.057212	-1.150328	0.130463	0.012970	0.101868	0.010742	-0.030701	0.999983	-0.005752	0.000652	0.000065	
10640	    0	10.819780	0.552007	-2.074606	-1.278314	0.138665	0.051690	0.108182	0.005415	-0.020856	0.999979	-0.006392	0.000693	0.000258	
10641	    0	11.133237	0.008393	-0.546831	-1.228340	0.153543	0.019837	0.111328	0.000061	-0.005554	0.999980	-0.006142	0.000768	0.000099	
10642	    0	11.157560	0.522663	-0.096169	-1.174552	0.098038	0.035477	0.111574	0.005240	-0.001047	0.999982	-0.005873	0.000490	0.000177	
10643	    0	10.638311	-0.220858	0.459938	-1.130682	0.064278	-0.027466	0.106384	-0.002197	0.004578	0.999984	-0.005653	0.000321	-0.000137	
10644	    0	9.911860	-0.122209	0.486964	-1.025014	0.011253	-0.103379	0.099118	-0.001248	0.004870	0.999987	-0.005125	0.000056	-0.000517	
10645	    0	9.339059	-0.607347	0.141224	-0.951389	-0.050163	-0.209809	0.093384	-0.006165	0.001465	0.999988	-0.004757	-0.000251	-0.001049	
10646	    0	8.989508	-1.480431	-0.432085	-0.742342	-0.107575	-0.335313	0.089872	-0.014971	-0.004217	0.999991	-0.003712	-0.000538	-0.001677	
10647	    0	9.158289	-1.483411	-1.033769	-0.540925	-0.094414	-0.466920	0.091553	-0.015076	-0.010254	0.999993	-0.002705	-0.000472	-0.002335	
10648	    0	9.468148	-0.448420	-1.463935	-0.362588	-0.101853	-0.590707	0.094675	-0.004790	-0.014583	0.999993	-0.001813	-0.000509	-0.002954	
10649	    0	9.592419	0.372627	-1.677908	-0.263024	-0.125122	-0.724031	0.095947	0.003357	-0.016724	0.999992	-0.001315	-0.000626	-0.003620	
10650	    0	9.180263	0.304846	-1.414520	-0.271798	-0.135613	-0.817301	0.091824	0.002654	-0.014087	0.999990	-0.001359	-0.000678	-0.004086	
10651	    0	8.935685	-0.158368	-1.214131	-0.275422	-0.120354	-0.926212	0.089355	-0.002014	-0.012085	0.999988	-0.001377	-0.000602	-0.004631	
10652	    0	8.912574	-0.219380	-1.451903	-0.203324	-0.127602	-1.046949	0.089122	-0.002675	-0.014460	0.999985	-0.001017	-0.000638	-0.005235	
10653	    0	9.411177	-0.051884	-1.665831	-0.163842	-0.119019	-1.203163	0.094116	-0.001099	-0.016602	0.999981	-0.000819	-0.000595	-0.006016	
10654	    0	9.962385	-0.493290	-1.899397	-0.161935	-0.122643	-1.323901	0.099600	-0.005608	-0.018929	0.999977	-0.000810	-0.000613	-0.006619	
10655	    0	10.634027	-0.367773	-2.264729	-0.163843	-0.114442	-1.428235	0.106323	-0.004456	-0.022583	0.999973	-0.000819	-0.000572	-0.007141	
10656	    0	11.102344	0.514321	-2.269099	-0.264171	-0.095368	-1.558892	0.111070	0.004248	-0.022644	0.999969	-0.001321	-0.000477	-0.007794	
10657	    0	11.155604	-0.601386	-1.990063	-0.347904	-0.094415	-1.631184	0.111511	-0.006958	-0.019836	0.999965	-0.001740	-0.000472	-0.008156	
10658	    0	11.599559	-0.536052	-1.890906	-0.317959	-0.045205	-1.752686	0.115947	-0.006407	-0.018873	0.999960	-0.001590	-0.000226	-0.008763	
10659	    0	11.726141	-0.071466	-1.514461	-0.300603	-0.009728	-1.865415	0.117249	-0.001831	-0.015137	0.999955	-0.001503	-0.000049	-0.009327	
10660	    0	11.963599	-0.268425	-1.277236	-0.306707	0.028420	-1.994548	0.119599	-0.003897	-0.012784	0.999949	-0.001534	0.000142	-0.009973	
10661	    0	12.099842	-0.712780	-1.114554	-0.314146	0.060273	-2.112620	0.120911	-0.008423	-0.011169	0.999943	-0.001571	0.000301	-0.010563	
10662	    0	11.823543	-0.743426	-0.955362	-0.305945	0.107577	-2.232599	0.118137	-0.008768	-0.009604	0.999936	-0.001530	0.000538	-0.011163	
10663	    0	11.613305	-0.714525	-1.188713	-0.305755	0.151829	-2.380428	0.116028	-0.008545	-0.011963	0.999928	-0.001529	0.000759	-0.011902	
10664	    0	11.855105	-1.063891	-1.489012	-0.313577	0.215345	-2.519676	0.118388	-0.012155	-0.014999	0.999918	-0.001568	0.001077	-0.012598	
10665	    0	12.473614	-0.903514	-2.017691	-0.424207	0.271806	-2.670370	0.124573	-0.010742	-0.020325	0.999907	-0.002121	0.001359	-0.013351	
10666	    0	13.064080	-0.733688	-2.332954	-0.726153	0.303851	-2.781202	0.130486	-0.009237	-0.023497	0.999895	-0.003631	0.001519	-0.013906	
10667	    0	13.682788	-1.115418	-2.908114	-1.137399	0.331129	-2.905393	0.136597	-0.013306	-0.029236	0.999876	-0.005687	0.001656	-0.014526	
10668	    0	14.949947	-3.113367	-2.578860	-1.683320	0.381107	-3.019867	0.148955	-0.033603	-0.025797	0.999848	-0.008416	0.001905	-0.015099	
10669	    0	16.072209	-5.727579	-3.178916	-2.103360	0.408960	-3.138159	0.159729	-0.060120	-0.031494	0.999819	-0.010516	0.002045	-0.015690	
10670	    0	17.765560	-6.993236	-4.601111	-2.170327	0.392559	-3.351246	0.176355	-0.073391	-0.045574	0.999799	-0.010851	0.001963	-0.016755	
10671	    0	19.398414	-9.231129	-4.414690	-2.014115	0.276204	-3.631854	0.192200	-0.096252	-0.043457	0.999783	-0.010070	0.001381	-0.018158	
10672	    0	21.006700	-12.071253	-3.323496	-1.344584	0.139628	-3.868946	0.207654	-0.124966	-0.032550	0.999789	-0.006722	0.000698	-0.019343	
10673	    0	20.950282	-8.547397	-5.014173	-0.577587	-0.078398	-4.115592	0.207703	-0.089905	-0.049805	0.999784	-0.002888	-0.000392	-0.020576	
10674	    0	22.324052	-3.543763	-2.728091	0.168813	-0.241679	-4.210594	0.222462	-0.040104	-0.027044	0.999777	0.000844	-0.001208	-0.021051	
10675	    0	19.892201	0.999497	-5.294441	0.365473	-0.565186	-4.004944	0.199219	0.006104	-0.052368	0.999793	0.001827	-0.002826	-0.020023	
10676	    0	19.357749	-0.606873	-3.943003	-0.199138	-0.615534	-3.488914	0.193552	-0.009484	-0.038826	0.999842	-0.000996	-0.003078	-0.017444	
10677	    0	16.783647	-0.496809	-1.669549	-0.526453	-0.745237	-3.266300	0.167786	-0.007751	-0.016052	0.999856	-0.002632	-0.003726	-0.016331	
10678	    0	14.393282	0.417551	0.328764	-0.295461	-0.557542	-3.122652	0.143965	0.001933	0.003685	0.999872	-0.001477	-0.002788	-0.015613	
10679	    0	11.153560	5.281294	-1.890077	-0.658254	-0.376145	-3.078590	0.112366	0.051025	-0.018860	0.999874	-0.003291	-0.001881	-0.015392	
10680	    0	10.583357	9.335460	-5.177041	-1.311348	-0.239953	-2.577109	0.107084	0.091639	-0.052247	0.999894	-0.006557	-0.001200	-0.012885	
10681	    0	15.445295	5.647287	-8.889410	-1.592862	-0.286872	-1.626623	0.155029	0.054504	-0.089111	0.999933	-0.007964	-0.001434	-0.008133	
10682	    0	12.179437	-3.786208	-6.254722	-1.907573	-0.148585	-0.752462	0.121696	-0.038914	-0.062089	0.999947	-0.009538	-0.000743	-0.003762	
10683	    0	9.152467	-6.523799	-3.500052	-1.737999	-0.015831	-0.295261	0.091431	-0.065674	-0.034424	0.999961	-0.008690	-0.000079	-0.001476	
10684	    0	5.692516	-6.421735	-1.250097	-1.209648	0.014305	0.081826	0.056951	-0.064268	-0.012116	0.999981	-0.006048	0.000072	0.000409	
10685	    0	3.655713	-5.178202	-0.114190	-0.680353	0.057984	0.484468	0.036682	-0.051697	-0.000977	0.999990	-0.003402	0.000290	0.002422	
10686	    0	2.803990	-3.716045	0.441843	-0.361444	0.151253	0.841144	0.028199	-0.037034	0.004464	0.999989	-0.001807	0.000756	0.004206	
10687	    0	2.689816	-2.287177	0.366106	-0.241090	0.195504	1.202400	0.027039	-0.022705	0.003662	0.999980	-0.001205	0.000978	0.006012	
10688	    0	2.721109	-1.718218	-0.236696	-0.159456	0.197794	1.584642	0.027344	-0.016968	-0.002380	0.999968	-0.000797	0.000989	0.007923	
10689	    0	2.641881	-2.033939	-0.577955	-0.070764	0.195316	1.965364	0.026611	-0.020081	-0.005798	0.999950	-0.000354	0.000977	0.009827	
10690	    0	2.552002	-2.442759	-0.853615	0.105288	0.184254	2.311377	0.025792	-0.024126	-0.008573	0.999932	0.000526	0.000921	0.011557	
10691	    0	2.641346	-2.496307	-0.915913	0.280961	0.168615	2.651293	0.026733	-0.024597	-0.009216	0.999910	0.001405	0.000843	0.013256	
10692	    0	2.822455	-2.540319	-0.731065	0.442331	0.167472	3.015063	0.028597	-0.024958	-0.007390	0.999883	0.002212	0.000837	0.015075	
10693	    0	2.956120	-2.456619	-0.398804	0.653109	0.148971	3.386093	0.029968	-0.024048	-0.004089	0.999850	0.003265	0.000745	0.016930	
10694	    0	3.207963	-2.142544	-0.222113	0.775956	0.103003	3.732526	0.032471	-0.020813	-0.002319	0.999818	0.003880	0.000515	0.018661	
10695	    0	3.587452	-2.125061	-0.472324	0.844826	0.060277	4.075917	0.036296	-0.020494	-0.004822	0.999781	0.004224	0.000301	0.020378	
10696	    0	3.932620	-2.204423	-0.843936	0.874211	0.030902	4.402721	0.039797	-0.021134	-0.008539	0.999747	0.004371	0.000154	0.022012	
10697	    0	4.455535	-2.406874	-1.313714	0.931639	-0.005150	4.710078	0.045105	-0.022949	-0.013245	0.999711	0.004658	-0.000026	0.023548	
10698	    0	5.153455	-2.708401	-1.528114	1.016537	-0.050932	5.015348	0.052195	-0.025702	-0.015401	0.999672	0.005082	-0.000255	0.025074	
10699	    0	5.966325	-2.732185	-1.678375	1.163052	-0.097668	5.284764	0.060364	-0.025635	-0.016907	0.999634	0.005815	-0.000488	0.026421	
10700	    0	6.928165	-2.237776	-1.783443	1.218386	-0.117890	5.514115	0.069872	-0.020348	-0.017921	0.999600	0.006091	-0.000589	0.027567	
10701	    0	8.081900	-1.985316	-1.911978	1.241673	-0.167108	5.762554	0.081360	-0.017395	-0.019165	0.999565	0.006207	-0.000835	0.028809	
10702	    0	9.530012	-1.829955	-1.934799	1.239780	-0.197060	6.007565	0.095809	-0.015306	-0.019355	0.999529	0.006198	-0.000985	0.030033	
10703	    0	11.195841	-1.484482	-1.896145	1.207364	-0.206028	6.236554	0.112366	-0.011230	-0.018921	0.999495	0.006036	-0.001030	0.031178	
10704	    0	13.153802	-1.572274	-1.525709	1.184296	-0.199354	6.481200	0.131968	-0.011360	-0.015202	0.999456	0.005920	-0.000997	0.032400	
10705	    0	15.756569	-1.862653	-1.358268	1.213500	-0.157196	6.711354	0.158081	-0.013245	-0.013550	0.999418	0.006066	-0.000786	0.033550	
10706	    0	18.833766	-1.776254	-1.514973	1.294211	-0.109504	6.893045	0.188807	-0.011162	-0.015133	0.999385	0.006470	-0.000547	0.034458	
10707	    0	21.753155	-0.991852	-2.737616	1.421847	-0.116754	6.971686	0.217712	-0.002136	-0.027283	0.999367	0.007108	-0.000584	0.034851	
10708	    0	24.253057	0.216306	-4.589848	1.550053	-0.188486	7.003188	0.242291	0.011005	-0.045608	0.999356	0.007749	-0.000942	0.035008	
10709	    0	26.224807	2.785563	-6.730124	1.568364	-0.338817	6.954906	0.261169	0.037476	-0.066589	0.999363	0.007840	-0.001694	0.034767	
10710	    0	27.794277	9.774402	-5.357731	0.723979	-0.111220	6.766481	0.274450	0.107263	-0.053047	0.999420	0.003619	-0.000556	0.033826	
10711	    0	26.335625	7.996371	-5.142874	0.590048	-0.208320	6.505980	0.260620	0.088623	-0.050903	0.999466	0.002950	-0.001041	0.032524	
10712	    0	26.028766	8.958990	-6.652235	1.026879	-0.519258	5.862917	0.257677	0.097507	-0.065364	0.999553	0.005134	-0.002596	0.029310	
10713	    0	23.926827	14.883481	-6.122077	1.217212	-0.710374	4.920734	0.235718	0.155029	-0.059448	0.999672	0.006085	-0.003551	0.024601	
10714	    0	20.928329	26.011560	-4.323989	0.736860	-0.758987	3.937422	0.204267	0.264325	-0.041490	0.999792	0.003684	-0.003795	0.019686	
10715	    0	16.550752	34.288536	-2.007600	-0.198181	-0.640893	2.896225	0.160583	0.345215	-0.019897	0.999889	-0.000991	-0.003204	0.014481	
10716	    0	13.801906	32.674457	-2.476412	-0.765810	-0.467688	1.513501	0.135601	0.327680	-0.025699	0.999961	-0.003829	-0.002338	0.007567	
10717	    0	13.664131	26.758790	-1.808802	-0.785830	-0.230218	0.003815	0.136658	0.267517	-0.018982	0.999991	-0.003929	-0.001151	0.000019	
10718	    0	14.258515	21.485711	-0.392051	-0.234415	-0.121118	-1.413358	0.144101	0.213838	-0.004085	0.999973	-0.001172	-0.000606	-0.007067	
10719	    0	12.988978	20.323169	0.405638	0.303086	-0.141147	-2.471988	0.132385	0.201599	0.004456	0.999922	0.001515	-0.000706	-0.012360	
10720	    0	15.375127	16.023723	0.145430	0.453587	-0.225649	-3.148594	0.156246	0.157786	0.001989	0.999872	0.002268	-0.001128	-0.015742	
10721	    0	14.089684	12.105771	-0.028027	0.562509	-0.350972	-3.636376	0.143066	0.118469	0.000305	0.999828	0.002812	-0.001755	-0.018181	
10722	    0	11.776126	-5.600282	-4.425767	0.159842	-0.488682	-3.015254	0.117007	-0.057735	-0.044017	0.999883	0.000799	-0.002443	-0.015076	
10723	    0	13.289672	-25.481227	1.626452	0.036813	-0.213627	-2.152294	0.130127	-0.256226	0.016357	0.999941	0.000184	-0.001068	-0.010761	
10724	    0	15.185239	-12.968432	3.674511	0.280389	-0.046350	-2.655871	0.150104	-0.131737	0.036596	0.999910	0.001402	-0.000232	-0.013279	
10725	    0	16.334040	1.332993	3.227473	0.504324	-0.054743	-3.141154	0.163513	0.010681	0.032349	0.999873	0.002522	-0.000274	-0.015705	
10726	    0	17.701597	6.360779	-0.024510	0.638993	-0.027467	-3.368924	0.178054	0.060615	-0.000024	0.999852	0.003195	-0.000137	-0.016844	
10727	    0	16.732934	4.088769	-5.613869	0.899740	-0.428030	-3.273933	0.168091	0.038391	-0.055603	0.999853	0.004498	-0.002140	-0.016369	
10728	    0	14.158184	7.717737	-13.299151	2.181402	-1.118741	-3.371864	0.143610	0.076206	-0.131357	0.999783	0.010906	-0.005593	-0.016858	
10729	    0	13.724736	7.183233	-11.384322	1.842623	-1.013824	-3.434223	0.139038	0.070496	-0.112488	0.999797	0.009212	-0.005069	-0.017170	
10730	    0	11.240974	0.022574	-1.099932	1.195199	-0.714144	-2.989141	0.112435	-0.001390	-0.010603	0.999864	0.005976	-0.003571	-0.014945	
10731	    0	6.387541	1.496163	1.146952	1.082842	-0.727108	-2.689462	0.064026	0.014038	0.011780	0.999887	0.005414	-0.003635	-0.013447	
10732	    0	5.874392	4.222792	1.249572	0.712035	-0.521867	-2.572330	0.059247	0.041423	0.012798	0.999907	0.003560	-0.002609	-0.012861	
10733	    0	9.543156	6.319717	-0.228306	0.391396	-0.305755	-2.226306	0.096130	0.062134	-0.002014	0.999934	0.001957	-0.001529	-0.011131	
10734	    0	10.253564	5.641090	0.984847	0.173952	-0.256351	-1.739525	0.103008	0.055508	0.010029	0.999961	0.000870	-0.001282	-0.008698	
10735	    0	10.398800	3.100429	0.685422	0.204660	-0.373844	-1.390088	0.104187	0.030273	0.007080	0.999973	0.001023	-0.001869	-0.006950	
10736	    0	11.239663	2.525754	-0.849241	0.131417	-0.342180	-1.141364	0.112553	0.024621	-0.008284	0.999982	0.000657	-0.001711	-0.005707	
10737	    0	12.605812	1.758265	-1.655506	-0.116730	-0.232507	-0.959782	0.126160	0.016968	-0.016418	0.999988	-0.000584	-0.001163	-0.004799	
10738	    0	12.851456	0.291815	-1.728568	-0.251771	-0.226594	-0.847629	0.128545	0.002352	-0.017143	0.999990	-0.001259	-0.001133	-0.004238	
10739	    0	11.904852	0.238318	-1.809384	-0.258447	-0.255586	-0.785830	0.119080	0.001892	-0.017944	0.999990	-0.001292	-0.001278	-0.003929	
10740	    0	10.594575	0.628588	-1.916227	-0.287820	-0.216294	-0.702669	0.105988	0.005886	-0.019056	0.999991	-0.001439	-0.001081	-0.003513	
10741	    0	10.154207	0.340381	-1.580788	-0.416375	-0.132752	-0.628664	0.101562	0.003052	-0.015747	0.999992	-0.002082	-0.000664	-0.003143	
10742	    0	10.453219	0.004806	-1.386119	-0.456620	-0.089646	-0.533296	0.104538	-0.000262	-0.013814	0.999993	-0.002283	-0.000448	-0.002666	
10743	    0	10.941245	0.753544	-2.222327	-0.505067	-0.045586	-0.506593	0.109436	0.007202	-0.022217	0.999993	-0.002525	-0.000228	-0.002533	
10744	    0	10.396727	1.137977	-3.627604	-0.735857	-0.013161	-0.426484	0.103993	0.011024	-0.036310	0.999990	-0.003679	-0.000066	-0.002132	
10745	    0	9.391145	2.167778	-4.570565	-1.021581	0.047493	-0.303651	0.093933	0.021301	-0.045837	0.999986	-0.005108	0.000237	-0.001518	
10746	    0	9.063220	1.351131	-4.222752	-1.246842	0.127221	-0.193597	0.090618	0.013160	-0.042368	0.999979	-0.006234	0.000636	-0.000968	
10747	    0	9.170761	-0.064173	-3.709552	-1.263246	0.174714	-0.085450	0.091675	-0.000916	-0.037170	0.999979	-0.006316	0.000874	-0.000427	
10748	    0	9.524826	-0.509680	-3.298523	-1.114088	0.190354	-0.039482	0.095216	-0.005300	-0.033047	0.999984	-0.005570	0.000952	-0.000197	
10749	    0	9.847900	0.304150	-3.052888	-1.043706	0.193978	-0.026703	0.098450	0.002869	-0.030640	0.999986	-0.005219	0.000970	-0.000134	
10750	    0	10.114088	1.095005	-2.573546	-1.094442	0.164414	-0.024033	0.101121	0.010797	-0.025878	0.999984	-0.005472	0.000822	-0.000120	
